Activity,acc_x,acc_y,acc_z,gyro_x,gyro_y,gyro_z
0,0.519444445988306,0.0625000010308258,0.865277795560711,0.00122173049021512,0.0201585534960032,0.00122173049021512
0,0.525000013521323,0.0625000010308258,0.85138887672817,0.0305432621389627,0.0329867228865623,-0.00733038317412138
0,0.518055554105052,0.0625000010308258,0.854166660494678,0.0507018156349659,0.0302378293126821,-0.0250454749912024
0,0.518055554105052,0.0583333375370279,0.85138887672817,0.0387899428606033,0.01588249579072,-0.0256563406437635
0,0.518055554105052,0.0597222233422998,0.843055622676362,0.0271835029125214,0.00244346098043024,-0.0045814891345799
0,0.516666662221798,0.055555559848502,0.855555552377932,0.01191187184304,0.0045814891345799,0.00702495034784079
0,0.518055554105052,0.0597222233422998,0.841666730793107,0.00610865233466029,0.00885754637420177,0.0027488935738802
0,0.515277818962402,0.0611111152255539,0.848611190209378,-0.00916297826915979,0.02382374368608,0.00702495034784079
0,0.515277818962402,0.0611111152255539,0.848611190209378,-0.00122173049021512,0.0381790772080422,-0.00427605677396059
0,0.519444445988306,0.0611111152255539,0.859722228027695,0.01191187184304,0.021685715764761,-0.000305432622553781
0,0.522222229754814,0.052777782159976,0.858333336144441,0.0513126812875271,0.0207694191485643,-0.0186313893646002
0,0.523611121638068,0.0625000010308258,0.838888947026599,0.0577267669141293,0.0314595587551594,-0.017409659922123
0,0.523611121638068,0.0625000010308258,0.838888947026599,0.0641408488154411,0.0299323964864016,-0.00763581553474069
0,0.515277818962402,0.0708333340964038,0.848611190209378,0.0729983970522881,-0.0131336031481624,0.0113010071218014
0,0.515277818962402,0.0736111117849297,0.844444514559616,0.0397062413394451,-0.00702495034784079,0.0232128798961639
0,0.518055554105052,0.0708333340964038,0.844444514559616,-0.0164933614432812,0.0284052342176437,0.0232128798961639
0,0.52083333787156,0.0722222259796579,0.844444514559616,-0.0540615729987621,0.0299323964864016,0.0339030213654041
0,0.523611121638068,0.0722222259796579,0.861111119910949,-0.0467311926186085,0.0326812900602817,0.0500909499824047
0,0.523611121638068,0.0625000010308258,0.863888903677457,-0.0277943685650826,0.0323758572340012,0.0482583530247212
0,0.516666662221798,0.0638888929140799,0.848611190209378,-0.00610865233466029,0.0555887371301651,0.0430659987032413
0,0.511111143312639,0.0625000010308258,0.841666730793107,-0.0241291765123606,0.0726929605007172,0.0326812900602817
0,0.516666662221798,0.055555559848502,0.852777768611424,-0.0113010071218014,0.0470366254448891,0.0143553335219622
0,0.512500035195893,0.055555559848502,0.866666687443965,0.0140499006956816,0.0394008085131645,0.0192422550171614
0,0.519444445988306,0.0625000010308258,0.858333336144441,0.0351247526705265,0.0308486949652433,0.0189368221908808
0,0.513888927079148,0.0583333375370279,0.836111163260091,0.0488692186772823,0.0507018156349659,-0.0152716310694814
0,0.500000008246606,0.0652777787193518,0.831944487610329,0.0494800843298435,0.0403171069920063,-0.00702495034784079
0,0.504166683896369,0.0708333340964038,0.826388920077312,0.0568104684352875,0.0503963828086853,-0.00580321997404099
0,0.504166683896369,0.0708333340964038,0.826388920077312,0.0589484944939613,0.0592539273202419,0.00183259579353034
0,0.504166683896369,0.0708333340964038,0.826388920077312,0.0589484944939613,0.0592539273202419,0.00183259579353034
0,0.504166683896369,0.0708333340964038,0.826388920077312,0.0931569486856461,0.0439822971820831,-0.00366519158706069
0,0.52083333787156,0.0694444482911319,0.854166660494678,0.0855211317539215,0.0613919571042061,-0.01588249579072
0,0.518055554105052,0.0736111117849297,0.856944444261187,0.0549778714776039,0.090408056974411,-0.0204639863222837
0,0.519444445988306,0.0722222259796579,0.858333336144441,0.0143553335219622,0.0671951770782471,-0.0177150927484035
0,0.511111143312639,0.0777777813567098,0.85138887672817,-0.00855211354792118,0.0491746515035629,-0.00641408516094089
0,0.52083333787156,0.0750000036681839,0.856944444261187,-0.00244346098043024,0.0448985956609249,0.0027488935738802
0,0.527777797287831,0.0722222259796579,0.859722228027695,0.027488935738802,0.0772744566202164,-0.0332921557128429
0,0.512500035195893,0.0736111117849297,0.863888903677457,0.0482583530247212,0.0641408488154411,-0.0302378293126821
0,0.508333359546131,0.0819444448505077,0.861111119910949,0.0305432621389627,0.0571159012615681,-0.0222965814173222
0,0.50138890012986,0.0777777813567098,0.856944444261187,-0.000610865245107561,-0.0253509078174829,0.027488935738802
0,0.512500035195893,0.0708333340964038,0.861111119910949,0.00244346098043024,-0.0555887371301651,0.0198531206697226
0,0.525000013521323,0.0652777787193518,0.854166660494678,-0.00519235478714108,-0.0177150927484035,-0.0149661982432008
0,0.53750004047061,0.0625000010308258,0.866666687443965,-0.0320704244077206,0.0244346093386412,-0.0189368221908808
0,0.518055554105052,0.0652777787193518,0.854166660494678,-0.0607810914516449,0.0510072484612465,0.0100792767480016
0,0.476388894855144,0.0750000036681839,0.87500003874349,-0.0946841165423393,0.0259617734700441,0.0485637858510017
0,0.481944462388161,0.0708333340964038,0.859722228027695,-0.172569438815117,0.0781907513737679,0.0400116741657257
0,0.508333359546131,0.0722222259796579,0.858333336144441,-0.0598647929728031,-0.000916297896765172,0.0323758572340012
0,0.516666662221798,0.0694444482911319,0.855555552377932,-0.0360410511493683,0.00152716308366507,-0.000305432622553781
0,0.495833332596844,0.0722222259796579,0.86805557932722,0.0125227374956012,-0.0265726372599602,0.0109955742955208
0,0.495833332596844,0.0722222259796579,0.86805557932722,0.0522289797663689,-0.0870482996106148,0.00763581553474069
0,0.486111138037923,0.0819444448505077,0.866666687443965,0.0397062413394451,-0.0940732508897781,0.0424551330506802
0,0.530555581054339,0.0652777787193518,0.861111119910949,0.0113010071218014,-0.139582708477974,0.0369573459029198
0,0.53750004047061,0.0611111152255539,0.859722228027695,-0.00885754637420177,-0.123700208961964,-0.0510072484612465
0,0.522222229754814,0.0652777787193518,0.870833363093728,-0.0607810914516449,-0.171958565711975,-0.0357356183230877
0,0.522222229754814,0.0652777787193518,0.870833363093728,-0.0342084541916847,-0.155465200543404,-0.0616973899304867
0,0.512500035195893,0.0666666706026059,0.861111119910949,-0.0433714315295219,-0.0797179117798805,-0.08460483700037
0,0.508333359546131,0.0625000010308258,0.859722228027695,-0.0271835029125214,-0.0766635909676552,-0.0742201283574104
0,0.508333359546131,0.0625000010308258,0.859722228027695,0.00427605677396059,-0.0916297882795334,-0.0946841165423393
0,0.509722251429385,0.0666666706026059,0.843055622676362,-0.0146607663482428,-0.0748309940099716,-0.0980438739061356
0,0.512500035195893,0.0625000010308258,0.841666730793107,-0.0516181141138077,-0.0265726372599602,-0.12675453722477
0,0.512500035195893,0.0625000010308258,0.841666730793107,-0.0956004112958908,-0.0335975885391235,-0.143858760595322
0,0.509722251429385,0.0625000010308258,0.861111119910949,-0.0507018156349659,-0.0421497002243996,-0.171042263507843
0,0.518055554105052,0.0569444456537738,0.888888957576031,0.00427605677396059,-0.0326812900602817,-0.177456349134445
0,0.518055554105052,0.0569444456537738,0.888888957576031,0.0558941699564457,0.0027488935738802,-0.204945296049118
0,0.515277818962402,0.0638888929140799,0.884722281926269,0.0461203269660473,0.0293215326964855,-0.217162594199181
0,0.525000013521323,0.0680555564078778,0.870833363093728,0.0464257597923279,0.0739146918058395,-0.241291776299477
0,0.525000013521323,0.0736111117849297,0.858333336144441,0.0369573459029198,0.0998764708638191,-0.246178686618805
0,0.525000013521323,0.0750000036681839,0.840277838909853,-0.00824668072164059,0.188146501779556,-0.273362189531326
0,0.525000013521323,0.0680555564078778,0.837500055143345,-0.0693332031369209,0.114842668175697,-0.2379320114851
0,0.479166678621653,0.0736111117849297,0.84583340644287,-0.197004035115242,0.114537231624126,-0.172874867916107
0,0.487500029921177,0.0569444456537738,0.844444514559616,-0.210748508572578,0.135612085461616,-0.150272846221924
0,0.493055597454194,0.055555559848502,0.844444514559616,-0.0952949747443199,0.0470366254448891,-0.135612085461616
0,0.488888921804431,0.03194444645704,0.863888903677457,0.0537561401724815,0.0928515195846558,-0.161573857069016
0,0.473611111088636,0.029166668768514,0.86805557932722,0.129197999835014,0.0949895456433296,-0.119118720293045
0,0.468055592179478,0.0250000007162294,0.865277795560711,0.117286130785942,0.124616511166096,-0.0675006061792374
0,0.483333354271415,0.027777779924251,0.86805557932722,0.037568211555481,0.177150920033455,-0.0781907513737679
0,0.49166670557094,0.026388891079988,0.872222254976982,0.0131336031481624,0.30695977807045,-0.108734011650086
0,0.538888932353864,0.0347222241455659,0.849999984844916,0.0543670058250427,0.556498229503632,-0.0421497002243996
0,0.541666667496514,0.0152777788063885,0.838888947026599,0.0687223374843597,0.719904720783234,-0.209221348166466
0,0.413888905980283,-0.0152777788063885,0.740277817810989,-0.415693789720535,-0.682641923427582,0.590095818042755
0,0.502777792013115,-0.00972222266958873,0.863888903677457,-0.152105450630188,-0.890336096286774,0.64537912607193
0,0.502777792013115,-0.00972222266958873,0.863888903677457,-0.029626963660121,-0.336892187595367,0.677754998207092
0,0.611111115787646,0.0222222230277034,0.916666697993398,0.10048733651638,0.0833831056952477,0.437990367412567
0,0.611111115787646,0.0222222230277034,0.87500003874349,0.222660377621651,0.32253685593605,0.270307868719101
0,0.611111115787646,0.0222222230277034,0.87500003874349,0.193949714303017,0.39125919342041,0.388204872608185
0,0.497222224480098,0.0236111118719664,0.790277828360421,-0.0161879286170006,0.251676470041275,0.78251838684082
0,0.422222257279808,0.0222222230277034,0.676388937052873,-0.258090555667877,-0.0745255574584007,1.14476144313812
0,0.487500029921177,-0.0458333348996699,0.700000001820477,-0.545197248458862,-0.529620170593262,1.43247902393341
0,0.548611126912784,-0.0694444482911319,0.75694447178618,-0.781907498836517,-0.898277342319489,1.69240212440491
0,0.568055564654484,-0.0708333340964038,0.772222233878117,-0.794735670089722,-0.974024653434753,1.82648706436157
0,0.591666678045946,-0.0777777813567098,0.781944477060896,-0.755029439926147,-0.776104271411896,1.80907738208771
0,0.618055575203916,-0.108333335930496,0.849999984844916,-0.301156580448151,-0.257174253463745,1.52319252490997
0,0.620833358970425,-0.144444451959316,0.89722221162784,0.133779495954514,-0.117286130785942,1.39491081237793
0,0.608333332021137,-0.172222228844576,0.843055622676362,0.225409269332886,-0.586125195026398,1.58366811275482
0,0.579166699720517,-0.170833336961321,0.754166688019672,0.198836639523506,-0.725402474403381,1.70920097827911
0,0.579166699720517,-0.170833336961321,0.754166688019672,-0.324369430541992,-0.303905457258224,1.65849912166596
0,0.630555602153203,-0.243055569018962,0.858333336144441,0.258090555667877,-0.683558225631714,1.70339775085449
0,0.666666693870094,-0.20972223675665,0.87500003874349,0.655152976512909,-0.860098242759705,1.75593209266663
0,0.693055591028065,-0.243055569018962,0.879166714393253,1.0989465713501,-0.766025006771088,1.54365646839142
0,0.647222256128395,-0.25555557165632,0.825000028194058,1.32710468769074,-0.842994034290314,1.50089585781097
0,0.647222256128395,-0.25555557165632,0.825000028194058,1.14689946174622,-0.782823801040649,1.47065806388855
0,0.616666683320662,-0.216666671860991,0.773611125761372,0.930042326450348,-0.923628270626068,1.42759203910828
0,0.622222250853679,-0.193055558469529,0.809722266102121,0.832303881645203,-0.882700264453888,1.34237635135651
0,0.668055585753349,-0.152777778946911,0.815277785011279,0.939816176891327,-0.709825396537781,1.03969264030456
0,0.719444488186035,-0.163888889701015,0.833333379493583,1.1001683473587,-0.400422155857086,0.778853178024292
0,0.705555569353494,-0.15555556271342,0.779166693294388,0.941343367099762,-0.474031418561935,0.906524002552032
0,0.687500023495048,-0.150000007336368,0.729166682744956,1.02594816684723,-0.693026602268219,0.952338933944702
0,0.763888931202451,-0.134722233088466,0.777777801411134,1.14445602893829,-0.845437526702881,0.990517973899841
0,0.784722260827405,-0.163888889701015,0.663888910103586,1.07970428466797,-0.763886988162994,1.16003310680389
0,0.791666671619817,-0.140277788465518,0.58611111051293,0.930042326450348,-0.868650376796722,2.15360546112061
0,0.765277823085705,-0.238888893369199,0.522222229754814,0.697913527488708,-1.33718407154083,2.09648942947388
0,0.697222266677827,-0.151388899219622,0.502777792013115,0.0659734457731247,-3.2024610042572,2.06594634056091
0,0.908333346693873,-0.247222220356795,0.359722244093018,-0.215940862894058,-4.79559755325317,2.11145567893982
0,0.975000059842355,-0.187500003092477,0.379166681834717,-0.282830595970154,-5.56345510482788,2.64749002456665
0,0.94305554652751,-0.0791666671619817,0.512500035195893,-0.281303435564041,-6.2213568687439,2.7546968460083
0,0.936111184358955,-0.13750000469901,0.65833334257057,-0.587346911430359,-6.48708343505859,1.82587623596191
0,0.983333411141879,-0.333333346935047,0.70416667747024,-0.689972281455994,-5.21648359298706,1.39765965938568
0,1.04444445950963,-0.449999997697174,0.561111153862072,-0.119424156844616,-3.40313029289246,2.01890969276428
0,1.04583335139288,-0.395833335809908,0.424999992422458,0.308792382478714,-2.34083557128906,2.64871168136597
0,0.93750007624221,-0.288888903918631,0.176388892338373,-0.500909507274628,-3.10563898086548,2.45842719078064
0,0.743055601577497,-0.29166668768514,0.205555561106887,-1.45630276203155,-3.75498867034912,1.36253488063812
0,0.723611115211939,-0.412500014097029,0.369444462963867,-1.40621185302734,-2.47064447402954,0.484416127204895
0,0.940277860008718,-0.580555591603771,0.204166669223633,-0.831082165241241,-1.88940620422363,0.216246291995048
0,1.06388894587519,-0.581944483487025,-0.0444444460554069,-0.914159834384918,-2.72751331329346,1.07359564304352
0,0.92083337364316,-0.565277780887976,-0.0416666683668809,-1.10597157478332,-2.74095225334167,1.54212927818298
0,0.723611115211939,-0.551388910679293,-0.0652777787193518,-1.46577119827271,-1.86405527591705,1.44744515419006
0,0.825000028194058,-0.473611111088636,-0.0513888902767219,-1.48806774616241,-1.00517880916596,-0.517097413539886
0,0.884722281926269,-0.509722251429385,-0.154166670830166,-0.387899428606033,-0.600480556488037,-1.26998889446259
0,0.925000049292922,-0.647222256128395,-0.295833339022973,0.696080923080444,-1.13132238388062,-0.490524798631668
0,0.881944498159761,-0.654166666920807,-0.287500012035377,0.80298238992691,-1.81976759433746,0.112093769013882
0,0.713888920653019,-0.579166699720517,-0.250000004123303,-0.160962998867035,-1.37414133548737,0.674395203590393
0,0.713888920653019,-0.506944467662877,-0.306944449777077,-0.69730269908905,-1.04702305793762,0.346055150032044
0,0.823611136310804,-0.558333370095563,-0.205555561106887,-0.158214092254639,-0.89308500289917,-0.511905074119568
0,0.816666676894533,-0.688888915378302,-0.206944452990142,1.79166781902313,0.199447497725487,-1.08520209789276
0,0.801388914802596,-0.759722255552688,-0.243055569018962,1.29167461395264,-0.547946095466614,-0.722042739391327
0,0.801388914802596,-0.759722255552688,-0.243055569018962,0.411723166704178,-0.488386750221252,-0.390037447214127
0,0.804166698569104,-0.613888899554154,-0.20138889761309,0.468839079141617,0.397367835044861,-0.841772317886353
0,0.936111184358955,-0.575000024070755,-0.341666673922643,0.115148097276688,-0.137139245867729,-1.1545352935791
0,0.936111184358955,-0.575000024070755,-0.341666673922643,0.255036234855652,0.376598417758942,-1.01037108898163
0,0.847222298326124,-0.561111153862072,-0.305555557893823,0.484416127204895,0.390037447214127,-0.842688620090485
0,0.819444460661041,-0.331944455051793,-0.325000019947452,-0.246789559721947,-0.310624986886978,-2.03112697601318
0,0.819444460661041,-0.331944455051793,-0.325000019947452,0.139888137578964,0.248011291027069,-2.84693741798401
0,0.819444460661041,-0.331944455051793,-0.325000019947452,0.292299032211304,0.964250802993774,-2.7290403842926
0,1.16666675074056,-0.473611111088636,-0.338888890156135,0.215024560689926,0.993572294712067,-2.21285939216614
0,1.10138892947533,-0.390277792588821,-0.248611112240049,0.441655576229096,1.00609505176544,-1.84206414222717
0,0.998611124609959,-0.327777779402031,-0.238888893369199,0.305432617664337,0.838412523269653,-2.12520027160644
0,0.854166660494678,-0.200000005729836,-0.193055558469529,-0.420580714941025,0.912327229976654,-2.92512822151184
0,0.847222298326124,-0.0805555590452358,-0.13750000469901,-1.11360728740692,1.38819122314453,-3.33104825019836
0,0.847222298326124,-0.0805555590452358,-0.13750000469901,-1.4889839887619,1.56442594528198,-3.6969563961029
0,0.883333390043015,-0.130555557438704,-0.222222239394008,0.329867243766785,0.418442696332932,-3.37044906616211
0,0.736111142161226,-0.0861111144222878,-0.140277788465518,-0.120645888149738,0.859792828559875,-2.41811013221741
0,1.12083341584089,-0.18333333959868,-0.00138888893923146,-0.330783516168594,0.669202864170074,-3.15847873687744
0,1.30138897167306,-0.0986111170596459,-0.205555561106887,-0.133779495954514,0.543364644050598,-1.49142754077911
0,1.39444453335565,-0.0250000007162294,-0.212499996211229,0.0354301854968071,0.145080491900444,-0.213497400283814
0,1.04861113515939,0.134722233088466,-0.176388892338373,-0.267558991909027,1.37383592128754,0.21135938167572
0,1.04861113515939,0.134722233088466,-0.176388892338373,0.0748309940099716,-0.0045814891345799,2.25287103652954
0,1.04861113515939,0.134722233088466,-0.176388892338373,0.0748309940099716,-0.0045814891345799,2.25287103652954
0,1.04861113515939,0.134722233088466,-0.176388892338373,0.0748309940099716,-0.0045814891345799,2.25287103652954
0,1.04861113515939,0.134722233088466,-0.176388892338373,0.0748309940099716,-0.0045814891345799,2.25287103652954
0,1.04861113515939,0.134722233088466,-0.176388892338373,0.0131336031481624,0.0580321997404099,2.42880010604858
0,1.00972225967599,0.0597222233422998,-0.055555559848502,0.0641408488154411,-0.0610865242779255,2.34633350372314
0,0.886111173809523,0.0458333348996699,-0.055555559848502,-0.0342084541916847,-0.399811297655106,1.15728425979614
0,0.979166735492117,-0.0583333375370279,-0.0152777788063885,-0.0549778714776039,-0.456927210092545,1.25257921218872
0,0.956944465360051,-0.0458333348996699,-0.0375000018340919,-0.0656680166721344,-0.621860802173615,1.15209186077118
0,0.848611190209378,-0.0625000010308258,-0.0888888921108138,-0.0855211317539215,-1.38024997711182,0.287717521190643
0,0.848611190209378,-0.0625000010308258,-0.0888888921108138,0.0503963828086853,-1.1701123714447,-0.642019391059875
0,0.797222239152834,-0.0680555564078778,-0.0819444448505077,-0.0241291765123606,-0.869261264801025,-1.49814701080322
0,0.798611131036088,-0.029166668768514,-0.17361112072783,-0.0659734457731247,-0.404392778873444,-1.81304800510406
0,1.07500008094122,-0.0500000014324589,-0.166666673467524,-0.0956004112958908,-0.18509216606617,-1.83137404918671
0,1.07500008094122,-0.0500000014324589,-0.166666673467524,-0.0146607663482428,0.0937678143382072,-0.839328825473785
0,1.17638889667562,-0.00277777787846293,-0.130555557438704,-0.143858760595322,0.425162196159363,-0.141415297985077
0,1.17777778855888,0.030555557612777,-0.19166667874224,-0.0751364231109619,0.228158175945282,-0.0439822971820831
0,1.09861114570882,-0.027777779924251,-0.216666671860991,-0.320093393325806,0.25870144367218,0.118202425539494
0,1.11111117265811,0.101388894748172,0.0347222241455659,-0.0345138870179653,0.498160600662232,1.43980944156647
0,1.13055556177595,0.113888891307548,-0.163888889701015,0.201280102133751,0.374460399150848,2.0879373550415
0,1.20833340999047,-0.136111112815755,-0.301388906555989,-0.00488692196086049,0.391870051622391,1.85305976867676
0,1.04305556762637,-0.12916666555545,-0.143055560076062,0.115453533828259,0.203723564743996,1.81701862812042
0,1.04722224327614,-0.20972223675665,-0.161111118090472,0.118813291192055,0.0882700309157372,2.61053252220154
0,1.04027778385987,-0.197222234119292,-0.0694444482911319,0.127976268529892,-0.182954147458077,2.75652933120727
0,0.951388897827035,-0.233333350148112,-0.0791666671619817,-0.293215304613113,-0.0482583530247212,1.59405291080475
0,0.698611158561081,-0.206944452990142,-0.0444444460554069,0.0968221426010132,-0.382707089185715,0.203112691640854
0,0.504166683896369,-0.237500001485945,-0.0847222225390337,0.224187538027763,-0.264810085296631,-0.871704697608948
0,0.504166683896369,-0.193055558469529,-0.259722222994153,0.634688973426819,-0.207694187760353,-1.57022905349731
0,0.748611120486655,-0.1194444466846,-0.101388894748172,-0.17409659922123,-0.135306656360626,-3.10899877548218
0,1.25277785300688,-0.198611113846581,-0.027777779924251,-0.0629191175103188,-0.881783962249756,-1.26082587242127
0,1.71249999663912,-0.03194444645704,-0.115277783190802,-0.0772744566202164,-0.505491018295288,-0.11117747426033
0,1.13750002119222,-0.0916666697993398,-0.161111118090472,-0.0549778714776039,-0.336281329393387,-0.0980438739061356
0,0.95000000594378,-0.0916666697993398,-0.200000005729836,0.113315500319004,-0.791070520877838,-0.563828647136688
0,1.05416670269241,-0.122222230451108,-0.163888889701015,-0.264810085296631,-0.581238269805908,0.0201585534960032
0,0.94305554652751,-0.0361111129898289,-0.263888898643915,-0.213802829384804,-0.443793594837189,0.53481251001358
0,0.73055557462821,-0.0791666671619817,-0.265277790527169,-0.0308486949652433,-1.04274702072144,1.37780654430389
0,0.572222240304247,-0.0500000014324589,-0.259722222994153,0.149051114916802,0.870482981204987,2.32495307922363
0,0.78333336894415,-0.10972222781375,-0.0875000002275597,0.155465200543404,0.597426235675812,2.05861592292786
0,1.22222223157529,-0.263888898643915,-0.141666668192807,-0.0103847095742822,-0.182954147458077,1.21989786624908
0,1.1652778588573,-0.293055555256465,-0.13750000469901,0.215330004692078,-0.156076073646545,0.82986044883728
0,1.01666671909226,-0.266666682410424,-0.369444462963867,0.433714330196381,1.13987457752228,0.917825043201447
0,0.909722238577127,-0.308333341660331,-0.193055558469529,0.525344133377075,1.4001030921936,0.98929625749588
0,1.05833337834217,-0.287500012035377,-0.2194444556275,0.561079740524292,2.03082156181335,0.788627028465271
0,1.1708333291426,-0.380555573717971,-0.287500012035377,0.255341678857803,0.613003253936768,0.161573857069016
0,1.16388896697405,-0.348611133338914,-0.15555556271342,0.00549778714776039,0.34880405664444,0.0027488935738802
0,1.11388895642462,-0.363888895430851,-0.125000002061652,0.0833831056952477,0.486554175615311,-0.16371189057827
0,1.01944450285877,-0.355555568443255,-0.130555557438704,0.0815505087375641,0.635910749435425,-0.121256753802299
0,0.973611167959101,-0.301388906555989,-0.0666666706026059,0.0693332031369209,0.327118337154388,-0.145691365003586
0,0.884722281926269,-0.334722238818301,0.0125000003581147,-0.117896988987923,-0.0189368221908808,-0.159435823559761
0,0.905555562927365,-0.313888909193348,-0.0180555564949145,-0.149967417120934,-0.0693332031369209,-0.13744467496872
0,0.965277816659576,-0.29166668768514,-0.0652777787193518,0.0103847095742822,0.0113010071218014,-0.0879645943641663
0,1.01111115155925,-0.306944449777077,-0.0361111129898289,-0.0348193198442459,-0.345138877630234,-0.0873537287116051
0,1.02916674604155,-0.356944460326509,-0.0486111125881959,-0.013744467869401,-0.488692194223404,-0.211664810776711
0,0.994444448960196,-0.327777779402031,-0.0680555564078778,0.00519235478714108,-0.448375076055527,-0.452956587076187
0,0.981944519258625,-0.293055555256465,-0.113888891307548,-0.0183259565383196,-0.289244681596756,-0.342695415019989
0,0.92083337364316,-0.270833333748257,-0.166666673467524,0.0128281703218818,0.360715925693512,-0.0473420582711697
0,0.990277773310434,-0.284722228268869,-0.143055560076062,0.156076073646545,0.731205701828003,0.0280998013913631
0,1.00277780025972,-0.281944444502361,-0.0875000002275597,0.137139245867729,0.644768238067627,0.00152716308366507
0,1.00138890837647,-0.288888903918631,-0.033333335301303,0.0351247526705265,0.364075690507889,-0.019547687843442
0,0.96666670854283,-0.288888903918631,0.00972222266958873,0.0152716310694814,-0.021685715764761,-0.0229074470698834
0,1.02361117850853,-0.266666682410424,-0.052777782159976,0.91507613658905,0.140804439783096,0.104152522981167
0,1.01666671909226,-0.284722228268869,-0.0666666706026059,0.200974673032761,0.0366519130766392,0.123089343309402
0,1.01527782720901,-0.312500017310094,-0.0500000014324589,0.125838235020638,0.128281697630882,0.00946841109544039
0,1.00000001649321,-0.294444447139719,-0.0388888906783549,-0.107512280344963,0.0412334054708481,-0.0684169083833694
0,1.00000001649321,-0.283333336385615,-0.0361111129898289,-0.310624986886978,-0.113620936870575,-0.021685715764761
0,1.02361117850853,-0.295833339022973,-0.0152777788063885,-0.129197999835014,-0.195476874709129,-0.0421497002243996
0,0.983333411141879,-0.248611112240049,-0.0569444456537738,-0.021685715764761,-0.13225232064724,-0.0510072484612465
0,0.983333411141879,-0.248611112240049,-0.0569444456537738,-0.188757359981537,0.00702495034784079,-0.0287106670439243
0,1.04166667574312,-0.295833339022973,-0.0722222259796579,-0.223882108926773,0.0290160998702049,-0.0626136884093285
0,1.12777777800944,-0.338888890156135,-0.0430555572111439,-0.186924770474434,-0.361326783895493,-0.72570788860321
0,0.984722303025134,-0.297222230906227,-0.0416666683668809,-0.253203630447388,-0.422413319349289,-0.802066087722778
0,0.865277795560711,-0.234722242031366,-0.0666666706026059,-0.12705996632576,-0.242208063602448,-0.789543330669403
0,0.654166666920807,-0.0694444482911319,-0.0847222225390337,-0.0665843114256859,0.11606439948082,-0.441350132226944
0,0.769444450111609,-0.168055565350778,-0.0847222225390337,0.08460483700037,0.861320018768311,-1.47340703010559
0,0.968055600426084,-0.279166685047782,-0.0847222225390337,0.0675006061792374,0.582459986209869,-1.11055302619934
0,0.904166671044111,-0.234722242031366,0.0250000007162294,-0.153021737933159,-0.145080491900444,-1.63162112236023
0,1.08055555122652,-0.237500001485945,0.026388891079988,-0.0867428630590439,-0.50182580947876,-1.16094934940338
0,1.00833336779274,-0.154166670830166,0.0152777788063885,-0.0177150927484035,-1.06809782981873,-1.32802104949951
0,1.02361117850853,-0.12777778582816,-0.052777782159976,0.124921940267086,-0.879951357841492,-1.42973005771637
0,1.08333333499303,-0.0625000010308258,-0.197222234119292,0.0620028227567673,-0.163101017475128,-1.0522153377533
0,1.16388896697405,-0.0361111129898289,-0.202777789496344,0.0833831056952477,0.413250327110291,-0.565050363540649
0,1.1652778588573,-0.0597222233422998,-0.177777784221628,-0.0791070461273193,0.66126161813736,-0.376293003559113
0,1.09861114570882,-0.0597222233422998,-0.0791666671619817,-0.156992360949516,0.594371855258942,-0.0815505087375641
0,1.01111115155925,0.00277777787846293,-0.03194444645704,-0.0519235469400883,0.281914323568344,0.0690277740359306
0,0.977777843608863,-0.0194444453391775,-0.0805555590452358,-0.0320704244077206,0.50182580947876,0.112399205565453
0,1.02638896227504,-0.0486111125881959,-0.0763888894734557,0.0580321997404099,0.304516315460205,0.0488692186772823
0,1.0513889189259,-0.0458333348996699,-0.0847222225390337,-0.109650313854218,0.364991992712021,-0.0259617734700441
0,1.03750000009336,-0.0361111129898289,-0.0250000007162294,-0.154243469238281,0.456010907888412,-0.0522289797663689
0,1.0125000434425,-0.027777779924251,-0.0222222230277034,0.0439822971820831,0.109344877302647,0.00824668072164059
0,1.0125000434425,-0.027777779924251,-0.0222222230277034,0.0229074470698834,0.193644285202026,0.0620028227567673
0,0.997222232726705,-0.0416666683668809,-0.00972222266958873,0.0268780700862408,0.145996794104576,0.0531452745199203
0,1.00138890837647,-0.027777779924251,-0.00694444498106275,0.0806342139840126,-0.0354301854968071,0.103236228227615
0,1.00138890837647,-0.027777779924251,-0.00694444498106275,0.138971850275993,-0.0470366254448891,0.0733038261532784
0,0.99583334084345,-0.0791666671619817,-0.0736111117849297,0.0510072484612465,-0.037568211555481,-0.0400116741657257
0,0.926388941176177,-0.0541666679652478,-0.0194444453391775,-0.112704634666443,0.0290160998702049,-0.108734011650086
0,0.926388941176177,-0.0541666679652478,-0.0194444453391775,-0.0537561401724815,-0.0259617734700441,-0.138360977172852
0,1.11666674019113,-0.0777777813567098,-0.029166668768514,-0.0662788823246956,0.120035022497177,-0.277638256549835
0,1.04444445950963,-0.0652777787193518,-0.0444444460554069,-0.0583376325666905,-0.00733038317412138,-0.0161879286170006
0,0.775000017644626,0.0208333341834404,0.0222222230277034,0.011606439948082,-0.0690277740359306,0.274278491735458
0,0.858333336144441,0.0194444453391775,0.00555555575692586,-0.0360410511493683,-0.156992360949516,0.302989155054092
0,1.04166667574312,-0.0416666683668809,0.00694444498106275,0.0552833043038845,-0.223271250724793,0.192117124795914
0,1.30694453920608,-0.033333335301303,-0.0694444482911319,0.105374254286289,0.0678060427308083,0.107817716896534
0,1.06805562152495,-0.00972222266958873,-0.0597222233422998,0.178983509540558,0.154548913240433,0.303294599056244
0,1.09861114570882,-0.0416666683668809,-0.033333335301303,0.0125227374956012,0.135612085461616,0.0543670058250427
0,1.13055556177595,-0.0805555590452358,-0.0847222225390337,-0.123700208961964,0.289244681596756,-0.0604756586253643
0,1.06666672964169,-0.0833333367337618,-0.0236111118719664,-0.0186313893646002,0.192727982997894,-0.0577267669141293
0,0.98888888142718,-0.0444444460554069,0.027777779924251,0.0500909499824047,-0.00824668072164059,-0.00366519158706069
0,0.976388951725609,-0.0347222241455659,-0.0111111115138517,-0.0021380283869803,-0.0351247526705265,-0.0369573459029198
0,1.04722224327614,-0.0513888902767219,-0.0166666676506515,0.0100792767480016,0.0241291765123606,-0.0916297882795334
0,1.08611111875954,-0.0500000014324589,-0.029166668768514,0.0226020142436027,0.114537231624126,-0.110566608607769
0,1.08472222687628,-0.0361111129898289,-0.0208333341834404,0.0546724386513233,0.220216915011406,-0.0897971913218498
0,1.07500008094122,-0.030555557612777,-0.0208333341834404,0.0946841165423393,0.231823354959488,-0.0558941699564457
0,1.05833337834217,-0.0180555564949145,-0.030555557612777,0.0992656052112579,0.304516315460205,0.0452040284872055
0,0.98888888142718,-0.0208333341834404,-0.0250000007162294,0.111482910811901,0.394313514232635,0.162490159273148
5,1.00277780025972,-0.0236111118719664,0.0638888929140799,0.248927593231201,0.0293215326964855,0.177456349134445
5,1.03194452980806,-0.0722222259796579,-0.0916666697993398,0.117896988987923,-0.00152716308366507,0.02382374368608
5,0.968055600426084,-0.0541666679652478,0.322222236180943,-0.279776275157929,0.194255143404007,-0.05283984541893
5,0.96666670854283,-0.0402777795226179,0.0444444460554069,-0.0021380283869803,-0.553749322891235,0.0427605658769607
5,1.0513889189259,-0.055555559848502,-0.0375000018340919,-0.0189368221908808,-0.11117747426033,0.017409659922123
5,1.14027780495873,-0.0819444448505077,-0.25555557165632,-0.0693332031369209,1.3600914478302,0.0452040284872055
5,0.944444438410764,-0.055555559848502,0.198611113846581,0.0430659987032413,-0.187841057777405,0.0140499006956816
5,0.976388951725609,-0.055555559848502,0.0986111170596459,0.0339030213654041,-0.0836885422468185,0.00824668072164059
5,1.0305556379248,-0.0486111125881959,0.0152777788063885,0.0256563406437635,0.109955742955208,0.01191187184304
5,1.03194452980806,-0.0388888906783549,0.0236111118719664,0.0183259565383196,0.00427605677396059,0.00244346098043024
5,1.03194452980806,-0.0347222241455659,0.0222222230277034,0.00763581553474069,0.0687223374843597,0.0045814891345799
5,1.02777785415829,-0.0375000018340919,0.0388888906783549,-0.00305432616733015,0.0406225398182869,0.00824668072164059
5,1.01944450285877,-0.0458333348996699,0.0361111129898289,-0.0167987942695618,0.0552833043038845,0.00824668072164059
5,1.02916674604155,-0.0430555572111439,0.0388888906783549,-0.00366519158706069,0.05283984541893,0.00671951752156019
5,1.0333333244436,-0.0444444460554069,0.0361111129898289,-0.00855211354792118,0.114842668175697,0.0192422550171614
5,1.05972227022542,-0.03194444645704,0.0583333375370279,-0.00427605677396059,0.18020524084568,0.0503963828086853
5,1.02500007039179,-0.0500000014324589,0.052777782159976,-0.0427605658769607,0.164322748780251,0.0342084541916847
5,1.01944450285877,-0.0597222233422998,0.0388888906783549,-0.0910189226269722,0.0949895456433296,0.00366519158706069
5,1.00555558402623,-0.055555559848502,0.0472222237439329,-0.0968221426010132,0.0256563406437635,0.00580321997404099
5,1.02638896227504,-0.0513888902767219,0.0416666683668809,-0.0192422550171614,0.0381790772080422,-0.00580321997404099
5,1.04861113515939,-0.0694444482911319,0.0375000018340919,-0.0140499006956816,0.0742201283574104,-0.0827722400426865
5,1.00972225967599,-0.0541666679652478,0.0763888894734557,0.0485637858510017,-0.0320704244077206,-0.03176499158144
5,1.01805561097552,-0.0361111129898289,0.0375000018340919,0.013744467869401,0.0342084541916847,0.058643065392971
5,1.00000001649321,-0.0361111129898289,0.0805555590452358,0.0555887371301651,-0.162795588374138,0.0937678143382072
5,1.03194452980806,-0.052777782159976,0.0250000007162294,-0.00152716308366507,0.0027488935738802,0.0858265683054924
5,1.02500007039179,-0.0597222233422998,0.0458333348996699,-0.0186313893646002,0.081855945289135,0.0448985956609249
5,1.0361111082101,-0.0708333340964038,0.0486111125881959,-0.0229074470698834,0.0739146918058395,-0.0287106670439243
5,1.01944450285877,-0.0611111152255539,0.0736111117849297,0.0311541277915239,-0.0491746515035629,-0.013744467869401
5,1.01805561097552,-0.055555559848502,0.0722222259796579,0.0592539273202419,-0.11087204515934,-0.01588249579072
5,1.00833336779274,-0.0652777787193518,0.120833338567854,0.147218525409698,-0.338724792003632,0.0027488935738802
5,0.997222232726705,-0.03194444645704,0.055555559848502,0.100181899964809,-0.710130870342255,0.0439822971820831
5,1.04583335139288,-0.0375000018340919,-0.0111111115138517,0.11087204515934,-0.37079519033432,0.0723875313997269
5,1.04166667574312,-0.0458333348996699,-0.0111111115138517,0.0204639863222837,-0.150883719325066,0.0253509078174829
5,1.03888889197661,-0.0444444460554069,0.00277777787846293,-0.0394008085131645,0.0995710343122482,0.0277943685650826
5,1.05555559457566,-0.0444444460554069,0.0111111115138517,-0.139277279376984,0.72906768321991,-0.0323758572340012
5,1.05833337834217,-0.0430555572111439,0.00277777787846293,-0.236710280179977,0.600480556488037,-0.0607810914516449
5,0.905555562927365,-0.0625000010308258,0.180555567988136,-0.0571159012615681,0.133168622851372,0.00946841109544039
5,1.08333333499303,-0.0694444482911319,0.0569444456537738,-0.169820532202721,-0.0934623852372169,0.0152716310694814
5,1.08333333499303,-0.0694444482911319,0.0569444456537738,-0.130725160241127,0.326812893152237,0.00305432616733015
5,1.05833337834217,-0.052777782159976,0.0597222233422998,-0.198225766420364,0.350025773048401,0.0513126812875271
5,1.05833337834217,-0.052777782159976,0.0597222233422998,-0.126449108123779,0.38576140999794,0.0482583530247212
5,1.02638896227504,-0.0486111125881959,0.0652777787193518,-0.0448985956609249,0.146302223205566,-0.0852157026529312
5,1.02222228662528,-0.0861111144222878,0.12777778582816,0.128892570734024,-0.0290160998702049,-0.0852157026529312
5,1.01527782720901,-0.0597222233422998,0.0930555616825939,0.131030589342117,-0.0467311926186085,0.0213802829384804
5,1.01944450285877,-0.0388888906783549,0.0625000010308258,0.111482910811901,-0.0491746515035629,0.0360410511493683
5,1.01666671909226,-0.0486111125881959,0.0708333340964038,0.0461203269660473,-0.0412334054708481,0.0229074470698834
5,1.01527782720901,-0.0583333375370279,0.0583333375370279,0.000916297896765172,-0.00183259579353034,-0.00152716308366507
5,1.03194452980806,-0.0416666683668809,0.0722222259796579,0.0488692186772823,-0.0668897479772568,-0.00244346098043024
5,1.02916674604155,-0.027777779924251,0.0819444448505077,0.0479529201984406,-0.0870482996106148,0.019547687843442
5,1.0305556379248,-0.0458333348996699,0.0597222233422998,0.0180205255746841,-0.0320704244077206,-0.0167987942695618
5,1.04444445950963,-0.0513888902767219,0.055555559848502,-0.0183259565383196,0.00885754637420177,0.0219911485910416
5,1.00555558402623,-0.0513888902767219,0.0861111144222878,0.00580321997404099,-0.106595985591412,0.0253509078174829
5,1.02916674604155,-0.0652777787193518,0.0597222233422998,0.00641408516094089,-0.0299323964864016,0.00488692196086049
5,1.03888889197661,-0.0500000014324589,0.055555559848502,-0.0143553335219622,0.0739146918058395,0.019547687843442
5,1.02083339474202,-0.0652777787193518,0.0777777813567098,-0.0354301854968071,0.0280998013913631,0.00305432616733015
5,1.02222228662528,-0.0722222259796579,0.0680555564078778,-0.021685715764761,0.0781907513737679,-0.000305432622553781
5,1.02638896227504,-0.0652777787193518,0.0638888929140799,-0.00763581553474069,0.0656680166721344,-0.00641408516094089
5,1.02500007039179,-0.055555559848502,0.0722222259796579,0.00794124789535999,-0.0106901414692402,-0.00122173049021512
5,1.04444445950963,-0.0638888929140799,0.0361111129898289,-0.0497855171561241,0.262366622686386,-0.00916297826915979
5,1.00833336779274,-0.0569444456537738,0.030555557612777,-0.0601702257990837,0.385455965995789,-0.0247400421649218
5,1.01805561097552,-0.0541666679652478,0.0888888921108138,0.0360410511493683,0.315206468105316,0.00916297826915979
5,1.00972225967599,-0.0388888906783549,0.118055554801345,0.0797179117798805,0.0595593601465225,0.0418442711234093
5,1.01944450285877,-0.0402777795226179,0.0944444474878658,0.0342084541916847,0.0549778714776039,0.037568211555481
5,1.01805561097552,-0.0486111125881959,0.105555564319952,0.017409659922123,-0.0290160998702049,0.0171042270958424
5,1.01666671909226,-0.0444444460554069,0.0888888921108138,-0.000916297896765172,-0.0381790772080422,0.00427605677396059
5,1.0361111082101,-0.0500000014324589,0.0736111117849297,-0.0161879286170006,-0.017409659922123,-0.0021380283869803
5,1.0361111082101,-0.0583333375370279,0.0888888921108138,0.0198531206697226,-0.0302378293126821,-0.01588249579072
5,1.0305556379248,-0.0777777813567098,0.0833333367337618,0.0754418596625328,-0.0183259565383196,-0.0461203269660473
5,1.01111115155925,-0.0694444482911319,0.14583334384257,0.188757359981537,-0.304516315460205,-0.0387899428606033
5,0.979166735492117,-0.0569444456537738,0.14583334384257,0.196087747812271,-0.54428094625473,0.0427605658769607
5,1.0694445134082,-0.0250000007162294,0.03194444645704,0.00397062394768,0.169820532202721,0.0045814891345799
5,1.01666671909226,-0.0416666683668809,0.0944444474878658,0.00122173049021512,-0.0140499006956816,-0.00671951752156019
5,1.01527782720901,-0.0680555564078778,0.0666666706026059,0.0167987942695618,0.01588249579072,0.0167987942695618
5,1.01527782720901,-0.0680555564078778,0.0666666706026059,0.0167987942695618,0.01588249579072,0.0167987942695618
5,1.01944450285877,-0.0569444456537738,0.0777777813567098,0.0299323964864016,-0.0177150927484035,-0.000916297896765172
5,1.0305556379248,-0.052777782159976,0.0638888929140799,0.0280998013913631,-0.00152716308366507,0.0146607663482428
5,1.03472221632685,-0.0500000014324589,0.0708333340964038,0.0189368221908808,0.0189368221908808,0.00733038317412138
5,1.02222228662528,-0.0472222237439329,0.0819444448505077,0.0140499006956816,0.0109955742955208,0.00122173049021512
5,1.02222228662528,-0.0486111125881959,0.0819444448505077,0.0125227374956012,-0.000305432622553781,-0.000305432622553781
5,1.02500007039179,-0.0458333348996699,0.0750000036681839,-0.00641408516094089,0.00549778714776039,-0.000610865245107561
5,1.02777785415829,-0.0458333348996699,0.0736111117849297,-0.0167987942695618,0.00305432616733015,-0.00366519158706069
5,1.02500007039179,-0.0513888902767219,0.0722222259796579,-0.0131336031481624,-0.000916297896765172,0.00183259579353034
5,1.02361117850853,-0.0569444456537738,0.0638888929140799,-0.0140499006956816,-0.00946841109544039,0.00610865233466029
5,1.02500007039179,-0.0611111152255539,0.0708333340964038,-0.01191187184304,-0.000305432622553781,-0.000916297896765172
5,1.02638896227504,-0.0625000010308258,0.0652777787193518,0.00183259579353034,-0.0033597587607801,0.0045814891345799
5,1.02222228662528,-0.0583333375370279,0.0777777813567098,0.0189368221908808,0.000916297896765172,0.00183259579353034
5,1.02222228662528,-0.0611111152255539,0.0819444448505077,0.0357356183230877,0.00183259579353034,0.00397062394768
5,1.02361117850853,-0.0569444456537738,0.0777777813567098,0.0369573459029198,-0.00427605677396059,0.00885754637420177
5,1.02500007039179,-0.0513888902767219,0.0694444482911319,0.0348193198442459,0.0045814891345799,0.0222965814173222
5,1.02500007039179,-0.0513888902767219,0.0750000036681839,0.0280998013913631,0.00397062394768,0.017409659922123
5,1.02222228662528,-0.0486111125881959,0.0805555590452358,0.0213802829384804,-0.000305432622553781,0.0146607663482428
5,1.02083339474202,-0.0583333375370279,0.0722222259796579,0.0189368221908808,0.00397062394768,0.00916297826915979
5,1.02083339474202,-0.0583333375370279,0.0750000036681839,0.0241291765123606,0.0100792767480016,0.00488692196086049
5,1.02361117850853,-0.0513888902767219,0.0736111117849297,0.0192422550171614,0.00855211354792118,0.0113010071218014
5,1.02222228662528,-0.0458333348996699,0.0736111117849297,0.0100792767480016,0.011606439948082,0.0045814891345799
5,1.02222228662528,-0.055555559848502,0.0722222259796579,0.00305432616733015,0.00580321997404099,0.00671951752156019
5,1.02222228662528,-0.0541666679652478,0.0708333340964038,-0.0106901414692402,0.0131336031481624,0.00427605677396059
5,1.02638896227504,-0.0444444460554069,0.0583333375370279,-0.0128281703218818,0.013744467869401,-0.00183259579353034
5,1.02638896227504,-0.0444444460554069,0.0583333375370279,-0.0235183127224445,0.0109955742955208,-0.00671951752156019
5,1.01388893532575,-0.0416666683668809,0.0777777813567098,-0.0265726372599602,-0.00122173049021512,-0.00244346098043024
5,1.02500007039179,-0.0444444460554069,0.101388894748172,-0.0113010071218014,-0.00397062394768,0.0183259565383196
5,1.02500007039179,-0.0444444460554069,0.101388894748172,0.00183259579353034,-0.0250454749912024,-0.0143553335219622
5,1.0361111082101,-0.0680555564078778,0.0458333348996699,0.0442877300083637,0.081855945289135,-0.0284052342176437
5,1.02916674604155,-0.0666666706026059,0.0388888906783549,0.0100792767480016,-0.00977384392172098,-0.0201585534960032
5,1.02222228662528,-0.0638888929140799,0.0541666679652478,0.0332921557128429,0.0271835029125214,0.00397062394768
5,1.03194452980806,-0.0638888929140799,0.0680555564078778,0.0326812900602817,0.0122173046693206,-0.0109955742955208
5,1.03194452980806,-0.0666666706026059,0.0625000010308258,0.0470366254448891,0.0222965814173222,-0.00671951752156019
5,1.0513889189259,-0.0791666671619817,0.0680555564078778,0.0387899428606033,0.0552833043038845,-0.00641408516094089
5,1.02361117850853,-0.0625000010308258,0.0694444482911319,0.0439822971820831,0.0647517144680023,-0.00397062394768
5,1.03194452980806,-0.0583333375370279,0.0625000010308258,0.00855211354792118,0.118202425539494,-0.0146607663482428
5,1.01388893532575,-0.0625000010308258,0.0888888921108138,-0.155465200543404,0.109039448201656,-0.0555887371301651
5,1.03888889197661,-0.055555559848502,0.0583333375370279,-0.0229074470698834,0.0394008085131645,-0.0226020142436027
5,1.01388893532575,-0.0597222233422998,0.0875000002275597,0.0131336031481624,0.0430659987032413,-0.0106901414692402
5,1.01666671909226,-0.0513888902767219,0.0805555590452358,0.0204639863222837,0.0219911485910416,0.00427605677396059
5,1.01527782720901,-0.0458333348996699,0.0902777839940679,0.0229074470698834,-0.00427605677396059,0.00763581553474069
5,1.01527782720901,-0.0444444460554069,0.0819444448505077,0.0201585534960032,-0.0421497002243996,0.00549778714776039
5,1.01944450285877,-0.0430555572111439,0.0875000002275597,0.0177150927484035,-0.00702495034784079,0.000610865245107561
5,1.02500007039179,-0.0444444460554069,0.0861111144222878,0.0134390350431204,-0.00916297826915979,0.00549778714776039
5,1.02222228662528,-0.0486111125881959,0.0958333393711199,0.0335975885391235,-0.0247400421649218,0.0277943685650826
5,1.02361117850853,-0.0458333348996699,0.0888888921108138,0.00977384392172098,-0.00244346098043024,0.0152716310694814
5,1.06805562152495,-0.0472222237439329,0.0708333340964038,-0.0665843114256859,-0.13744467496872,-0.015577063895762
5,1.05555559457566,-0.0361111129898289,0.0625000010308258,-0.154243469238281,-0.0161879286170006,-0.0167987942695618
5,1.05833337834217,-0.0513888902767219,0.0791666671619817,-0.0800233483314514,0.0775798857212067,-0.0183259565383196
5,1.0125000434425,-0.052777782159976,0.101388894748172,-0.017409659922123,-0.00702495034784079,-0.00549778714776039
5,1.00555558402623,-0.052777782159976,0.0861111144222878,-0.0436768643558025,-0.0540615729987621,0.0229074470698834
5,1.02500007039179,-0.052777782159976,0.0819444448505077,-0.0213802829384804,-0.0045814891345799,0.00946841109544039
5,1.0361111082101,-0.0583333375370279,0.0666666706026059,-0.00427605677396059,0.0580321997404099,-0.00366519158706069
5,1.02500007039179,-0.0680555564078778,0.0763888894734557,0.00580321997404099,0.0601702257990837,-0.00671951752156019
5,1.01805561097552,-0.0680555564078778,0.0777777813567098,0.00488692196086049,0.0409279726445675,0.00519235478714108
5,1.02083339474202,-0.0638888929140799,0.0736111117849297,0.00519235478714108,0.0555887371301651,0.0033597587607801
5,1.02361117850853,-0.0625000010308258,0.0847222225390337,0.0198531206697226,0.0415388382971287,0.00427605677396059
5,0.922222265526414,-0.0625000010308258,0.0388888906783549,-0.0100792767480016,-0.19058994948864,0.0629191175103188
5,1.01527782720901,-0.0666666706026059,0.0500000014324589,0.0390953756868839,-0.0171042270958424,0.0467311926186085
5,1.02222228662528,-0.0583333375370279,0.0819444448505077,0.0583376325666905,-0.0675006061792374,0.0369573459029198
5,1.02222228662528,-0.055555559848502,0.0930555616825939,0.0534507073462009,-0.0308486949652433,0.0351247526705265
5,1.01388893532575,-0.0638888929140799,0.101388894748172,0.134084925055504,-0.127670839428902,0.0815505087375641
5,1.04166667574312,-0.0583333375370279,0.0722222259796579,0.0415388382971287,0.0204639863222837,0.0177150927484035
5,0.98888888142718,-0.0833333367337618,0.104166672436698,0.118813291192055,-0.142331600189209,0.0400116741657257
5,1.0125000434425,-0.0750000036681839,0.0569444456537738,0.156686931848526,-0.203723564743996,0.0940732508897781
5,1.0125000434425,-0.0750000036681839,0.0569444456537738,0.106595985591412,-0.01191187184304,0.0366519130766392
5,1.05972227022542,-0.0722222259796579,0.0569444456537738,0.117286130785942,0.0751364231109619,0.0332921557128429
5,1.02361117850853,-0.0666666706026059,0.0666666706026059,0.142637029290199,-0.00702495034784079,0.0308486949652433
5,1.02361117850853,-0.0666666706026059,0.0666666706026059,0.127365410327911,0.0470366254448891,0.0241291765123606
5,1.02361117850853,-0.0638888929140799,0.0597222233422998,0.119729585945606,0.0299323964864016,0.0284052342176437
5,1.02638896227504,-0.0513888902767219,0.0652777787193518,0.115758962929249,0.0320704244077206,0.021685715764761
5,1.02638896227504,-0.0513888902767219,0.0652777787193518,0.101403631269932,0.0287106670439243,0.0271835029125214
5,1.02361117850853,-0.0500000014324589,0.0777777813567098,0.103541657328606,-0.00152716308366507,0.0222965814173222
5,1.02083339474202,-0.0513888902767219,0.0666666706026059,0.0956004112958908,-0.00366519158706069,0.0171042270958424
5,1.02500007039179,-0.0444444460554069,0.0652777787193518,0.0949895456433296,0.00794124789535999,0.00946841109544039
5,1.02638896227504,-0.0375000018340919,0.0638888929140799,0.0650571510195732,0.0247400421649218,0.00549778714776039
5,1.02500007039179,-0.0347222241455659,0.0583333375370279,0.037568211555481,0.0106901414692402,-0.00733038317412138
5,1.02222228662528,-0.0250000007162294,0.0583333375370279,0.00763581553474069,-0.00641408516094089,-0.00488692196086049
5,1.01666671909226,-0.0166666676506515,0.0750000036681839,-0.0171042270958424,-0.015577063895762,-0.00580321997404099
5,1.02222228662528,-0.0152777788063885,0.0791666671619817,-0.0580321997404099,-0.0186313893646002,0.00702495034784079
5,1.02222228662528,-0.0250000007162294,0.0875000002275597,-0.0830776765942574,-0.0140499006956816,0.00183259579353034
5,1.01944450285877,-0.0388888906783549,0.0777777813567098,-0.0940732508897781,-0.0045814891345799,-0.00305432616733015
5,1.02083339474202,-0.0416666683668809,0.0750000036681839,-0.101709060370922,-0.00610865233466029,-0.0284052342176437
5,1.02777785415829,-0.0513888902767219,0.0750000036681839,-0.109650313854218,-0.00305432616733015,-0.0180205255746841
5,1.02083339474202,-0.0486111125881959,0.0847222225390337,-0.117896988987923,-0.00671951752156019,-0.01191187184304
5,1.02222228662528,-0.0486111125881959,0.0777777813567098,-0.132557764649391,-0.01191187184304,-0.0113010071218014
5,1.02222228662528,-0.0569444456537738,0.0805555590452358,-0.141415297985077,-0.0210748501121998,-0.0167987942695618
5,1.01944450285877,-0.0750000036681839,0.0875000002275597,-0.146607652306557,-0.0262672062963247,-0.0198531206697226
5,1.01944450285877,-0.0750000036681839,0.0847222225390337,-0.126143679022789,-0.0348193198442459,-0.00671951752156019
5,1.02361117850853,-0.0819444448505077,0.0763888894734557,-0.103847093880177,-0.02382374368608,-0.00641408516094089
5,1.02777785415829,-0.0847222225390337,0.0875000002275597,-0.0839939713478088,-0.0207694191485643,0.000610865245107561
5,1.01944450285877,-0.0916666697993398,0.0763888894734557,-0.0641408488154411,-0.0244346093386412,0.00519235478714108
5,1.02361117850853,-0.104166672436698,0.0777777813567098,-0.0152716310694814,-0.00733038317412138,0.00305432616733015
5,1.02500007039179,-0.101388894748172,0.0763888894734557,0.011606439948082,-0.00733038317412138,0.00549778714776039
5,1.02500007039179,-0.0944444474878658,0.0722222259796579,0.0418442711234093,0.0125227374956012,0.0113010071218014
5,1.02500007039179,-0.0819444448505077,0.0722222259796579,0.0595593601465225,0.0161879286170006,0.017409659922123
5,1.02222228662528,-0.0777777813567098,0.0722222259796579,0.0842994004487991,0.0109955742955208,0.0247400421649218
5,1.04305556762637,-0.0597222233422998,0.0694444482911319,0.064446285367012,-0.114537231624126,0.0183259565383196
5,0.98888888142718,-0.0194444453391775,0.00277777787846293,0.0235183127224445,-0.147829383611679,-0.0632245540618896
5,1.01805561097552,-0.113888891307548,0.0486111125881959,0.00427605677396059,0.150272846221924,0.0620028227567673
5,1.08333333499303,-0.055555559848502,0.027777779924251,0.0671951770782471,0.198836639523506,0.0934623852372169
5,1.04722224327614,-0.052777782159976,0.0916666697993398,0.0766635909676552,0.00580321997404099,0.0604756586253643
5,1.02222228662528,-0.0722222259796579,0.0666666706026059,0.0607810914516449,-0.0106901414692402,0.0623082555830479
5,1.00833336779274,-0.0736111117849297,0.0500000014324589,0.0571159012615681,-0.01588249579072,0.03176499158144
5,1.02916674604155,-0.0513888902767219,0.0583333375370279,0.0455094613134861,0.00152716308366507,-0.0513126812875271
5,1.03888889197661,-0.0388888906783549,0.0708333340964038,0.0189368221908808,0.0610865242779255,-0.0580321997404099
5,1.01527782720901,-0.0347222241455659,0.0750000036681839,-0.00183259579353034,0.0128281703218818,-0.02382374368608
5,1.02361117850853,-0.055555559848502,0.0583333375370279,-0.0167987942695618,0.0235183127224445,-0.00305432616733015
5,1.03194452980806,-0.0583333375370279,0.0694444482911319,-0.0268780700862408,0.0494800843298435,0.00855211354792118
5,1.02777785415829,-0.0736111117849297,0.0611111152255539,-0.0235183127224445,0.0342084541916847,-0.0106901414692402
5,1.00972225967599,-0.0708333340964038,0.0625000010308258,-0.0128281703218818,0.0372627787292004,-0.0232128798961639
5,1.01527782720901,-0.0736111117849297,0.0680555564078778,-0.00244346098043024,0.0256563406437635,-0.021685715764761
5,1.02916674604155,-0.0777777813567098,0.0638888929140799,0.0021380283869803,0.0326812900602817,0.000305432622553781
5,1.0333333244436,-0.0791666671619817,0.0763888894734557,0.0213802829384804,0.0348193198442459,-0.0122173046693206
5,1.02916674604155,-0.0722222259796579,0.0694444482911319,0.0403171069920063,0.0161879286170006,0.00519235478714108
5,1.02916674604155,-0.0750000036681839,0.0583333375370279,0.0513126812875271,0.0222965814173222,0.0222965814173222
5,1.02638896227504,-0.0791666671619817,0.0611111152255539,0.0485637858510017,0.03176499158144,0.000610865245107561
5,1.02500007039179,-0.0833333367337618,0.0597222233422998,0.0332921557128429,0.0290160998702049,-0.0256563406437635
5,1.0305556379248,-0.0875000002275597,0.0500000014324589,0.0448985956609249,0.0259617734700441,-0.0280998013913631
5,1.03194452980806,-0.0916666697993398,0.0486111125881959,0.0577267669141293,0.0387899428606033,-0.0302378293126821
5,1.0361111082101,-0.0861111144222878,0.0583333375370279,0.0500909499824047,0.0415388382971287,-0.0186313893646002
5,1.0361111082101,-0.0861111144222878,0.055555559848502,0.0455094613134861,0.0479529201984406,-0.0323758572340012
5,1.02222228662528,-0.0847222225390337,0.0583333375370279,0.0235183127224445,0.0488692186772823,-0.0412334054708481
5,1.02222228662528,-0.0847222225390337,0.0708333340964038,0.00305432616733015,0.0250454749912024,-0.0439822971820831
5,1.01944450285877,-0.0847222225390337,0.0777777813567098,-0.0180205255746841,-0.015577063895762,-0.0433714315295219
5,1.01944450285877,-0.0847222225390337,0.0777777813567098,-0.0103847095742822,-0.0287106670439243,-0.0308486949652433
5,1.02222228662528,-0.0708333340964038,0.0763888894734557,-0.0027488935738802,-0.0494800843298435,0.00488692196086049
5,1.02638896227504,-0.0638888929140799,0.0583333375370279,0.0045814891345799,-0.0653625801205635,0.0244346093386412
5,1.01944450285877,-0.0694444482911319,0.0597222233422998,0.0210748501121998,-0.0928515195846558,0.0381790772080422
5,1.01944450285877,-0.0694444482911319,0.0680555564078778,0.0424551330506802,-0.118202425539494,0.0412334054708481
5,1.02083339474202,-0.0625000010308258,0.0708333340964038,0.0525344125926495,-0.106901414692402,0.0589484944939613
5,1.01527782720901,-0.0569444456537738,0.0819444448505077,0.0488692186772823,-0.103847093880177,0.104152522981167
5,1.02083339474202,-0.0486111125881959,0.0722222259796579,0.0491746515035629,-0.0995710343122482,0.118202425539494
5,1.02222228662528,-0.0486111125881959,0.0875000002275597,0.0503963828086853,-0.112704634666443,0.121867619454861
5,1.02222228662528,-0.0472222237439329,0.0819444448505077,0.0546724386513233,-0.124921940267086,0.114231802523136
5,1.02083339474202,-0.0500000014324589,0.0777777813567098,0.0623082555830479,-0.127976268529892,0.115148097276688
5,1.01944450285877,-0.0388888906783549,0.0819444448505077,0.0497855171561241,-0.120645888149738,0.115148097276688
5,1.01944450285877,-0.029166668768514,0.0777777813567098,0.0424551330506802,-0.114231802523136,0.120035022497177
5,1.02500007039179,-0.029166668768514,0.0680555564078778,0.0277943685650826,-0.0815505087375641,0.0995710343122482
5,1.02500007039179,-0.03194444645704,0.0652777787193518,0.021685715764761,-0.0742201283574104,0.0925460830330849
5,1.02638896227504,-0.0402777795226179,0.0819444448505077,0.0299323964864016,-0.0784961804747581,0.0836885422468185
5,1.02916674604155,-0.0416666683668809,0.0819444448505077,0.0323758572340012,-0.0733038261532784,0.0800233483314514
5,1.02916674604155,-0.0472222237439329,0.0680555564078778,0.0363464802503586,-0.0568104684352875,0.0595593601465225
5,1.02777785415829,-0.0569444456537738,0.0694444482911319,0.0458148941397667,-0.0632245540618896,0.0500909499824047
5,1.03194452980806,-0.055555559848502,0.0666666706026059,0.0534507073462009,-0.0351247526705265,0.0397062413394451
5,1.0305556379248,-0.0541666679652478,0.0625000010308258,0.0488692186772823,-0.0329867228865623,0.0390953756868839
5,1.02222228662528,-0.0513888902767219,0.0583333375370279,0.0342084541916847,-0.0241291765123606,0.021685715764761
5,1.02222228662528,-0.055555559848502,0.0444444460554069,0.0122173046693206,-0.0213802829384804,0.0192422550171614
5,1.02500007039179,-0.0583333375370279,0.0430555572111439,-0.00244346098043024,-0.013744467869401,0.0219911485910416
5,1.02500007039179,-0.0666666706026059,0.0472222237439329,-0.00916297826915979,-0.0134390350431204,0.0290160998702049
5,1.02500007039179,-0.0777777813567098,0.0611111152255539,-0.00580321997404099,0.00152716308366507,0.0106901414692402
5,1.02500007039179,-0.0888888921108138,0.0750000036681839,0.00366519158706069,-0.000610865245107561,0.00824668072164059
5,1.02222228662528,-0.0916666697993398,0.0597222233422998,0.0122173046693206,0.01191187184304,0.00794124789535999
5,1.02500007039179,-0.0875000002275597,0.0500000014324589,0.0125227374956012,0.0183259565383196,0.00183259579353034
5,1.02500007039179,-0.0916666697993398,0.0541666679652478,0.017409659922123,0.0342084541916847,0.0033597587607801
5,1.02500007039179,-0.0944444474878658,0.0583333375370279,0.01588249579072,0.0754418596625328,-0.00855211354792118
5,1.01944450285877,-0.0972222251763917,0.0583333375370279,0.027488935738802,0.0537561401724815,-0.00671951752156019
5,1.02083339474202,-0.0944444474878658,0.0597222233422998,0.0299323964864016,0.0546724386513233,-0.0106901414692402
5,1.02500007039179,-0.0944444474878658,0.0569444456537738,0.0183259565383196,0.0626136884093285,-0.00519235478714108
5,1.02083339474202,-0.0916666697993398,0.0597222233422998,0.0167987942695618,0.0439822971820831,-0.00122173049021512
5,1.02222228662528,-0.0944444474878658,0.0652777787193518,0.0235183127224445,0.0268780700862408,0.015577063895762
5,1.01944450285877,-0.0944444474878658,0.0611111152255539,0.0351247526705265,0.0106901414692402,0.0271835029125214
5,1.02083339474202,-0.0986111170596459,0.0583333375370279,0.0293215326964855,-0.00427605677396059,0.0293215326964855
5,1.01944450285877,-0.101388894748172,0.0347222241455659,0.0412334054708481,-0.0210748501121998,0.0332921557128429
5,1.02916674604155,-0.111111119697004,0.030555557612777,0.0436768643558025,-0.011606439948082,0.017409659922123
5,1.0361111082101,-0.106944444047242,0.0486111125881959,0.0592539273202419,0.0100792767480016,0.021685715764761
5,1.03194452980806,-0.10972222781375,0.0569444456537738,0.0681114718317986,0.0122173046693206,0.00855211354792118
5,1.02500007039179,-0.0972222251763917,0.052777782159976,0.0516181141138077,0.0100792767480016,0.00366519158706069
5,1.02638896227504,-0.0875000002275597,0.0486111125881959,0.0348193198442459,0.0253509078174829,-0.000305432622553781
5,1.02500007039179,-0.0833333367337618,0.0430555572111439,0.0177150927484035,0.0161879286170006,0.00183259579353034
5,1.02500007039179,-0.0875000002275597,0.0416666683668809,0.00977384392172098,0.0128281703218818,0.0134390350431204
5,1.01944450285877,-0.0875000002275597,0.0402777795226179,-0.00733038317412138,0.00519235478714108,0.011606439948082
5,1.02361117850853,-0.0944444474878658,0.0430555572111439,-0.00549778714776039,0.0167987942695618,0.00977384392172098
5,1.02361117850853,-0.0944444474878658,0.0388888906783549,-0.00855211354792118,0.00763581553474069,0.0204639863222837
5,1.02222228662528,-0.0986111170596459,0.0444444460554069,-0.00671951752156019,0.00427605677396059,0.00702495034784079
5,1.02361117850853,-0.106944444047242,0.0458333348996699,-0.000305432622553781,-0.00549778714776039,0.0164933614432812
5,1.02361117850853,-0.104166672436698,0.0583333375370279,0.00519235478714108,-0.00488692196086049,0.0167987942695618
5,1.02500007039179,-0.104166672436698,0.0416666683668809,0.00824668072164059,-0.01191187184304,0.0177150927484035
5,1.02500007039179,-0.104166672436698,0.0416666683668809,0.0207694191485643,-0.011606439948082,0.0192422550171614
5,1.02500007039179,-0.102777780553444,0.0375000018340919,0.0189368221908808,-0.0103847095742822,0.0152716310694814
5,1.02500007039179,-0.106944444047242,0.0388888906783549,0.027488935738802,-0.00244346098043024,0.0143553335219622
5,1.02500007039179,-0.104166672436698,0.0486111125881959,0.0235183127224445,0.0027488935738802,0.0161879286170006
5,1.02777785415829,-0.0944444474878658,0.0458333348996699,0.00427605677396059,0.000305432622553781,0.0113010071218014
5,1.02500007039179,-0.0888888921108138,0.0430555572111439,-0.019547687843442,0.00305432616733015,-0.00152716308366507
5,1.02638896227504,-0.0861111144222878,0.0486111125881959,-0.03176499158144,0.0033597587607801,-0.000916297896765172
5,1.02916674604155,-0.0916666697993398,0.0416666683668809,-0.0345138870179653,0.00824668072164059,0.00244346098043024
5,1.02222228662528,-0.0972222251763917,0.0361111129898289,-0.0326812900602817,0.00152716308366507,-0.000610865245107561
5,1.02083339474202,-0.100000002864918,0.0402777795226179,-0.0280998013913631,0.00519235478714108,0.00183259579353034
5,1.02500007039179,-0.101388894748172,0.0513888902767219,-0.0241291765123606,0.00549778714776039,-0.00580321997404099
5,1.02500007039179,-0.100000002864918,0.0486111125881959,-0.01588249579072,-0.00824668072164059,0.00549778714776039
5,1.02777785415829,-0.104166672436698,0.0583333375370279,-0.00763581553474069,-0.0106901414692402,0.00946841109544039
5,1.02500007039179,-0.104166672436698,0.0541666679652478,-0.00305432616733015,-0.00977384392172098,0.0113010071218014
5,1.02083339474202,-0.101388894748172,0.0486111125881959,0.00366519158706069,-0.0131336031481624,0.0180205255746841
5,1.02500007039179,-0.102777780553444,0.0430555572111439,0.00549778714776039,-0.00733038317412138,0.0146607663482428
5,1.02777785415829,-0.0986111170596459,0.0388888906783549,0.00305432616733015,0.00152716308366507,0.00641408516094089
5,1.02500007039179,-0.0986111170596459,0.0430555572111439,0.00610865233466029,-0.00244346098043024,-0.00152716308366507
5,1.02500007039179,-0.101388894748172,0.0472222237439329,0.0122173046693206,0.000916297896765172,0.00427605677396059
5,1.02500007039179,-0.0986111170596459,0.0472222237439329,0.0140499006956816,-0.000916297896765172,0.00122173049021512
5,1.02222228662528,-0.101388894748172,0.0444444460554069,0.00733038317412138,0.00733038317412138,-0.00610865233466029
5,1.02500007039179,-0.0958333393711199,0.0569444456537738,0.00763581553474069,0.0161879286170006,-0.0106901414692402
5,1.02222228662528,-0.0944444474878658,0.0541666679652478,0.0125227374956012,0.00946841109544039,-0.00305432616733015
5,1.02500007039179,-0.0944444474878658,0.0458333348996699,0.00152716308366507,0.0125227374956012,-0.00580321997404099
5,1.02500007039179,-0.0944444474878658,0.0444444460554069,0.000916297896765172,0.0100792767480016,-0.00977384392172098
5,1.02638896227504,-0.0902777839940679,0.052777782159976,-0.0021380283869803,0.00580321997404099,-0.00977384392172098
5,1.02500007039179,-0.0888888921108138,0.055555559848502,-0.00305432616733015,0.0128281703218818,-0.0106901414692402
5,1.02500007039179,-0.0875000002275597,0.055555559848502,-0.0128281703218818,0.00763581553474069,-0.0152716310694814
5,1.02222228662528,-0.0916666697993398,0.0583333375370279,-0.0161879286170006,0.013744467869401,-0.0109955742955208
5,1.02222228662528,-0.0930555616825939,0.0652777787193518,-0.0152716310694814,0.0033597587607801,-0.0131336031481624
5,1.02500007039179,-0.0888888921108138,0.0500000014324589,-0.0021380283869803,-0.00183259579353034,-0.013744467869401
5,1.02222228662528,-0.0875000002275597,0.0444444460554069,-0.0149661982432008,0.0033597587607801,-0.00885754637420177
5,1.02361117850853,-0.0916666697993398,0.0486111125881959,-0.0207694191485643,-0.00397062394768,-0.0103847095742822
5,1.02500007039179,-0.0875000002275597,0.0513888902767219,-0.0226020142436027,0.00519235478714108,-0.0113010071218014
5,1.02777785415829,-0.0930555616825939,0.0541666679652478,-0.0134390350431204,0.013744467869401,-0.0201585534960032
5,1.02361117850853,-0.0916666697993398,0.0486111125881959,-0.0146607663482428,0.00977384392172098,-0.0207694191485643
5,1.02083339474202,-0.0930555616825939,0.0625000010308258,-0.0204639863222837,0.0131336031481624,-0.015577063895762
5,1.02361117850853,-0.0875000002275597,0.0638888929140799,-0.0177150927484035,0.0131336031481624,-0.0122173046693206
5,1.02777785415829,-0.0888888921108138,0.0597222233422998,-0.00916297826915979,0.0171042270958424,-0.00855211354792118
5,1.02500007039179,-0.0875000002275597,0.0569444456537738,-0.01191187184304,0.01588249579072,-0.0192422550171614
5,1.02222228662528,-0.0875000002275597,0.055555559848502,-0.0113010071218014,0.00305432616733015,-0.0027488935738802
5,1.02222228662528,-0.0875000002275597,0.0513888902767219,-0.0045814891345799,0.000916297896765172,-0.00641408516094089
5,1.02222228662528,-0.0916666697993398,0.0486111125881959,0.00488692196086049,0.00671951752156019,-0.00580321997404099
5,1.02222228662528,-0.0888888921108138,0.055555559848502,0.0131336031481624,0.00397062394768,-0.00824668072164059
5,1.02916674604155,-0.0916666697993398,0.0513888902767219,0.0100792767480016,0.0134390350431204,-0.01588249579072
5,1.02500007039179,-0.0902777839940679,0.0513888902767219,0.0140499006956816,0.0106901414692402,-0.00885754637420177
5,1.02361117850853,-0.0930555616825939,0.0541666679652478,0.0183259565383196,0.015577063895762,-0.019547687843442
5,1.0305556379248,-0.102777780553444,0.0486111125881959,0.0250454749912024,0.0143553335219622,-0.021685715764761
5,1.0361111082101,-0.108333335930496,0.0569444456537738,0.0293215326964855,0.0412334054708481,-0.0488692186772823
5,1.0361111082101,-0.106944444047242,0.0416666683668809,0.0357356183230877,0.0601702257990837,-0.0711658000946045
5,1.02361117850853,-0.0944444474878658,0.0472222237439329,0.0418442711234093,0.0681114718317986,-0.0772744566202164
5,1.01666671909226,-0.0861111144222878,0.0458333348996699,0.0342084541916847,0.0552833043038845,-0.0543670058250427
5,1.02222228662528,-0.0819444448505077,0.0458333348996699,0.0201585534960032,0.0406225398182869,-0.0418442711234093
5,1.02500007039179,-0.0875000002275597,0.0569444456537738,0.00824668072164059,0.0244346093386412,-0.0210748501121998
5,1.02500007039179,-0.0833333367337618,0.055555559848502,0.0164933614432812,0.00488692196086049,-0.0192422550171614
5,1.02083339474202,-0.0847222225390337,0.0583333375370279,0.0125227374956012,-0.00488692196086049,-0.0109955742955208
5,1.01944450285877,-0.0819444448505077,0.0597222233422998,0.0109955742955208,-0.0268780700862408,-0.0106901414692402
5,1.02500007039179,-0.0875000002275597,0.0500000014324589,0.0125227374956012,-0.0244346093386412,-0.00305432616733015
5,1.02500007039179,-0.0875000002275597,0.0500000014324589,0.0113010071218014,-0.00916297826915979,-0.0113010071218014
5,1.02500007039179,-0.0833333367337618,0.0583333375370279,0.0152716310694814,-0.00794124789535999,-0.00671951752156019
5,1.02500007039179,-0.0805555590452358,0.0611111152255539,0.0164933614432812,-0.0113010071218014,-0.0128281703218818
5,1.02222228662528,-0.0736111117849297,0.0597222233422998,0.01588249579072,-0.0149661982432008,-0.0033597587607801
5,1.02500007039179,-0.0680555564078778,0.0569444456537738,0.00152716308366507,0.000610865245107561,-0.01588249579072
5,1.02500007039179,-0.0694444482911319,0.055555559848502,0.00122173049021512,-0.00152716308366507,-0.0192422550171614
5,1.02500007039179,-0.0652777787193518,0.0666666706026059,-0.00183259579353034,0.0045814891345799,-0.02382374368608
5,1.02500007039179,-0.0666666706026059,0.0625000010308258,-0.00977384392172098,0.01191187184304,-0.0253509078174829
5,1.02222228662528,-0.0666666706026059,0.0611111152255539,-0.0152716310694814,0.0113010071218014,-0.0226020142436027
5,1.02083339474202,-0.0708333340964038,0.0638888929140799,-0.0204639863222837,0.0122173046693206,-0.0213802829384804
5,1.02500007039179,-0.0791666671619817,0.0625000010308258,-0.011606439948082,0.0033597587607801,-0.0232128798961639
5,1.02222228662528,-0.0777777813567098,0.0513888902767219,-0.00977384392172098,0.00885754637420177,-0.0210748501121998
5,1.01944450285877,-0.0777777813567098,0.0625000010308258,-0.0125227374956012,0.0021380283869803,-0.0219911485910416
5,1.02222228662528,-0.0750000036681839,0.0666666706026059,-0.00855211354792118,-0.0033597587607801,-0.00977384392172098
5,1.02500007039179,-0.0819444448505077,0.0611111152255539,-0.00122173049021512,0.00580321997404099,-0.0180205255746841
5,1.02638896227504,-0.0847222225390337,0.0611111152255539,0.000916297896765172,0.00305432616733015,-0.0122173046693206
5,1.02500007039179,-0.0819444448505077,0.0611111152255539,0.00916297826915979,0.0113010071218014,-0.0149661982432008
5,1.02500007039179,-0.0777777813567098,0.055555559848502,0.00641408516094089,0.0103847095742822,-0.013744467869401
5,1.02500007039179,-0.0819444448505077,0.0583333375370279,0.0161879286170006,0.0149661982432008,-0.019547687843442
5,1.02083339474202,-0.0763888894734557,0.0694444482911319,0.0143553335219622,0.0186313893646002,-0.0180205255746841
5,1.02361117850853,-0.0763888894734557,0.0694444482911319,0.0171042270958424,0.0131336031481624,-0.00916297826915979
5,1.02083339474202,-0.0694444482911319,0.0722222259796579,0.00855211354792118,0.0180205255746841,-0.015577063895762
5,1.02361117850853,-0.0708333340964038,0.0805555590452358,0.00946841109544039,0.0045814891345799,-0.0167987942695618
5,1.02500007039179,-0.0680555564078778,0.0638888929140799,0.00702495034784079,0.0167987942695618,-0.0192422550171614
5,1.01944450285877,-0.0652777787193518,0.0638888929140799,0.0033597587607801,0.013744467869401,-0.015577063895762
5,1.02638896227504,-0.0736111117849297,0.0652777787193518,0.0033597587607801,0.0125227374956012,-0.00763581553474069
5,1.02638896227504,-0.0680555564078778,0.0569444456537738,0.0021380283869803,0.0103847095742822,-0.011606439948082
5,1.02500007039179,-0.0680555564078778,0.055555559848502,-0.00397062394768,0.0140499006956816,-0.0164933614432812
5,1.02500007039179,-0.0680555564078778,0.055555559848502,-0.0143553335219622,0.00916297826915979,-0.00885754637420177
5,1.02500007039179,-0.0680555564078778,0.0611111152255539,-0.0113010071218014,0.0149661982432008,-0.00794124789535999
5,1.02222228662528,-0.0680555564078778,0.0680555564078778,-0.00916297826915979,0.00763581553474069,-0.0171042270958424
5,1.02222228662528,-0.0680555564078778,0.0680555564078778,-0.0164933614432812,0.01191187184304,-0.0131336031481624
5,1.02222228662528,-0.0694444482911319,0.0625000010308258,-0.013744467869401,0.00366519158706069,-0.00702495034784079
5,1.02500007039179,-0.0652777787193518,0.0652777787193518,-0.00641408516094089,0.00641408516094089,-0.0045814891345799
5,1.02500007039179,-0.0625000010308258,0.0638888929140799,0.00580321997404099,0.00916297826915979,0.000916297896765172
5,1.02500007039179,-0.0625000010308258,0.0638888929140799,0.00824668072164059,0.000305432622553781,0.00122173049021512
5,1.02361117850853,-0.0625000010308258,0.0625000010308258,0.00519235478714108,0.000610865245107561,-0.000305432622553781
5,1.02777785415829,-0.0597222233422998,0.0638888929140799,0.00763581553474069,-0.00397062394768,-0.000610865245107561
5,1.02083339474202,-0.0638888929140799,0.0694444482911319,-0.00152716308366507,-0.0113010071218014,0.0021380283869803
5,1.02222228662528,-0.0541666679652478,0.0750000036681839,-0.00855211354792118,-0.00183259579353034,-0.0021380283869803
5,1.02500007039179,-0.0583333375370279,0.0680555564078778,-0.00794124789535999,-0.000610865245107561,0.00610865233466029
5,1.02638896227504,-0.0638888929140799,0.0694444482911319,-0.0033597587607801,0.00641408516094089,0.0146607663482428
5,1.02916674604155,-0.0708333340964038,0.0652777787193518,0.00488692196086049,-0.00366519158706069,0.00152716308366507
5,1.02222228662528,-0.0680555564078778,0.0680555564078778,0.0143553335219622,0.00366519158706069,-0.00152716308366507
5,1.02916674604155,-0.0708333340964038,0.0625000010308258,0.0128281703218818,-0.00244346098043024,-0.00519235478714108
5,1.02777785415829,-0.0666666706026059,0.0513888902767219,0.0128281703218818,0.0113010071218014,0.000610865245107561
5,1.02361117850853,-0.0652777787193518,0.0611111152255539,0.0152716310694814,-0.000916297896765172,0.000916297896765172
5,1.02222228662528,-0.0611111152255539,0.0652777787193518,0.0131336031481624,-0.00152716308366507,-0.0033597587607801
5,1.02222228662528,-0.0611111152255539,0.0597222233422998,0.0128281703218818,0.00366519158706069,0.00427605677396059
5,1.02500007039179,-0.0666666706026059,0.0638888929140799,0.00580321997404099,0.00610865233466029,-0.00152716308366507
5,1.02638896227504,-0.0680555564078778,0.0722222259796579,-0.00824668072164059,0.00977384392172098,-0.00244346098043024
5,1.02777785415829,-0.0694444482911319,0.0694444482911319,-0.0045814891345799,0.0109955742955208,-0.00702495034784079
5,1.02500007039179,-0.0694444482911319,0.055555559848502,0.00519235478714108,0.00152716308366507,-0.00885754637420177
5,1.02222228662528,-0.0722222259796579,0.0652777787193518,-0.00366519158706069,0.00183259579353034,-0.00427605677396059
5,1.02500007039179,-0.0666666706026059,0.0638888929140799,-0.000610865245107561,0.0045814891345799,-0.0027488935738802
5,1.02361117850853,-0.0680555564078778,0.0611111152255539,-0.0021380283869803,-0.00152716308366507,-0.00305432616733015
5,1.02361117850853,-0.0652777787193518,0.0652777787193518,0.000610865245107561,0.0033597587607801,0.00152716308366507
5,1.02638896227504,-0.0750000036681839,0.0652777787193518,0.00794124789535999,-0.00702495034784079,-0.00610865233466029
5,1.02222228662528,-0.0763888894734557,0.0625000010308258,0.0100792767480016,-0.00733038317412138,0.00733038317412138
5,1.02222228662528,-0.0736111117849297,0.0680555564078778,0.0045814891345799,-0.00916297826915979,0.0113010071218014
5,1.02500007039179,-0.0819444448505077,0.0638888929140799,0.015577063895762,-0.0033597587607801,0.0122173046693206
5,1.02222228662528,-0.0777777813567098,0.0750000036681839,0.0189368221908808,-0.00152716308366507,0.00702495034784079
5,1.02222228662528,-0.0736111117849297,0.0652777787193518,0.0232128798961639,-0.00580321997404099,0.00641408516094089
5,1.02361117850853,-0.0638888929140799,0.0680555564078778,0.0134390350431204,0.00824668072164059,0.00397062394768
5,1.02222228662528,-0.0625000010308258,0.0625000010308258,0.00885754637420177,-0.00641408516094089,0.00916297826915979
5,1.02222228662528,-0.0638888929140799,0.0513888902767219,-0.00610865233466029,-0.000305432622553781,0.013744467869401
5,1.02361117850853,-0.0638888929140799,0.0680555564078778,-0.00946841109544039,-0.00244346098043024,0.0103847095742822
5,1.02222228662528,-0.0666666706026059,0.0708333340964038,-0.0177150927484035,-0.00183259579353034,0.00366519158706069
5,1.02500007039179,-0.0750000036681839,0.0583333375370279,-0.02382374368608,0.00122173049021512,0.00610865233466029
5,1.02222228662528,-0.0708333340964038,0.0638888929140799,-0.0146607663482428,-0.00519235478714108,0.01191187184304
5,1.02916674604155,-0.0722222259796579,0.055555559848502,-0.00702495034784079,-0.011606439948082,0.0204639863222837
5,1.03194452980806,-0.0805555590452358,0.0513888902767219,0.00702495034784079,0.000916297896765172,0.017409659922123
5,1.02916674604155,-0.0847222225390337,0.0625000010308258,0.013744467869401,0.00916297826915979,0.00610865233466029
5,1.02500007039179,-0.0750000036681839,0.0652777787193518,0.0201585534960032,-0.00549778714776039,-0.00244346098043024
5,1.02500007039179,-0.0750000036681839,0.0513888902767219,0.0213802829384804,0.0033597587607801,0.00305432616733015
5,1.02500007039179,-0.0652777787193518,0.0625000010308258,0.0125227374956012,-0.00427605677396059,0.00733038317412138
5,1.02361117850853,-0.0694444482911319,0.0597222233422998,0.0100792767480016,0.000305432622553781,0.0131336031481624
5,1.02500007039179,-0.0736111117849297,0.0680555564078778,0.00671951752156019,-0.011606439948082,0.00488692196086049
5,1.02222228662528,-0.0694444482911319,0.0583333375370279,0.0100792767480016,-0.0045814891345799,0.00794124789535999
5,1.02916674604155,-0.0750000036681839,0.055555559848502,0.00610865233466029,0.000916297896765172,0.00122173049021512
5,1.02916674604155,-0.0805555590452358,0.0500000014324589,0.00946841109544039,0.00488692196086049,0.0106901414692402
5,1.02638896227504,-0.0750000036681839,0.0541666679652478,0.011606439948082,0.0045814891345799,0.00671951752156019
5,1.02500007039179,-0.0750000036681839,0.0597222233422998,0.00794124789535999,0.0100792767480016,-0.000916297896765172
5,1.02500007039179,-0.0750000036681839,0.0625000010308258,0.00488692196086049,0.0027488935738802,0.00244346098043024
5,1.02083339474202,-0.0694444482911319,0.0597222233422998,0.00824668072164059,-0.00244346098043024,0.00183259579353034
5,1.02500007039179,-0.0708333340964038,0.0513888902767219,0.00702495034784079,0.00305432616733015,0.00794124789535999
5,1.02500007039179,-0.0750000036681839,0.0625000010308258,0.0128281703218818,0.00488692196086049,0.0100792767480016
5,1.02916674604155,-0.0708333340964038,0.0625000010308258,0.0146607663482428,0.00549778714776039,0.00671951752156019
5,1.02638896227504,-0.0750000036681839,0.0638888929140799,0.015577063895762,0.00549778714776039,0.00427605677396059
5,1.02361117850853,-0.0750000036681839,0.0666666706026059,0.0210748501121998,0.00305432616733015,0.011606439948082
5,1.01944450285877,-0.0736111117849297,0.0652777787193518,0.0161879286170006,0.00427605677396059,0.0140499006956816
5,1.02222228662528,-0.0736111117849297,0.0652777787193518,0.0125227374956012,0.0167987942695618,0.01191187184304
5,1.02638896227504,-0.0763888894734557,0.0652777787193518,0.00122173049021512,0.0201585534960032,0.0189368221908808
5,1.02222228662528,-0.0777777813567098,0.0625000010308258,-0.00244346098043024,0.0207694191485643,0.0122173046693206
5,1.02500007039179,-0.0763888894734557,0.0625000010308258,0.00152716308366507,0.0247400421649218,0.0229074470698834
5,1.02638896227504,-0.0791666671619817,0.0652777787193518,0.000610865245107561,0.0192422550171614,0.0167987942695618
5,1.0305556379248,-0.0750000036681839,0.0597222233422998,0.00183259579353034,0.0262672062963247,0.00885754637420177
5,1.02500007039179,-0.0750000036681839,0.0625000010308258,-0.00641408516094089,0.0262672062963247,0.00977384392172098
5,1.02222228662528,-0.0722222259796579,0.0680555564078778,-0.0106901414692402,0.0326812900602817,0.01191187184304
5,1.02222228662528,-0.0722222259796579,0.0680555564078778,-0.0100792767480016,0.0183259565383196,0.0100792767480016
5,1.02222228662528,-0.0819444448505077,0.0652777787193518,-0.00366519158706069,0.0033597587607801,0.00641408516094089
5,1.02916674604155,-0.0805555590452358,0.0652777787193518,-0.00549778714776039,0.0106901414692402,0.00977384392172098
5,1.02916674604155,-0.0805555590452358,0.0652777787193518,0.000916297896765172,0.0131336031481624,0.0149661982432008
5,1.02916674604155,-0.0750000036681839,0.0611111152255539,0.000610865245107561,0.00610865233466029,0.0021380283869803
5,1.02361117850853,-0.0819444448505077,0.0625000010308258,0.00671951752156019,0.0045814891345799,0.000916297896765172
5,1.02361117850853,-0.0819444448505077,0.0625000010308258,0.0100792767480016,0.00397062394768,-0.00152716308366507
5,1.02916674604155,-0.0833333367337618,0.0652777787193518,0.0100792767480016,0.0100792767480016,0.00183259579353034
5,1.02500007039179,-0.0777777813567098,0.0652777787193518,0.01191187184304,0.00610865233466029,0.0027488935738802
5,1.02500007039179,-0.0708333340964038,0.0597222233422998,-0.00488692196086049,0.0109955742955208,0.00122173049021512
5,1.02500007039179,-0.0777777813567098,0.0680555564078778,-0.00519235478714108,0.0033597587607801,0.0033597587607801
5,1.02361117850853,-0.0750000036681839,0.0694444482911319,0.000916297896765172,-0.00671951752156019,0.000916297896765172
5,1.02638896227504,-0.0805555590452358,0.0652777787193518,-0.00305432616733015,-0.00244346098043024,0.00763581553474069
5,1.02638896227504,-0.0777777813567098,0.0625000010308258,0.00488692196086049,0.0103847095742822,0.00183259579353034
5,1.02500007039179,-0.0777777813567098,0.0569444456537738,-0.00183259579353034,0.00610865233466029,0.00519235478714108
5,1.02777785415829,-0.0791666671619817,0.0625000010308258,0.00549778714776039,0.0109955742955208,0.00397062394768
5,1.02361117850853,-0.0819444448505077,0.0652777787193518,0.0128281703218818,0.0113010071218014,-0.00366519158706069
5,1.02500007039179,-0.0791666671619817,0.0611111152255539,0.00977384392172098,0.00610865233466029,0.00244346098043024
5,1.02222228662528,-0.0750000036681839,0.0680555564078778,0.0134390350431204,0.0161879286170006,0.000305432622553781
5,1.02222228662528,-0.0722222259796579,0.0583333375370279,-0.00183259579353034,0.0180205255746841,0.00519235478714108
5,1.02083339474202,-0.0722222259796579,0.0638888929140799,-0.00397062394768,0.00794124789535999,0.00580321997404099
5,1.02361117850853,-0.0680555564078778,0.0625000010308258,-0.00580321997404099,0.0180205255746841,0.00702495034784079
5,1.02222228662528,-0.0805555590452358,0.0666666706026059,0.00366519158706069,0.00488692196086049,0.0021380283869803
5,1.02500007039179,-0.0777777813567098,0.0694444482911319,0.00977384392172098,0.0106901414692402,0.0100792767480016
5,1.02222228662528,-0.0777777813567098,0.0722222259796579,0.01588249579072,0.00671951752156019,0.00427605677396059
5,1.02222228662528,-0.0750000036681839,0.0736111117849297,0.019547687843442,0.015577063895762,-0.0045814891345799
5,1.02500007039179,-0.0791666671619817,0.0638888929140799,0.01588249579072,0.011606439948082,0.0033597587607801
5,1.02222228662528,-0.0805555590452358,0.0708333340964038,0.0226020142436027,0.00733038317412138,0.0027488935738802
5,1.02638896227504,-0.0777777813567098,0.0722222259796579,0.0183259565383196,0.0100792767480016,0.000305432622553781
5,1.02916674604155,-0.0819444448505077,0.0652777787193518,0.0189368221908808,0.0021380283869803,0.0122173046693206
5,1.02500007039179,-0.0750000036681839,0.0680555564078778,0.0226020142436027,0.00366519158706069,0.00824668072164059
5,1.02916674604155,-0.0763888894734557,0.0750000036681839,0.027488935738802,0.00733038317412138,0.00366519158706069
5,1.02222228662528,-0.0750000036681839,0.0680555564078778,0.0226020142436027,0.0180205255746841,0.00488692196086049
5,1.02222228662528,-0.0777777813567098,0.0666666706026059,0.0366519130766392,0.0152716310694814,0.0045814891345799
5,1.01944450285877,-0.0791666671619817,0.0680555564078778,0.0387899428606033,0.0122173046693206,0.00366519158706069
5,1.00138890837647,-0.0847222225390337,0.0625000010308258,0.0406225398182869,0.0241291765123606,0.00519235478714108
5,1.03194452980806,-0.0888888921108138,0.0625000010308258,0.0335975885391235,0.00610865233466029,0.00794124789535999
5,1.02916674604155,-0.0888888921108138,0.0750000036681839,0.0122173046693206,0.00244346098043024,-0.0106901414692402
5,1.0305556379248,-0.0819444448505077,0.0652777787193518,0.00519235478714108,0.011606439948082,0.0033597587607801
5,1.02777785415829,-0.0777777813567098,0.0680555564078778,-0.0109955742955208,0.0140499006956816,0.00733038317412138
5,1.02500007039179,-0.0777777813567098,0.0708333340964038,-0.0113010071218014,0.00183259579353034,-0.000916297896765172
5,1.02500007039179,-0.0777777813567098,0.0597222233422998,-0.0177150927484035,0.0256563406437635,-0.00824668072164059
5,1.02361117850853,-0.0666666706026059,0.0638888929140799,-0.0207694191485643,0.00977384392172098,-0.00488692196086049
5,1.02222228662528,-0.0722222259796579,0.0722222259796579,-0.0186313893646002,0.00366519158706069,0.000916297896765172
5,1.01944450285877,-0.0763888894734557,0.0694444482911319,-0.019547687843442,-0.00122173049021512,-0.000610865245107561
5,1.02222228662528,-0.0791666671619817,0.0763888894734557,-0.00183259579353034,0.00183259579353034,-0.0167987942695618
5,1.02222228662528,-0.0791666671619817,0.0763888894734557,-0.00183259579353034,0.00183259579353034,-0.0167987942695618
5,1.02083339474202,-0.0763888894734557,0.0805555590452358,0.00641408516094089,0.00122173049021512,-0.00946841109544039
5,1.02361117850853,-0.0708333340964038,0.0750000036681839,0.0045814891345799,0.00763581553474069,-0.00794124789535999
5,1.02222228662528,-0.0652777787193518,0.0680555564078778,0.000916297896765172,0.00641408516094089,-0.00580321997404099
5,1.02222228662528,-0.0625000010308258,0.0763888894734557,0.0027488935738802,0.0100792767480016,-0.0103847095742822
5,1.01944450285877,-0.0597222233422998,0.0708333340964038,-0.00641408516094089,0.000610865245107561,-0.000916297896765172
5,1.01944450285877,-0.0625000010308258,0.0777777813567098,-0.011606439948082,0.00152716308366507,-0.0189368221908808
5,1.02083339474202,-0.0694444482911319,0.0750000036681839,-0.00122173049021512,0.00488692196086049,-0.0152716310694814
5,1.02361117850853,-0.0763888894734557,0.0902777839940679,0.00885754637420177,-0.0027488935738802,-0.00977384392172098
5,1.02638896227504,-0.0777777813567098,0.0833333367337618,0.0189368221908808,0.00519235478714108,-0.00885754637420177
5,1.02777785415829,-0.0819444448505077,0.0763888894734557,0.0134390350431204,0.00366519158706069,-0.00519235478714108
5,1.02916674604155,-0.0833333367337618,0.0722222259796579,0.011606439948082,0.0222965814173222,-0.00916297826915979
5,1.02500007039179,-0.0819444448505077,0.0722222259796579,0.0253509078174829,0.0244346093386412,-0.0103847095742822
5,1.01944450285877,-0.0833333367337618,0.0847222225390337,0.0332921557128429,0.0232128798961639,-0.0103847095742822
5,1.02361117850853,-0.0847222225390337,0.0791666671619817,0.0400116741657257,0.0186313893646002,-0.00305432616733015
5,1.02222228662528,-0.0847222225390337,0.0763888894734557,0.0445931628346443,0.00733038317412138,-0.01191187184304
5,1.02222228662528,-0.0805555590452358,0.0722222259796579,0.04764748737216,0.00702495034784079,-0.00702495034784079
5,1.02222228662528,-0.0777777813567098,0.0750000036681839,0.0549778714776039,0.00244346098043024,-0.00763581553474069
5,1.02222228662528,-0.0819444448505077,0.0736111117849297,0.0623082555830479,0.0143553335219622,-0.00671951752156019
5,1.01944450285877,-0.0763888894734557,0.0750000036681839,0.0626136884093285,0.00794124789535999,0.0021380283869803
5,1.02500007039179,-0.0750000036681839,0.0736111117849297,0.0592539273202419,0.0131336031481624,0.00519235478714108
5,1.02500007039179,-0.0736111117849297,0.0625000010308258,0.0497855171561241,0.0131336031481624,0.0033597587607801
5,1.02361117850853,-0.0722222259796579,0.0583333375370279,0.0458148941397667,0.0149661982432008,-0.0045814891345799
5,1.02222228662528,-0.0652777787193518,0.0680555564078778,0.0311541277915239,0.0021380283869803,0.00671951752156019
5,1.02361117850853,-0.0708333340964038,0.0763888894734557,0.0290160998702049,-0.0045814891345799,-0.00977384392172098
5,1.02500007039179,-0.0722222259796579,0.0750000036681839,0.0305432621389627,-0.00427605677396059,0.00305432616733015
5,1.02500007039179,-0.0763888894734557,0.0722222259796579,0.0244346093386412,-0.00183259579353034,0.00122173049021512
5,1.02777785415829,-0.0736111117849297,0.0791666671619817,0.0210748501121998,0.00244346098043024,-0.0045814891345799
5,1.02361117850853,-0.0805555590452358,0.0722222259796579,0.0253509078174829,-0.000610865245107561,0.0021380283869803
5,1.02222228662528,-0.0763888894734557,0.0819444448505077,0.0311541277915239,0.000305432622553781,0.00305432616733015
5,1.02222228662528,-0.0763888894734557,0.0819444448505077,0.019547687843442,0.0027488935738802,-0.0021380283869803
5,1.02500007039179,-0.0763888894734557,0.0708333340964038,0.0207694191485643,-0.00427605677396059,0.01191187184304
5,1.02222228662528,-0.0680555564078778,0.0805555590452358,0.00977384392172098,-0.000916297896765172,-0.00641408516094089
5,1.02222228662528,-0.0638888929140799,0.0847222225390337,0.00519235478714108,0.000610865245107561,0.00824668072164059
5,1.02222228662528,-0.0638888929140799,0.0847222225390337,0.0106901414692402,-0.0109955742955208,-0.00244346098043024
5,1.02500007039179,-0.0625000010308258,0.0805555590452358,0.0027488935738802,-0.00794124789535999,-0.0045814891345799
5,1.02638896227504,-0.0750000036681839,0.0680555564078778,-0.00488692196086049,0.00152716308366507,-0.0021380283869803
5,1.02638896227504,-0.0750000036681839,0.0680555564078778,-0.0045814891345799,0.00641408516094089,-0.0027488935738802
5,1.02361117850853,-0.0680555564078778,0.0777777813567098,-0.01588249579072,-0.0033597587607801,-0.0045814891345799
5,1.02777785415829,-0.0694444482911319,0.0791666671619817,-0.0113010071218014,0.000916297896765172,-0.00488692196086049
5,1.02777785415829,-0.0694444482911319,0.0791666671619817,-0.0180205255746841,0.00183259579353034,-0.0045814891345799
5,1.02500007039179,-0.0680555564078778,0.0750000036681839,-0.00519235478714108,-0.00549778714776039,0.0021380283869803
5,1.02361117850853,-0.0722222259796579,0.0680555564078778,-0.01191187184304,-0.00702495034784079,-0.00824668072164059
5,1.02083339474202,-0.0736111117849297,0.0680555564078778,-0.00977384392172098,-0.00183259579353034,-0.0021380283869803
5,1.02638896227504,-0.0722222259796579,0.0833333367337618,-0.0198531206697226,0.000610865245107561,-0.0149661982432008
5,1.02222228662528,-0.0722222259796579,0.0930555616825939,-0.0103847095742822,0.00244346098043024,-0.00885754637420177
5,1.02500007039179,-0.0680555564078778,0.0736111117849297,-0.0113010071218014,-0.000305432622553781,-0.0109955742955208
5,1.02222228662528,-0.0736111117849297,0.0847222225390337,-0.00397062394768,-0.000610865245107561,-0.00427605677396059
5,1.02638896227504,-0.0736111117849297,0.0791666671619817,0.000916297896765172,-0.00122173049021512,-0.00549778714776039
5,1.02500007039179,-0.0763888894734557,0.0805555590452358,0.0100792767480016,-0.00152716308366507,-0.00733038317412138
5,1.02500007039179,-0.0722222259796579,0.0777777813567098,0.017409659922123,-0.0033597587607801,0.00244346098043024
5,1.02361117850853,-0.0791666671619817,0.0777777813567098,0.00977384392172098,0.00580321997404099,-0.0045814891345799
5,1.01944450285877,-0.0750000036681839,0.0888888921108138,0.0113010071218014,0.0106901414692402,-0.0100792767480016
5,1.02361117850853,-0.0750000036681839,0.0847222225390337,0.00824668072164059,0.0021380283869803,-0.000610865245107561
5,1.02222228662528,-0.0750000036681839,0.0750000036681839,0.00488692196086049,0.00885754637420177,0.00183259579353034
5,1.02500007039179,-0.0680555564078778,0.0666666706026059,0.00916297826915979,0.00183259579353034,0.00427605677396059
5,1.02083339474202,-0.0708333340964038,0.0708333340964038,0.0125227374956012,-0.00305432616733015,-0.00885754637420177
5,1.02500007039179,-0.0694444482911319,0.0722222259796579,0.00977384392172098,-0.00183259579353034,0.00183259579353034
5,1.02361117850853,-0.0680555564078778,0.0750000036681839,0.02382374368608,-0.00427605677396059,-0.00152716308366507
5,1.02916674604155,-0.0708333340964038,0.0736111117849297,0.0177150927484035,-0.00488692196086049,-0.000916297896765172
5,1.02916674604155,-0.0680555564078778,0.0833333367337618,0.0244346093386412,-0.00702495034784079,-0.0033597587607801
5,1.02500007039179,-0.0680555564078778,0.0722222259796579,0.0219911485910416,-0.00641408516094089,0.000610865245107561
5,1.02500007039179,-0.0597222233422998,0.0708333340964038,0.0280998013913631,-0.0021380283869803,-0.0033597587607801
5,1.02222228662528,-0.0652777787193518,0.0708333340964038,0.0277943685650826,-0.0033597587607801,-0.0128281703218818
5,1.02361117850853,-0.0597222233422998,0.0750000036681839,0.0290160998702049,0.00427605677396059,-0.00885754637420177
5,1.02361117850853,-0.0666666706026059,0.0722222259796579,0.0171042270958424,0.00244346098043024,0.00305432616733015
5,1.02222228662528,-0.0652777787193518,0.0750000036681839,0.0167987942695618,0.00763581553474069,0.0045814891345799
5,1.02222228662528,-0.0652777787193518,0.0680555564078778,0.0183259565383196,0.00580321997404099,-0.0045814891345799
5,1.02500007039179,-0.0652777787193518,0.0708333340964038,0.0204639863222837,-0.00183259579353034,-0.00427605677396059
5,1.02916674604155,-0.0666666706026059,0.0680555564078778,0.00885754637420177,0.00244346098043024,-0.00549778714776039
5,1.02361117850853,-0.0652777787193518,0.0777777813567098,0.015577063895762,0.0045814891345799,-0.000610865245107561
5,1.02083339474202,-0.0625000010308258,0.0805555590452358,0.011606439948082,-0.000305432622553781,-0.000305432622553781
5,1.02083339474202,-0.0666666706026059,0.0875000002275597,0.00977384392172098,-0.00305432616733015,-0.0021380283869803
5,1.02222228662528,-0.0680555564078778,0.0805555590452358,0.00794124789535999,0.000610865245107561,0.00397062394768
5,1.02500007039179,-0.0680555564078778,0.0736111117849297,0.00855211354792118,0.00183259579353034,-0.00244346098043024
5,1.02361117850853,-0.0680555564078778,0.0777777813567098,0.0189368221908808,-0.00855211354792118,-0.00183259579353034
5,1.02500007039179,-0.0680555564078778,0.0791666671619817,0.0131336031481624,-0.00244346098043024,-0.0033597587607801
5,1.02361117850853,-0.0652777787193518,0.0722222259796579,0.00855211354792118,-0.00824668072164059,0.00366519158706069
5,1.02083339474202,-0.0680555564078778,0.0708333340964038,0.00397062394768,-0.00549778714776039,0.00671951752156019
5,1.01944450285877,-0.0708333340964038,0.0736111117849297,0.0100792767480016,-0.00946841109544039,0.00641408516094089
5,1.01944450285877,-0.0708333340964038,0.0736111117849297,0.00855211354792118,-0.000610865245107561,0.000610865245107561
5,1.02361117850853,-0.0694444482911319,0.0819444448505077,0.01191187184304,-0.00152716308366507,-0.0027488935738802
5,1.01944450285877,-0.0680555564078778,0.0750000036681839,0.00366519158706069,0.00183259579353034,-0.00152716308366507
5,1.01944450285877,-0.0680555564078778,0.0750000036681839,0.0021380283869803,0.00488692196086049,0.00855211354792118
5,1.02500007039179,-0.0666666706026059,0.0791666671619817,-0.0021380283869803,0.00244346098043024,0.0100792767480016
5,1.02500007039179,-0.0666666706026059,0.0875000002275597,0.00580321997404099,0.00366519158706069,0.0033597587607801
5,1.02222228662528,-0.0722222259796579,0.0902777839940679,0.00183259579353034,-0.00152716308366507,0.00885754637420177
5,1.02222228662528,-0.0763888894734557,0.0777777813567098,-0.00122173049021512,-0.00580321997404099,0.01191187184304
5,1.02222228662528,-0.0625000010308258,0.0819444448505077,0.000305432622553781,-0.0027488935738802,-0.000305432622553781
5,1.02083339474202,-0.0680555564078778,0.0777777813567098,-0.00122173049021512,-0.00366519158706069,0.00610865233466029
5,1.02361117850853,-0.0680555564078778,0.0777777813567098,0.000916297896765172,0.00152716308366507,-0.00549778714776039
5,1.02500007039179,-0.0680555564078778,0.0750000036681839,0.0045814891345799,-0.00427605677396059,0.000916297896765172
5,1.02638896227504,-0.0736111117849297,0.0777777813567098,0.00580321997404099,0.00183259579353034,0.0027488935738802
5,1.02361117850853,-0.0722222259796579,0.0750000036681839,0.00580321997404099,-0.00671951752156019,0.00610865233466029
5,1.02500007039179,-0.0680555564078778,0.0777777813567098,0.0100792767480016,-0.00794124789535999,-0.00152716308366507
5,1.02222228662528,-0.0694444482911319,0.0777777813567098,0.0146607663482428,-0.0113010071218014,-0.000305432622553781
5,1.02222228662528,-0.0680555564078778,0.0750000036681839,0.0161879286170006,-0.0128281703218818,-0.00122173049021512
5,1.02500007039179,-0.0680555564078778,0.0736111117849297,0.0128281703218818,-0.0109955742955208,0.0045814891345799
5,1.02777785415829,-0.0625000010308258,0.0750000036681839,0.01191187184304,-0.00397062394768,0.00519235478714108
5,1.02777785415829,-0.0680555564078778,0.0777777813567098,0.00824668072164059,-0.00183259579353034,0.00397062394768
5,1.02500007039179,-0.0722222259796579,0.0819444448505077,0.00977384392172098,-0.00671951752156019,-0.0033597587607801
5,1.02500007039179,-0.0722222259796579,0.0680555564078778,0.00763581553474069,0.0027488935738802,0.000610865245107561
5,1.02222228662528,-0.0722222259796579,0.0708333340964038,0.0113010071218014,0.00152716308366507,0.0027488935738802
5,1.02361117850853,-0.0694444482911319,0.0750000036681839,0.00916297826915979,-0.0021380283869803,0.00549778714776039
5,1.02777785415829,-0.0694444482911319,0.0722222259796579,0.00397062394768,0.00824668072164059,-0.00122173049021512
5,1.02500007039179,-0.0750000036681839,0.0708333340964038,0.00610865233466029,0.00122173049021512,0.000610865245107561
5,1.02222228662528,-0.0680555564078778,0.0680555564078778,0.0128281703218818,0.00427605677396059,0.00824668072164059
5,1.02361117850853,-0.0708333340964038,0.0861111144222878,-0.0033597587607801,-0.000916297896765172,0.00763581553474069
5,1.02083339474202,-0.0708333340964038,0.0763888894734557,0.00183259579353034,0.00366519158706069,0.0113010071218014
5,1.02083339474202,-0.0708333340964038,0.0763888894734557,0.00549778714776039,0.00702495034784079,0.00305432616733015
5,1.02638896227504,-0.0750000036681839,0.0736111117849297,0.00885754637420177,0.00519235478714108,0.0045814891345799
5,1.02500007039179,-0.0777777813567098,0.0722222259796579,0.00733038317412138,0.000916297896765172,0.00152716308366507
5,1.02500007039179,-0.0708333340964038,0.0694444482911319,-0.00183259579353034,0.0033597587607801,0.00397062394768
5,1.02500007039179,-0.0666666706026059,0.0680555564078778,-0.0109955742955208,0.000305432622553781,0.0027488935738802
5,1.02777785415829,-0.0638888929140799,0.0777777813567098,-0.011606439948082,-0.00122173049021512,0.00671951752156019
5,1.02361117850853,-0.0736111117849297,0.0777777813567098,0.00122173049021512,0.00305432616733015,-0.0027488935738802
5,1.02500007039179,-0.0722222259796579,0.0694444482911319,0.00366519158706069,-0.00305432616733015,0.0122173046693206
5,1.02083339474202,-0.0750000036681839,0.0736111117849297,0.00366519158706069,-0.0021380283869803,0.00733038317412138
5,1.02083339474202,-0.0652777787193518,0.0750000036681839,0.0033597587607801,-0.000916297896765172,0.00244346098043024
5,1.02083339474202,-0.0680555564078778,0.0708333340964038,0.00122173049021512,-0.00305432616733015,0.00610865233466029
5,1.02500007039179,-0.0652777787193518,0.0625000010308258,-0.00183259579353034,-0.00488692196086049,0.0131336031481624
5,1.02361117850853,-0.0680555564078778,0.0805555590452358,-0.00946841109544039,-0.00549778714776039,0.0186313893646002
5,1.02222228662528,-0.0722222259796579,0.0777777813567098,-0.00427605677396059,-0.000610865245107561,0.00916297826915979
5,1.01944450285877,-0.0750000036681839,0.0847222225390337,-0.00244346098043024,0.000305432622553781,0.0140499006956816
5,1.02361117850853,-0.0722222259796579,0.0777777813567098,-0.00244346098043024,-0.00549778714776039,0.0122173046693206
5,1.02638896227504,-0.0722222259796579,0.0763888894734557,-0.0287106670439243,0.0198531206697226,0.00733038317412138
5,1.02361117850853,-0.0722222259796579,0.0666666706026059,-0.0299323964864016,0.013744467869401,0.0027488935738802
5,1.02638896227504,-0.0694444482911319,0.0722222259796579,-0.0226020142436027,0.0113010071218014,0.0113010071218014
5,1.01666671909226,-0.0652777787193518,0.0750000036681839,-0.0186313893646002,0.01191187184304,0.00580321997404099
5,1.01944450285877,-0.0722222259796579,0.0805555590452358,-0.0146607663482428,0.017409659922123,0.00610865233466029
5,1.01944450285877,-0.0652777787193518,0.0861111144222878,-0.0100792767480016,0.0106901414692402,0.00702495034784079
5,1.02083339474202,-0.0722222259796579,0.0875000002275597,0.00671951752156019,-0.00824668072164059,0.00916297826915979
5,1.02222228662528,-0.0750000036681839,0.0875000002275597,0.01191187184304,-0.00733038317412138,0.00885754637420177
5,1.02500007039179,-0.0791666671619817,0.0875000002275597,0.00946841109544039,-0.00702495034784079,0.00183259579353034
5,1.02777785415829,-0.0722222259796579,0.0722222259796579,0.000610865245107561,0.000610865245107561,0.00641408516094089
5,1.02638896227504,-0.0736111117849297,0.0750000036681839,-0.0021380283869803,-0.00366519158706069,0.0109955742955208
5,1.02500007039179,-0.0680555564078778,0.0680555564078778,0.00519235478714108,-0.00763581553474069,0.011606439948082
5,1.02222228662528,-0.0722222259796579,0.0597222233422998,-0.000305432622553781,-0.0027488935738802,0.00733038317412138
5,1.02361117850853,-0.0722222259796579,0.0708333340964038,-0.00122173049021512,0.000305432622553781,0.00610865233466029
5,1.02361117850853,-0.0777777813567098,0.0791666671619817,-0.00122173049021512,0.00610865233466029,0.00641408516094089
5,1.02500007039179,-0.0791666671619817,0.0777777813567098,0.00794124789535999,0.00916297826915979,0.0027488935738802
5,1.02500007039179,-0.0722222259796579,0.0722222259796579,0.00977384392172098,0.00733038317412138,0.0113010071218014
5,1.02222228662528,-0.0750000036681839,0.0708333340964038,0.00610865233466029,0.0045814891345799,0.00183259579353034
5,1.02222228662528,-0.0750000036681839,0.0708333340964038,0.0045814891345799,0.00733038317412138,0.00183259579353034
5,1.02361117850853,-0.0750000036681839,0.0722222259796579,-0.00152716308366507,0.0128281703218818,0.00977384392172098
5,1.02083339474202,-0.0819444448505077,0.0736111117849297,0.0100792767480016,0.00824668072164059,0.00580321997404099
5,1.02222228662528,-0.0819444448505077,0.0819444448505077,0.00855211354792118,-0.00152716308366507,0.0125227374956012
5,1.02222228662528,-0.0791666671619817,0.0819444448505077,0.0131336031481624,-0.00122173049021512,0.00427605677396059
5,1.02777785415829,-0.0819444448505077,0.0638888929140799,0.01191187184304,-0.00580321997404099,0.0027488935738802
5,1.02500007039179,-0.0763888894734557,0.0652777787193518,0.00946841109544039,-0.0033597587607801,-0.000305432622553781
5,1.02500007039179,-0.0750000036681839,0.0722222259796579,0.0213802829384804,0.000916297896765172,0.00671951752156019
5,1.02222228662528,-0.0722222259796579,0.0847222225390337,0.0177150927484035,0.00397062394768,0.00794124789535999
5,1.02361117850853,-0.0750000036681839,0.0791666671619817,0.0164933614432812,-0.00488692196086049,0.0109955742955208
5,1.02500007039179,-0.0708333340964038,0.0791666671619817,0.00183259579353034,-0.00549778714776039,-0.00305432616733015
5,1.02222228662528,-0.0777777813567098,0.0708333340964038,0.0122173046693206,-0.00488692196086049,-0.0027488935738802
5,1.02222228662528,-0.0750000036681839,0.0763888894734557,0.0149661982432008,-0.00122173049021512,0.00763581553474069
5,1.01944450285877,-0.0694444482911319,0.0680555564078778,0.0134390350431204,-0.00519235478714108,-0.00824668072164059
5,1.02500007039179,-0.0722222259796579,0.0805555590452358,0.00244346098043024,0.000305432622553781,-0.00305432616733015
5,1.02083339474202,-0.0750000036681839,0.0763888894734557,-0.0045814891345799,-0.00610865233466029,0.00305432616733015
5,1.02638896227504,-0.0736111117849297,0.0750000036681839,-0.00244346098043024,-0.00152716308366507,-0.00916297826915979
5,1.02222228662528,-0.0750000036681839,0.0750000036681839,-0.0027488935738802,-0.00702495034784079,-0.00763581553474069
5,1.02222228662528,-0.0694444482911319,0.0680555564078778,0.0033597587607801,-0.000610865245107561,0.00152716308366507
5,1.02361117850853,-0.0708333340964038,0.0666666706026059,0.00610865233466029,-0.00183259579353034,-0.000916297896765172
5,1.02361117850853,-0.0750000036681839,0.0736111117849297,-0.00855211354792118,0.00122173049021512,-0.000305432622553781
5,1.02222228662528,-0.0791666671619817,0.0819444448505077,-0.00122173049021512,-0.00519235478714108,-0.00244346098043024
5,1.02500007039179,-0.0763888894734557,0.0819444448505077,0.0045814891345799,-0.00152716308366507,-0.01191187184304
5,1.02222228662528,-0.0736111117849297,0.0722222259796579,-0.0027488935738802,-0.0131336031481624,-0.00244346098043024
5,1.02638896227504,-0.0722222259796579,0.0750000036681839,0.0103847095742822,-0.011606439948082,0.000916297896765172
5,1.02638896227504,-0.0763888894734557,0.0694444482911319,0.00885754637420177,-0.0161879286170006,-0.00702495034784079
5,1.02916674604155,-0.0791666671619817,0.0736111117849297,0.0125227374956012,-0.00488692196086049,0.00183259579353034
5,1.02083339474202,-0.0819444448505077,0.0750000036681839,0.01588249579072,-0.000916297896765172,-0.0027488935738802
5,1.02777785415829,-0.0819444448505077,0.0763888894734557,0.0113010071218014,-0.00427605677396059,0.00183259579353034
5,1.02500007039179,-0.0777777813567098,0.0722222259796579,0.0131336031481624,-0.00183259579353034,-0.00610865233466029
5,1.02500007039179,-0.0777777813567098,0.0722222259796579,0.00397062394768,-0.00152716308366507,0.0021380283869803
5,1.02222228662528,-0.0791666671619817,0.0791666671619817,0.00763581553474069,0.00244346098043024,-0.00733038317412138
5,1.02361117850853,-0.0750000036681839,0.0763888894734557,0.00519235478714108,0.00305432616733015,-0.0100792767480016
5,1.02777785415829,-0.0722222259796579,0.0680555564078778,-0.00610865233466029,0.00305432616733015,-0.00794124789535999
5,1.02500007039179,-0.0722222259796579,0.0652777787193518,-0.00794124789535999,0.00305432616733015,-0.0134390350431204
5,1.02777785415829,-0.0722222259796579,0.0652777787193518,-0.0161879286170006,0.00671951752156019,-0.00580321997404099
5,1.02361117850853,-0.0736111117849297,0.0708333340964038,-0.0125227374956012,0.0103847095742822,0.00152716308366507
5,1.02500007039179,-0.0750000036681839,0.0750000036681839,-0.00794124789535999,0.00610865233466029,-0.00488692196086049
5,1.02916674604155,-0.0722222259796579,0.0736111117849297,-0.000610865245107561,0.011606439948082,-0.00855211354792118
5,1.02916674604155,-0.0722222259796579,0.0736111117849297,0.00305432616733015,0.00488692196086049,-0.00519235478714108
5,1.02222228662528,-0.0666666706026059,0.0708333340964038,0.00977384392172098,0.00794124789535999,-0.00244346098043024
5,1.02500007039179,-0.0750000036681839,0.0750000036681839,0.0113010071218014,0.00610865233466029,-0.00763581553474069
5,1.02500007039179,-0.0750000036681839,0.0750000036681839,0.0186313893646002,0.00549778714776039,0.00152716308366507
5,1.02638896227504,-0.0722222259796579,0.0777777813567098,0.0232128798961639,0.0027488935738802,-0.00519235478714108
5,1.02222228662528,-0.0736111117849297,0.0750000036681839,0.0222965814173222,0.00580321997404099,-0.00549778714776039
5,1.02222228662528,-0.0736111117849297,0.0750000036681839,0.0256563406437635,0.00152716308366507,-0.000610865245107561
5,1.02083339474202,-0.0625000010308258,0.0680555564078778,0.015577063895762,0.00427605677396059,-0.00305432616733015
5,1.01944450285877,-0.0652777787193518,0.0736111117849297,0.0167987942695618,0.000305432622553781,0.00183259579353034
5,1.02083339474202,-0.0680555564078778,0.0694444482911319,0.0122173046693206,0.000610865245107561,-0.00763581553474069
5,1.02777785415829,-0.0694444482911319,0.0680555564078778,0.0131336031481624,0.00427605677396059,-0.00641408516094089
5,1.02500007039179,-0.0652777787193518,0.0708333340964038,0.0186313893646002,0.00794124789535999,-0.0113010071218014
5,1.02500007039179,-0.0694444482911319,0.0722222259796579,0.0198531206697226,0.00733038317412138,-0.0122173046693206
5,1.02222228662528,-0.0750000036681839,0.0763888894734557,0.0204639863222837,0.00183259579353034,-0.00610865233466029
5,1.02222228662528,-0.0680555564078778,0.0666666706026059,0.0207694191485643,0.00549778714776039,-0.00733038317412138
5,1.02222228662528,-0.0625000010308258,0.0777777813567098,0.0152716310694814,0.00244346098043024,-0.00610865233466029
5,1.02500007039179,-0.0625000010308258,0.0708333340964038,0.0122173046693206,0.00519235478714108,-0.00305432616733015
5,1.02222228662528,-0.0666666706026059,0.0750000036681839,0.00946841109544039,0.00152716308366507,-0.0045814891345799
5,1.02222228662528,-0.0652777787193518,0.0750000036681839,0.00733038317412138,-0.0021380283869803,-0.011606439948082
5,1.02500007039179,-0.0680555564078778,0.0763888894734557,0.0109955742955208,-0.00305432616733015,-0.0106901414692402
5,1.02500007039179,-0.0750000036681839,0.0736111117849297,0.0109955742955208,-0.00152716308366507,-0.0134390350431204
5,1.02361117850853,-0.0722222259796579,0.0777777813567098,0.0207694191485643,-0.00122173049021512,-0.0192422550171614
5,1.02222228662528,-0.0750000036681839,0.0750000036681839,0.0259617734700441,-0.00305432616733015,-0.00885754637420177
5,1.02361117850853,-0.0722222259796579,0.0652777787193518,0.0186313893646002,-0.0125227374956012,-0.00305432616733015
5,1.02361117850853,-0.0750000036681839,0.0722222259796579,0.0183259565383196,-0.0229074470698834,-0.017409659922123
5,1.02222228662528,-0.0777777813567098,0.0652777787193518,0.0140499006956816,-0.00519235478714108,-0.0247400421649218
5,1.01944450285877,-0.0763888894734557,0.0652777787193518,0.00763581553474069,-0.00427605677396059,-0.0222965814173222
5,1.02777785415829,-0.0666666706026059,0.0805555590452358,0.00366519158706069,0.00916297826915979,-0.0167987942695618
5,1.02777785415829,-0.0625000010308258,0.0722222259796579,0.000916297896765172,0.00549778714776039,-0.0201585534960032
5,1.02500007039179,-0.0638888929140799,0.0722222259796579,-0.00702495034784079,0.00152716308366507,-0.011606439948082
5,1.01944450285877,-0.0694444482911319,0.0750000036681839,0.00122173049021512,-0.00122173049021512,-0.013744467869401
5,1.02222228662528,-0.0652777787193518,0.0819444448505077,-0.00946841109544039,0.00641408516094089,-0.00946841109544039
5,1.02500007039179,-0.0680555564078778,0.0722222259796579,-0.00152716308366507,-0.00427605677396059,-0.00824668072164059
5,1.02500007039179,-0.0597222233422998,0.0722222259796579,-0.00549778714776039,-0.0113010071218014,-0.0027488935738802
5,1.02500007039179,-0.0652777787193518,0.0736111117849297,-0.0033597587607801,-0.0125227374956012,-0.00671951752156019
5,1.02500007039179,-0.0680555564078778,0.0722222259796579,-0.0027488935738802,-0.0125227374956012,0.00183259579353034
5,1.02777785415829,-0.0694444482911319,0.0763888894734557,0.0027488935738802,-0.0113010071218014,-0.00427605677396059
5,1.02083339474202,-0.0694444482911319,0.0750000036681839,0.0167987942695618,-0.0250454749912024,-0.00855211354792118
5,1.02500007039179,-0.0750000036681839,0.0708333340964038,0.0149661982432008,-0.0198531206697226,-0.0140499006956816
5,1.0305556379248,-0.0722222259796579,0.0750000036681839,0.0204639863222837,-0.0198531206697226,-0.0125227374956012
5,1.02500007039179,-0.0750000036681839,0.0708333340964038,0.0207694191485643,-0.0213802829384804,-0.0314595587551594
5,1.01805561097552,-0.0666666706026059,0.0680555564078778,0.02382374368608,-0.0128281703218818,-0.0219911485910416
5,1.02222228662528,-0.0638888929140799,0.0736111117849297,0.0262672062963247,0.000610865245107561,-0.0103847095742822
5,1.02500007039179,-0.052777782159976,0.0750000036681839,0.015577063895762,0.00702495034784079,-0.00946841109544039
5,1.02638896227504,-0.052777782159976,0.0722222259796579,0.00549778714776039,0.0131336031481624,-0.0113010071218014
5,1.02222228662528,-0.0625000010308258,0.0763888894734557,0.0103847095742822,0.0106901414692402,-0.0161879286170006
5,1.02500007039179,-0.0611111152255539,0.0708333340964038,0.0113010071218014,0.011606439948082,-0.0128281703218818
5,1.02361117850853,-0.0611111152255539,0.0777777813567098,0.0100792767480016,0.013744467869401,-0.0180205255746841
5,1.02361117850853,-0.0611111152255539,0.0777777813567098,0.00427605677396059,0.00152716308366507,-0.00641408516094089
5,1.02222228662528,-0.0597222233422998,0.0652777787193518,0.0033597587607801,0.0146607663482428,0.0027488935738802
5,1.02222228662528,-0.055555559848502,0.0750000036681839,0.00610865233466029,0.0027488935738802,-0.00366519158706069
5,1.02222228662528,-0.0583333375370279,0.0722222259796579,0.0140499006956816,-0.00152716308366507,0.00702495034784079
5,1.02361117850853,-0.0638888929140799,0.0722222259796579,0.0143553335219622,-0.000610865245107561,0.0134390350431204
5,1.02361117850853,-0.0666666706026059,0.0763888894734557,0.0164933614432812,-0.000610865245107561,0.01191187184304
5,1.02638896227504,-0.0638888929140799,0.0708333340964038,0.027488935738802,-0.00671951752156019,0.0171042270958424
5,1.03194452980806,-0.0638888929140799,0.0777777813567098,0.0232128798961639,-0.00152716308366507,0.01191187184304
5,1.02500007039179,-0.0625000010308258,0.0763888894734557,0.021685715764761,-0.00916297826915979,0.00427605677396059
5,1.02222228662528,-0.0583333375370279,0.0777777813567098,0.0161879286170006,-0.01191187184304,0.00885754637420177
5,1.02500007039179,-0.0569444456537738,0.0805555590452358,0.0177150927484035,-0.00610865233466029,0.0128281703218818
5,1.02638896227504,-0.0541666679652478,0.0791666671619817,0.0161879286170006,-0.00122173049021512,0.0122173046693206
5,1.01944450285877,-0.0583333375370279,0.0750000036681839,0.0131336031481624,-0.0033597587607801,-0.0033597587607801
5,1.02500007039179,-0.0680555564078778,0.0722222259796579,0.00305432616733015,-0.00519235478714108,-0.00488692196086049
5,1.02777785415829,-0.0680555564078778,0.0722222259796579,0.00366519158706069,0.00702495034784079,-0.000610865245107561
5,1.02777785415829,-0.0652777787193518,0.0694444482911319,0.00610865233466029,0.00946841109544039,0.00305432616733015
5,1.02500007039179,-0.0625000010308258,0.0694444482911319,0.00671951752156019,0.00671951752156019,0.0027488935738802
5,1.02500007039179,-0.0694444482911319,0.0708333340964038,0.00427605677396059,0.00427605677396059,-0.00366519158706069
5,1.01944450285877,-0.0694444482911319,0.0652777787193518,-0.00152716308366507,-0.000305432622553781,0.00824668072164059
5,1.02500007039179,-0.0708333340964038,0.0680555564078778,0.00366519158706069,0.00824668072164059,0.00549778714776039
5,1.02222228662528,-0.0750000036681839,0.0652777787193518,0.0183259565383196,-0.000305432622553781,0.00549778714776039
5,1.02361117850853,-0.0763888894734557,0.0708333340964038,0.0164933614432812,-0.00183259579353034,0.0033597587607801
5,1.02361117850853,-0.0666666706026059,0.0680555564078778,0.02382374368608,-0.0122173046693206,0.00763581553474069
5,1.02222228662528,-0.0625000010308258,0.0888888921108138,0.029626963660121,-0.00610865233466029,0.00702495034784079
5,1.02777785415829,-0.0694444482911319,0.0722222259796579,0.0299323964864016,0.0021380283869803,0.00305432616733015
5,1.02361117850853,-0.0722222259796579,0.0625000010308258,0.0192422550171614,-0.01191187184304,0.00916297826915979
5,1.02777785415829,-0.0680555564078778,0.0666666706026059,0.0113010071218014,0.000305432622553781,0.00702495034784079
5,1.02222228662528,-0.0652777787193518,0.0694444482911319,0.00977384392172098,-0.00641408516094089,0.0021380283869803
5,1.02500007039179,-0.0652777787193518,0.0750000036681839,-0.00244346098043024,0.00244346098043024,-0.0021380283869803
5,1.02500007039179,-0.0625000010308258,0.0763888894734557,-0.000610865245107561,-0.00885754637420177,0.0021380283869803
5,1.01944450285877,-0.0652777787193518,0.0763888894734557,-0.0033597587607801,-0.0100792767480016,0.0045814891345799
5,1.01944450285877,-0.0652777787193518,0.0694444482911319,-0.00427605677396059,-0.00671951752156019,0.00244346098043024
5,1.02500007039179,-0.0666666706026059,0.0722222259796579,-0.00702495034784079,-0.0143553335219622,0.00824668072164059
5,1.02638896227504,-0.0680555564078778,0.0736111117849297,-0.00671951752156019,-0.00763581553474069,0.00305432616733015
5,1.02638896227504,-0.0666666706026059,0.0722222259796579,0.0033597587607801,-0.0140499006956816,0.00549778714776039
5,1.02500007039179,-0.0666666706026059,0.0680555564078778,0.00488692196086049,-0.0125227374956012,0.0021380283869803
5,1.02222228662528,-0.0625000010308258,0.0694444482911319,0.0109955742955208,-0.00733038317412138,0.00580321997404099
5,1.02500007039179,-0.0597222233422998,0.0722222259796579,0.00549778714776039,-0.013744467869401,0.00427605677396059
5,1.02638896227504,-0.0625000010308258,0.0652777787193518,0.00580321997404099,-0.0149661982432008,0.00916297826915979
5,1.02222228662528,-0.0611111152255539,0.0708333340964038,-0.00427605677396059,-0.00671951752156019,0.00549778714776039
5,1.02361117850853,-0.0625000010308258,0.0694444482911319,-0.00549778714776039,-0.00152716308366507,0.00397062394768
5,1.02500007039179,-0.0652777787193518,0.0638888929140799,-0.0033597587607801,0.00488692196086049,0.0122173046693206
5,1.02500007039179,-0.0708333340964038,0.0722222259796579,0.000916297896765172,0.00427605677396059,0.00549778714776039
5,1.02222228662528,-0.0722222259796579,0.0708333340964038,0.0027488935738802,0.011606439948082,0.000916297896765172
5,1.02361117850853,-0.0652777787193518,0.0722222259796579,0.00397062394768,0.0106901414692402,0.00580321997404099
5,1.01944450285877,-0.0680555564078778,0.0708333340964038,0.00610865233466029,0.0021380283869803,0.00488692196086049
5,1.02083339474202,-0.0680555564078778,0.0694444482911319,0.00519235478714108,0.00702495034784079,-0.00122173049021512
5,1.02083339474202,-0.0680555564078778,0.0638888929140799,0.00183259579353034,0.0109955742955208,0.0033597587607801
5,1.02222228662528,-0.0638888929140799,0.0750000036681839,0.0027488935738802,0.0045814891345799,0.00366519158706069
5,1.02500007039179,-0.0680555564078778,0.0694444482911319,0.0106901414692402,0.0125227374956012,0.00366519158706069
5,1.02500007039179,-0.0652777787193518,0.0680555564078778,0.0161879286170006,0.00610865233466029,0.00794124789535999
5,1.02500007039179,-0.0652777787193518,0.0680555564078778,0.013744467869401,0.0106901414692402,0.00855211354792118
5,1.02361117850853,-0.0625000010308258,0.0763888894734557,0.0125227374956012,0.0143553335219622,0.00610865233466029
5,1.02777785415829,-0.0666666706026059,0.0666666706026059,0.00763581553474069,0.00152716308366507,0.00641408516094089
5,1.02777785415829,-0.0666666706026059,0.0666666706026059,0.00671951752156019,0.00519235478714108,0.0152716310694814
5,1.02500007039179,-0.0694444482911319,0.0722222259796579,0.0161879286170006,0.000916297896765172,0.00702495034784079
5,1.02638896227504,-0.0694444482911319,0.0680555564078778,0.0125227374956012,0.00916297826915979,0.00427605677396059
5,1.02638896227504,-0.0694444482911319,0.0680555564078778,0.000916297896765172,0.00671951752156019,0.000610865245107561
5,1.02777785415829,-0.0680555564078778,0.0694444482911319,0.00824668072164059,0.00702495034784079,0.011606439948082
5,1.02083339474202,-0.0625000010308258,0.0625000010308258,0.0128281703218818,0.0021380283869803,0.0143553335219622
5,1.02361117850853,-0.0638888929140799,0.0708333340964038,0.00397062394768,0.000916297896765172,0.00885754637420177
5,1.02083339474202,-0.0680555564078778,0.0652777787193518,-0.000916297896765172,-0.00122173049021512,0.00244346098043024
5,1.02500007039179,-0.0680555564078778,0.0625000010308258,0.00824668072164059,0.00366519158706069,0.00366519158706069
5,1.02222228662528,-0.0652777787193518,0.0625000010308258,0.000916297896765172,-0.000916297896765172,0.0045814891345799
5,1.02500007039179,-0.0652777787193518,0.0694444482911319,0.0045814891345799,-0.0021380283869803,0.00519235478714108
5,1.02638896227504,-0.0652777787193518,0.0722222259796579,0.00305432616733015,-0.0021380283869803,0.00763581553474069
5,1.02361117850853,-0.0666666706026059,0.0680555564078778,0.00305432616733015,-0.000610865245107561,0.00152716308366507
5,1.02222228662528,-0.0666666706026059,0.0722222259796579,0.000305432622553781,-0.00183259579353034,0.00549778714776039
5,1.02361117850853,-0.0680555564078778,0.0611111152255539,-0.00366519158706069,0.00671951752156019,0.00519235478714108
5,1.02083339474202,-0.0652777787193518,0.0652777787193518,-0.00122173049021512,0.00519235478714108,0.00244346098043024
5,1.02222228662528,-0.0680555564078778,0.0680555564078778,-0.00794124789535999,-0.00305432616733015,0.00397062394768
