Activity,acc_x,acc_y,acc_z,gyro_x,gyro_y,gyro_z
0,0.362500003547597,-0.03194444645704,0.940277860008718,-0.0045814891345799,-0.153021737933159,0.355218142271042
0,0.368055571080613,-0.03194444645704,0.876388930626744,-0.0161879286170006,-0.183870434761047,0.358577907085419
0,0.368055571080613,-0.03194444645704,0.855555552377932,0.0247400421649218,-0.146302223205566,0.341168224811554
0,0.375000006184955,-0.0208333341834404,0.866666687443965,0.0675006061792374,-0.0849102661013603,0.310014098882675
0,0.393055576355329,-0.0208333341834404,0.899999995394348,0.0882700309157372,-0.0241291765123606,0.258090555667877
0,0.394444468238583,-0.026388891079988,0.906944454810619,0.120951317250729,-0.027488935738802,0.218078896403313
0,0.394444468238583,-0.026388891079988,0.906944454810619,0.163101017475128,-0.0219911485910416,0.216246291995048
0,0.400000011459671,-0.0236111118719664,0.899999995394348,0.220827788114548,-0.0513126812875271,0.207999616861343
0,0.400000011459671,-0.0194444453391775,0.902777779160856,0.220827788114548,-0.0629191175103188,0.194255143404007
0,0.394444468238583,0.00833333382532574,0.922222265526414,0.177150920033455,-0.0308486949652433,0.168293371796608
0,0.397222227693163,0.00555555575692586,0.934722292475701,0.146607652306557,0.00977384392172098,0.116980694234371
0,0.415277797863537,0.00277777787846293,0.931944508709193,0.168293371796608,0.0733038261532784,0.0766635909676552
0,0.416666689746791,-0.00694444498106275,0.904166671044111,0.158824965357781,0.0959058403968811,0.0455094613134861
0,0.418055581630046,-0.0180555564949145,0.890277849459286,0.0925460830330849,0.0311541277915239,0.0565050356090069
0,0.413888905980283,-0.0194444453391775,0.887500065692777,0.0482583530247212,0.00824668072164059,0.0616973899304867
0,0.413888905980283,-0.0194444453391775,0.887500065692777,0.0277943685650826,-0.0479529201984406,0.0733038261532784
0,0.413888905980283,-0.0138888899621255,0.93750007624221,0.0164933614432812,-0.0134390350431204,0.0546724386513233
0,0.422222257279808,-0.0152777788063885,0.954166681593543,0.0565050356090069,0.058643065392971,0.0149661982432008
0,0.422222257279808,-0.0152777788063885,0.954166681593543,0.0479529201984406,0.019547687843442,0.0222965814173222
0,0.420833365396554,-0.0125000003581147,0.956944465360051,0.0650571510195732,0.0244346093386412,0.021685715764761
0,0.411111122213775,0.00277777787846293,0.93750007624221,0.122783914208412,0.0678060427308083,0.00702495034784079
0,0.411111122213775,0.00277777787846293,0.93750007624221,0.121867619454861,0.0488692186772823,0.00702495034784079
0,0.406944470875941,0.00277777787846293,0.916666697993398,0.141720741987228,0.029626963660121,0.0277943685650826
0,0.412500014097029,0.0152777788063885,0.911111130460381,0.153632611036301,0.0436768643558025,0.0171042270958424
0,0.412500014097029,0.0152777788063885,0.911111130460381,0.100792765617371,0.0348193198442459,0.021685715764761
0,0.413888905980283,0.0152777788063885,0.916666697993398,0.0357356183230877,-0.0354301854968071,0.0467311926186085
0,0.406944470875941,0.00972222266958873,0.913888914226889,-0.00427605677396059,-0.0458148941397667,0.0653625801205635
0,0.397222227693163,0.00555555575692586,0.923611157409668,-0.0201585534960032,-0.00244346098043024,0.0763581544160843
0,0.394444468238583,0.00694444498106275,0.913888914226889,-0.0400116741657257,-0.00824668072164059,0.0836885422468185
0,0.393055576355329,0.00555555575692586,0.909722238577127,-0.0671951770782471,-0.00641408516094089,0.0913243517279625
0,0.398611119576417,0.00972222266958873,0.89722221162784,-0.11087204515934,-0.000610865245107561,0.0901026204228401
0,0.391666684472075,0.00972222266958873,0.894444525109048,-0.129808858036995,-0.0265726372599602,0.0937678143382072
0,0.397222227693163,-0.00555555575692586,0.919444481759906,-0.146607652306557,-0.015577063895762,0.0671951770782471
0,0.394444468238583,-0.00555555575692586,0.925000049292922,-0.113315500319004,0.0345138870179653,0.0500909499824047
0,0.386111116939059,-0.00416666691266287,0.913888914226889,-0.0794124826788902,0.0366519130766392,0.0308486949652433
0,0.387500008822313,-0.0152777788063885,0.926388941176177,-0.0335975885391235,0.0226020142436027,0.0128281703218818
0,0.395833335809908,-0.0194444453391775,0.936111184358955,0.00427605677396059,0.00702495034784079,0.0256563406437635
0,0.402777795226179,-0.0152777788063885,0.926388941176177,0.0616973899304867,0.0384845100343227,0.0259617734700441
0,0.390277792588821,-0.0125000003581147,0.925000049292922,0.125532805919647,0.0357356183230877,0.0250454749912024
0,0.390277792588821,-0.00138888893923146,0.919444481759906,0.104763388633728,0.00977384392172098,0.02382374368608
0,0.372222246730376,0.00277777787846293,0.913888914226889,0.0479529201984406,-0.0461203269660473,0.0482583530247212
0,0.361111135976272,0.0125000003581147,0.901388887277602,-0.0372627787292004,-0.0729983970522881,0.078801617026329
0,0.368055571080613,0.0111111115138517,0.916666697993398,-0.04764748737216,-0.00488692196086049,0.0604756586253643
0,0.370833354847121,0.00972222266958873,0.919444481759906,-0.0427605658769607,0.0500909499824047,0.0418442711234093
0,0.404166687109433,-0.00972222266958873,0.912500022343635,-0.0864374339580536,0.00763581553474069,0.0543670058250427
0,0.411111122213775,-0.0152777788063885,0.92083337364316,-0.0833831056952477,-0.0794124826788902,0.0736092627048492
0,0.416666689746791,-0.0111111115138517,0.922222265526414,-0.0125227374956012,-0.0384845100343227,0.0632245540618896
0,0.424999992422458,-0.0194444453391775,0.94305554652751,0.0577267669141293,0.00183259579353034,0.0598647929728031
0,0.426388884305712,-0.0208333341834404,0.947222222177272,0.0916297882795334,0.0247400421649218,0.0354301854968071
0,0.427777776188966,-0.0236111118719664,0.944444438410764,0.0971275717020035,0.0534507073462009,0.0152716310694814
0,0.420833365396554,-0.0194444453391775,0.938888968125464,0.119424156844616,0.0442877300083637,0.00702495034784079
0,0.4194444735133,-0.0222222230277034,0.941666654644256,0.0998764708638191,0.0287106670439243,0.0247400421649218
0,0.409722230330521,-0.027777779924251,0.936111184358955,0.0241291765123606,-0.0280998013913631,0.0601702257990837
0,0.411111122213775,-0.0208333341834404,0.951388897827035,-0.0488692186772823,-0.10048733651638,0.0503963828086853
0,0.413888905980283,-0.0194444453391775,0.962500032893068,-0.102319926023483,-0.17470745742321,0.0757472887635231
0,0.400000011459671,-0.0152777788063885,0.965277816659576,-0.123089343309402,-0.165849909186363,0.0693332031369209
0,0.369444462963867,0.029166668768514,0.979166735492117,-0.194255143404007,-0.0448985956609249,-0.0992656052112579
0,0.325000019947452,0.0388888906783549,0.977777843608863,-0.0940732508897781,0.0445931628346443,-0.295047909021378
0,0.284722228268869,0.0388888906783549,0.959722249126559,0.103541657328606,0.133474051952362,-0.44348818063736
0,0.305555557893823,-0.0486111125881959,0.901388887277602,0.239153742790222,0.120035022497177,-0.462119549512863
0,0.354166676560001,-0.0708333340964038,0.854166660494678,0.318260788917542,-0.0345138870179653,-0.323147714138031
0,0.387500008822313,-0.0652777787193518,0.838888947026599,0.324369430541992,-0.120951317250729,-0.159435823559761
0,0.422222257279808,-0.0416666683668809,0.840277838909853,0.302378296852112,-0.251371055841446,-0.0146607663482428
0,0.466666700296224,-0.0250000007162294,0.86805557932722,0.233350530266762,-0.320093393325806,0.144775062799454
0,0.49444444071359,-0.0111111115138517,0.884722281926269,0.162795588374138,-0.363159388303757,0.235488548874855
0,0.502777792013115,-0.0111111115138517,0.890277849459286,0.0879645943641663,-0.504574716091156,0.316428184509277
0,0.512500035195893,0.029166668768514,0.915277806110144,0.0106901414692402,-0.506407260894775,0.331394404172897
0,0.512500035195893,0.0430555572111439,0.930555616825939,-0.0299323964864016,-0.336892187595367,0.297491371631622
0,0.502777792013115,0.0569444456537738,0.926388941176177,-0.0519235469400883,-0.0772744566202164,0.219606056809425
0,0.484722246154669,0.0625000010308258,0.929166724942685,-0.0574213340878487,0.081855945289135,0.146302223205566
0,0.458333348996699,0.0486111125881959,0.923611157409668,-0.0247400421649218,0.103541657328606,0.0293215326964855
0,0.427777776188966,0.0347222241455659,0.906944454810619,0.0284052342176437,0.11117747426033,0.02382374368608
0,0.413888905980283,0.0236111118719664,0.898611103511094,0.0873537287116051,0.132863193750381,0.00855211354792118
0,0.413888905980283,0.0236111118719664,0.898611103511094,0.0671951770782471,0.104763388633728,0.00397062394768
0,0.405555578992687,0.00416666691266287,0.904166671044111,0.013744467869401,0.00152716308366507,0.0177150927484035
0,0.411111122213775,0.00277777787846293,0.902777779160856,-0.017409659922123,0.01588249579072,0.0021380283869803
0,0.400000011459671,-0.00416666691266287,0.894444525109048,-0.0510072484612465,0.0482583530247212,0.00305432616733015
0,0.406944470875941,-0.0125000003581147,0.901388887277602,-0.0290160998702049,0.0403171069920063,0.00946841109544039
0,0.411111122213775,-0.0208333341834404,0.894444525109048,0.000305432622553781,0.0406225398182869,0.0146607663482428
0,0.415277797863537,-0.0152777788063885,0.890277849459286,0.0323758572340012,0.0299323964864016,0.0287106670439243
0,0.416666689746791,-0.0125000003581147,0.890277849459286,0.0552833043038845,0.0901026204228401,0.0152716310694814
0,0.420833365396554,-0.0111111115138517,0.894444525109048,0.0461203269660473,0.0781907513737679,0.0180205255746841
0,0.420833365396554,-0.0111111115138517,0.894444525109048,0.0485637858510017,0.101403631269932,0.00763581553474069
0,0.412500014097029,0.0166666676506515,0.89166674134254,0.0409279726445675,0.133168622851372,-0.0314595587551594
0,0.405555578992687,0.0208333341834404,0.893055633225794,0.0452040284872055,0.230601623654366,-0.115758962929249
0,0.405555578992687,0.0208333341834404,0.893055633225794,0.0830776765942574,0.26419922709465,-0.183870434761047
0,0.373611114301701,0.00833333382532574,0.904166671044111,0.155770644545555,0.22754730284214,-0.218078896403313
0,0.386111116939059,-0.00555555575692586,0.908333346693873,0.178067222237587,0.154243469238281,-0.171347707509995
0,0.386111116939059,-0.00555555575692586,0.908333346693873,0.0830776765942574,0.113010071218014,-0.0864374339580536
0,0.416666689746791,-0.0138888899621255,0.94305554652751,-0.0699440687894821,0.0125227374956012,0.00671951752156019
0,0.44861110581392,0.00555555575692586,0.973611167959101,-0.16951510310173,-0.0235183127224445,0.0543670058250427
0,0.44861110581392,0.00555555575692586,0.973611167959101,-0.164933621883392,-0.0226020142436027,0.081855945289135
0,0.459722240879953,0.0111111115138517,0.959722249126559,-0.180510684847832,-0.10048733651638,0.0638354197144508
0,0.463888916529715,0.029166668768514,0.96666670854283,-0.125838235020638,-0.0574213340878487,-0.000305432622553781
0,0.463888916529715,0.029166668768514,0.96666670854283,0.00946841109544039,0.0992656052112579,-0.122783914208412
0,0.433333343721983,0.0194444453391775,0.95000000594378,0.0882700309157372,0.120951317250729,-0.157908663153648
0,0.398611119576417,0.0111111115138517,0.915277806110144,0.0931569486856461,0.0907134860754013,-0.173791155219078
0,0.390277792588821,0.00138888893923146,0.904166671044111,0.111788339912891,0.107512280344963,-0.177150920033455
0,0.390277792588821,-0.00277777787846293,0.888888957576031,0.119729585945606,0.106595985591412,-0.108734011650086
0,0.397222227693163,-0.00972222266958873,0.884722281926269,0.070249505341053,0.01588249579072,-0.027488935738802
0,0.415277797863537,-0.00694444498106275,0.880555606276507,-0.0027488935738802,-0.0690277740359306,0.0488692186772823
0,0.412500014097029,-0.00416666691266287,0.898611103511094,-0.0867428630590439,-0.151800006628036,0.0775798857212067
0,0.418055581630046,-0.00277777787846293,0.93750007624221,-0.114231802523136,-0.208610475063324,0.102319926023483
0,0.427777776188966,-0.00277777787846293,0.947222222177272,-0.0971275717020035,-0.188146501779556,0.0977384373545647
0,0.418055581630046,0.00694444498106275,0.944444438410764,-0.0812450796365738,-0.124311074614525,0.0919352173805237
0,0.416666689746791,0.0208333341834404,0.934722292475701,-0.0247400421649218,-0.0210748501121998,0.0479529201984406
0,0.401388903342925,0.0208333341834404,0.899999995394348,0.0100792767480016,-0.0397062413394451,0.0167987942695618
0,0.393055576355329,0.0236111118719664,0.887500065692777,0.0311541277915239,-0.0363464802503586,0.00549778714776039
0,0.391666684472075,0.0250000007162294,0.901388887277602,0.0653625801205635,-0.0186313893646002,0.00580321997404099
0,0.391666684472075,0.0125000003581147,0.899999995394348,0.0623082555830479,0.0021380283869803,0.0149661982432008
0,0.397222227693163,0.0152777788063885,0.893055633225794,0.0546724386513233,0.0134390350431204,0.0229074470698834
0,0.394444468238583,0.0152777788063885,0.894444525109048,0.0507018156349659,0.0491746515035629,0.0397062413394451
0,0.398611119576417,0.0250000007162294,0.890277849459286,0.0219911485910416,0.0668897479772568,0.0308486949652433
0,0.404166687109433,0.027777779924251,0.898611103511094,0.019547687843442,0.0784961804747581,0.0326812900602817
0,0.404166687109433,0.0194444453391775,0.89722221162784,0.00152716308366507,0.0705549344420433,0.0439822971820831
0,0.402777795226179,0.0180555564949145,0.906944454810619,-0.0675006061792374,0.0326812900602817,0.0690277740359306
0,0.416666689746791,0.0194444453391775,0.919444481759906,-0.113620936870575,0.00885754637420177,0.0577267669141293
0,0.426388884305712,-0.00555555575692586,0.916666697993398,-0.0592539273202419,-0.00610865233466029,0.0549778714776039
0,0.423611149163062,-0.00833333382532574,0.926388941176177,-0.00183259579353034,0.0332921557128429,0.0491746515035629
0,0.416666689746791,-0.00833333382532574,0.933333400592447,-0.0189368221908808,0.0720821022987366,0.0675006061792374
0,0.411111122213775,0.00416666691266287,0.93750007624221,-0.0849102661013603,0.0549778714776039,0.0638354197144508
0,0.415277797863537,0.00555555575692586,0.931944508709193,-0.123089343309402,0.109650313854218,0.0354301854968071
0,0.422222257279808,-0.0111111115138517,0.923611157409668,-0.120951317250729,0.0943786799907684,0.0320704244077206
0,0.415277797863537,-0.0152777788063885,0.92083337364316,-0.104152522981167,0.0561996027827263,0.0287106670439243
0,0.405555578992687,-0.0194444453391775,0.916666697993398,-0.11117747426033,-0.00366519158706069,0.0616973899304867
0,0.393055576355329,-0.0222222230277034,0.906944454810619,-0.147218525409698,-0.141109868884087,0.0800233483314514
0,0.412500014097029,-0.0222222230277034,0.894444525109048,-0.16951510310173,0.0445931628346443,0.0565050356090069
0,0.411111122213775,-0.0222222230277034,0.890277849459286,-0.199447497725487,0.0678060427308083,0.0458148941397667
0,0.394444468238583,-0.0361111129898289,0.890277849459286,-0.198531210422516,0.0415388382971287,0.0045814891345799
0,0.406944470875941,-0.029166668768514,0.926388941176177,-0.201280102133751,0.112399205565453,-0.0302378293126821
0,0.361111135976272,-0.0194444453391775,0.947222222177272,-0.115758962929249,0.081855945289135,-0.00580321997404099
0,0.369444462963867,-0.0125000003581147,0.93750007624221,-0.0858265683054924,0.151189148426056,0.00671951752156019
0,0.387500008822313,-0.0208333341834404,0.904166671044111,-0.0687223374843597,0.17440202832222,-0.064446285367012
0,0.416666689746791,-0.0458333348996699,0.901388887277602,-0.0326812900602817,0.128281697630882,-0.136528387665749
0,0.398611119576417,-0.0597222233422998,0.923611157409668,0.0406225398182869,0.0513126812875271,-0.0879645943641663
0,0.391666684472075,-0.0458333348996699,0.95000000594378,0.145691365003586,0.10567969083786,-0.0723875313997269
0,0.401388903342925,-0.0347222241455659,0.954166681593543,0.155770644545555,0.0149661982432008,-0.0888808965682983
0,0.405555578992687,-0.029166668768514,0.93750007624221,0.136833816766739,-0.0601702257990837,-0.0861319974064827
0,0.416666689746791,-0.033333335301303,0.923611157409668,0.115453533828259,-0.0473420582711697,-0.0977384373545647
0,0.441666695021508,-0.0458333348996699,0.923611157409668,0.156381502747536,-0.0256563406437635,-0.098960168659687
0,0.468055592179478,-0.0583333375370279,0.92083337364316,0.17409659922123,-0.00244346098043024,-0.117896988987923
0,0.430555559955475,-0.0416666683668809,0.918055589876652,0.133168622851372,0.0146607663482428,-0.0974330082535744
0,0.394444468238583,-0.0361111129898289,0.919444481759906,0.0763581544160843,0.0033597587607801,-0.0763581544160843
0,0.386111116939059,-0.0138888899621255,0.940277860008718,0.0620028227567673,-0.0280998013913631,-0.0452040284872055
0,0.387500008822313,-0.0125000003581147,0.952777789710289,0.0555887371301651,-0.0400116741657257,-0.0629191175103188
0,0.384722225055805,-0.0125000003581147,0.948611114060526,0.0693332031369209,0.021685715764761,-0.0855211317539215
0,0.386111116939059,-0.0125000003581147,0.933333400592447,0.0812450796365738,-0.00916297826915979,-0.106290549039841
0,0.387500008822313,0.00277777787846293,0.923611157409668,0.0497855171561241,-0.0290160998702049,-0.108734011650086
0,0.386111116939059,0.00277777787846293,0.923611157409668,0.0940732508897781,0.013744467869401,-0.131336033344269
0,0.384722225055805,-0.00555555575692586,0.918055589876652,0.142942473292351,0.0268780700862408,-0.12705996632576
0,0.397222227693163,-0.00277777787846293,0.923611157409668,0.141720741987228,-0.064446285367012,-0.118507854640484
0,0.404166687109433,-0.00277777787846293,0.92083337364316,0.058643065392971,-0.145691365003586,-0.0946841165423393
0,0.393055576355329,0.00555555575692586,0.923611157409668,0.02382374368608,-0.131336033344269,-0.0736092627048492
0,0.393055576355329,0.0194444453391775,0.930555616825939,-0.0192422550171614,-0.0635299831628799,-0.0791070461273193
0,0.393055576355329,0.0194444453391775,0.930555616825939,-0.0314595587551594,-0.0213802829384804,-0.0723875313997269
0,0.388888900705567,0.0138888899621255,0.915277806110144,-0.0378736443817616,-0.0109955742955208,-0.0555887371301651
0,0.387500008822313,0.0125000003581147,0.909722238577127,-0.11636982858181,-0.0849102661013603,-0.0320704244077206
0,0.384722225055805,0.0125000003581147,0.906944454810619,-0.126449108123779,-0.124005645513535,0.0164933614432812
0,0.361111135976272,0.0194444453391775,0.862500011794203,-0.350942075252533,-0.0733038261532784,0.102625362575054
0,0.355555568443255,0.0194444453391775,0.888888957576031,-0.337197601795196,-0.147829383611679,0.155465200543404
0,0.368055571080613,0.0194444453391775,0.841666730793107,-0.588263213634491,-0.49235737323761,0.19578230381012
0,0.368055571080613,-0.00972222266958873,0.841666730793107,-0.81428337097168,-0.410806864500046,0.285274058580399
0,0.33750002258481,-0.00138888893923146,0.85138887672817,-0.814588785171509,-0.317955374717712,0.380874484777451
0,0.308333341660331,-0.027777779924251,0.908333346693873,-0.707992792129517,-0.220827788114548,0.536034226417542
0,0.405555578992687,-0.0416666683668809,0.898611103511094,-0.592539310455322,-0.135917514562607,0.48685958981514
0,0.405555578992687,-0.0416666683668809,0.898611103511094,-0.637437880039215,-0.318871647119522,0.352163821458816
0,0.334722238818301,-0.0652777787193518,0.933333400592447,-0.379347324371338,-0.188146501779556,0.635299861431122
0,0.334722238818301,-0.0652777787193518,0.933333400592447,-0.201280102133751,0.01191187184304,0.773966252803802
0,0.334722238818301,-0.0513888902767219,0.818055568777787,-0.199142068624496,-0.133168622851372,0.928515195846558
0,0.466666700296224,-0.105555564319952,0.806944482335612,-0.234877690672875,-0.288022965192795,0.909272909164429
0,0.577777807837263,-0.18333333959868,0.894444525109048,-0.144469633698463,0.0763581544160843,0.455400049686432
0,0.559722261978817,-0.223611131277262,0.956944465360051,0.259923160076141,0.340557366609573,0.134695783257484
0,0.483333354271415,-0.241666677135707,1.00555558402623,0.478307485580444,0.428216546773911,0.000610865245107561
0,0.466666700296224,-0.231944458264858,0.870833363093728,0.399200439453125,1.41170954704285,-0.162795588374138
0,0.441666695021508,-0.180555567988136,0.894444525109048,0.321620553731918,2.25806331634521,-0.426994800567627
0,0.441666695021508,-0.180555567988136,0.894444525109048,0.037568211555481,2.49141383171081,-0.946535706520081
0,0.408333338447267,-0.152777778946911,0.849999984844916,0.500909507274628,1.07665002346039,-0.0971275717020035
0,0.347222241455659,-0.0388888906783549,0.793055563503071,0.0149661982432008,-0.192727982997894,1.19057631492615
0,0.384722225055805,-0.0513888902767219,0.836111163260091,-1.06412720680237,0.196698606014252,1.76356792449951
0,0.433333343721983,-0.12777778582816,0.934722292475701,-1.27151596546173,0.879951357841492,1.78097760677338
0,0.373611114301701,-0.170833336961321,0.98888888142718,-1.2467759847641,1.00731682777405,1.94591128826141
0,0.338888890156135,-0.216666671860991,0.986111194908388,-1.20432078838348,0.837190806865692,1.92911243438721
0,0.326388911830706,-0.238888893369199,0.94305554652751,-1.11024761199951,0.583070874214172,1.92727982997894
0,0.288888903918631,-0.277777793164528,0.894444525109048,-0.975857257843018,0.29107728600502,1.99997282028198
0,0.229166674498349,-0.312500017310094,0.855555552377932,-0.821919202804565,-0.134390354156494,2.00760865211487
0,0.154166670830166,-0.316666668647927,0.836111163260091,-0.66737025976181,-0.436157792806625,1.92300379276276
0,0.12916666555545,-0.316666668647927,0.859722228027695,-0.474947720766068,-0.318566232919693,1.64444923400879
0,0.12777778582816,-0.322222236180943,0.873611146860236,-0.226325571537018,-0.334143280982971,1.34817957878113
0,0.120833338567854,-0.334722238818301,0.899999995394348,0.0467311926186085,-0.824973523616791,1.26204764842987
0,0.148611115453114,-0.355555568443255,0.930555616825939,0.263588339090347,-1.02197754383087,1.33535146713257
0,0.13750000469901,-0.345833349572405,0.956944465360051,0.214719131588936,-0.971275746822357,1.28984200954437
0,0.12777778582816,-0.325000019947452,0.99583334084345,0.00610865233466029,-0.924849987030029,1.1389582157135
0,0.163888889701015,-0.308333341660331,0.983333411141879,-0.298102229833603,-0.543975472450256,0.806647539138794
0,0.195833342236038,-0.320833344297689,0.962500032893068,-0.575129628181458,-0.135001212358475,0.470060795545578
0,0.20972223675665,-0.327777779402031,0.95000000594378,-0.731816589832306,-0.212275668978691,0.3378084897995
0,0.200000005729836,-0.362500003547597,0.93750007624221,-0.915381550788879,-0.503658413887024,0.448680520057678
0,0.152777778946911,-0.345833349572405,0.940277860008718,-0.974940955638885,-1.08642387390137,0.618195652961731
0,0.220833347510754,-0.412500014097029,0.898611103511094,-1.10994219779968,-1.45966255664825,0.421802461147308
0,0.243055569018962,-0.430555559955475,0.886111173809523,-1.17225039005279,-1.38513696193695,0.318871647119522
0,0.266666682410424,-0.456944457113445,0.86805557932722,-1.08611845970154,-1.00212442874908,0.279776275157929
0,0.305555557893823,-0.495833332596844,0.823611136310804,-0.822530031204224,-0.632856369018555,0.178067222237587
0,0.311111125426839,-0.525000013521323,0.795833347269579,-0.472809702157974,-0.26969701051712,0.0971275717020035
0,0.281944444502361,-0.551388910679293,0.804166698569104,0.0751364231109619,0.100181899964809,0.156992360949516
0,0.25555557165632,-0.555555586329055,0.80277780668585,0.415388375520706,0.021685715764761,0.220827788114548
0,0.265277790527169,-0.556944478212309,0.812500049868629,0.539394021034241,-0.100792765617371,0.392175495624542
0,0.29166668768514,-0.572222240304247,0.82916670384382,0.432492583990097,-0.0409279726445675,0.400422155857086
0,0.298611122789481,-0.581944483487025,0.840277838909853,0.268780708312988,0.123700208961964,0.429132848978043
0,0.283333336385615,-0.559722261978817,0.801388914802596,-0.0650571510195732,0.01191187184304,0.545197248458862
0,0.281944444502361,-0.545833343146276,0.787500044593913,-0.349109500646591,-0.616057574748993,0.636521577835083
0,0.281944444502361,-0.534722256704101,0.747222228603401,-0.584903478622437,-0.878424227237701,0.701578736305237
0,0.298611122789481,-0.594444461812454,0.75000001236991,-0.754418551921844,-1.24647057056427,0.66126161813736
0,0.297222230906227,-0.5930555699292,0.747222228603401,-1.02442097663879,-1.72630512714386,0.547946095466614
0,0.288888903918631,-0.562499997121468,0.77638890952788,-0.972802877426147,-1.21470558643341,0.432187169790268
0,0.279166685047782,-0.618055575203916,0.788888936477167,-0.66737025976181,-0.582459986209869,0.228769034147263
0,0.259722222994153,-0.637500012945616,0.762500039319197,-0.341473668813705,-0.691499471664429,-0.182343274354935
0,0.250000004123303,-0.606944488761742,0.731944466511464,-0.365908294916153,-0.726624190807343,-0.235793977975845
0,0.29166668768514,-0.625000034620187,0.709722245003256,-0.550084173679352,-0.663399636745453,-0.300240278244019
0,0.308333341660331,-0.625000034620187,0.679166672195524,-0.696386396884918,-0.707687377929688,-0.304821759462357
0,0.344444457689151,-0.645833364245141,0.680555564078778,-0.552222192287445,-0.658512711524963,-0.0146607663482428
0,0.368055571080613,-0.683333347845286,0.668055585753349,-0.426078498363495,-0.603534877300262,0.152105450630188
0,0.348611133338914,-0.669444477636603,0.676388937052873,-0.470060795545578,-0.667981147766113,0.343611687421799
0,0.341666673922643,-0.659722234453824,0.66527780198684,-0.733343720436096,-0.80328780412674,0.392786353826523
0,0.377777789951463,-0.681944455962032,0.643055580478633,-0.999375522136688,-0.751364231109619,0.131946891546249
0,0.413888905980283,-0.697222266677827,0.61944446708717,-1.17499935626984,-0.448680520057678,-0.24312436580658
0,0.4194444735133,-0.693055591028065,0.58333337537028,-1.21134579181671,-0.553138494491577,-0.579100251197815
0,0.426388884305712,-0.700000001820477,0.545833343146276,-1.17438840866089,-0.836885392665863,-0.607810914516449
0,0.426388884305712,-0.700000001820477,0.545833343146276,-1.2134838104248,-0.735481739044189,-0.516486585140228
0,0.327777779402031,-0.644444472361887,0.47500000297189,-1.13071155548096,-0.537866830825806,-0.461203247308731
0,0.530555581054339,-0.781944477060896,0.433333343721983,-0.778242349624634,-0.454178303480148,-0.683863639831543
0,0.530555581054339,-0.781944477060896,0.433333343721983,-0.761138081550598,-0.739146947860718,-1.00242984294891
0,0.490277813687686,-0.804166698569104,0.409722230330521,-0.850018978118896,-1.51708388328552,-0.859487414360046
0,0.515277818962402,-0.837500055143345,0.413888905980283,-0.89949905872345,-1.77181458473206,-0.93554013967514
0,0.561111153862072,-0.861111119910949,0.411111122213775,-0.890030682086945,-1.13223874568939,-1.2779301404953
0,0.605555596878487,-0.854166660494678,0.375000006184955,-0.989907145500183,-0.633161842823029,-1.2834278345108
0,0.659722234453824,-0.869444471210474,0.318055560531181,-1.30725157260895,-0.503658413887024,-1.21775984764099
0,0.676388937052873,-0.827777811960566,0.258333331110899,-1.85703039169312,-0.551305890083313,-1.0656543970108
0,0.706944461236748,-0.825000028194058,0.223611131277262,-2.24309706687927,-0.615446746349335,-0.849713563919067
0,0.718055596302781,-0.801388914802596,0.206944452990142,-2.42818927764893,-0.594982743263245,-0.653014957904816
0,0.752777796136418,-0.84583340644287,0.176388892338373,-2.40436553955078,-0.86315256357193,-0.822530031204224
0,0.752777796136418,-0.84583340644287,0.176388892338373,-2.17162585258484,-1.24830317497253,-1.28464961051941
0,0.75000001236991,-0.866666687443965,0.206944452990142,-2.0234911441803,-1.05282628536224,-1.27029430866241
0,0.688888915378302,-0.736111142161226,0.1194444466846,-2.07969069480896,-0.897055625915527,-1.02716994285583
0,0.688888915378302,-0.736111142161226,0.1194444466846,-2.19178438186646,-0.974635481834412,-0.948062837123871
0,0.691666699144811,-0.681944455962032,0.111111119697004,-2.13925004005432,-0.711352586746216,-1.01556348800659
0,0.795833347269579,-0.680555564078778,0.0388888906783549,-2.08885359764099,-0.373849540948868,-1.02136671543121
0,0.795833347269579,-0.680555564078778,0.0388888906783549,-2.18139982223511,-0.358577907085419,-1.08275866508484
0,0.856944444261187,-0.663888910103586,-0.0486111125881959,-2.53875589370727,-0.935845553874969,-1.48928952217102
0,0.869444471210474,-0.644444472361887,-0.0916666697993398,-2.6768114566803,-1.16278195381165,-1.91506254673004
0,0.841666730793107,-0.623611142736933,-0.134722233088466,-2.75194787979126,-0.964250802993774,-1.80663394927978
0,0.812500049868629,-0.558333370095563,-0.184722231481934,-2.96605610847473,-0.823446333408356,-1.05465888977051
0,0.890277849459286,-0.518055554105052,-0.25555557165632,-3.12946271896362,-0.979827880859375,-0.728762209415436
0,0.931944508709193,-0.488888921804431,-0.297222230906227,-2.90252614021301,-1.0222829580307,-0.777020573616028
0,0.926388941176177,-0.545833343146276,-0.295833339022973,-1.91628432273865,-1.22600650787353,-1.03327858448029
0,0.858333336144441,-0.522222229754814,-0.295833339022973,-0.786489009857178,-1.42728662490845,-0.796568274497986
0,0.877777822509998,-0.495833332596844,-0.256944463539574,-0.378431022167206,-0.761138081550598,-0.413555771112442
0,0.940277860008718,-0.462500024646461,-0.195833342236038,-0.205250725150108,-0.633161842823029,-0.037568211555481
0,0.880555606276507,-0.416666689746791,-0.0583333375370279,0.0360410511493683,-0.481056392192841,0.529314756393433
0,0.808333374218867,-0.286111120152123,0.0125000003581147,0.294131606817245,0.488386750221252,0.749531626701355
0,0.837500055143345,-0.202777789496344,-0.0208333341834404,0.281608879566193,1.6734653711319,0.62338799238205
0,0.911111130460381,-0.168055565350778,-0.0972222251763917,-0.123394779860973,1.53479897975922,0.512515962123871
0,0.881944498159761,-0.168055565350778,-0.159722226207217,-0.52381694316864,0.679587602615356,0.333532422780991
0,0.872222254976982,-0.2194444556275,-0.187500003092477,-0.627664029598236,0.331088960170746,0.270918726921081
0,0.893055633225794,-0.277777793164528,-0.229166674498349,-0.606894612312317,0.644157409667969,0.264810085296631
0,0.890277849459286,-0.308333341660331,-0.350000000910239,-0.452651143074036,1.06657075881958,0.382401645183563
0,0.870833363093728,-0.283333336385615,-0.518055554105052,-0.24342979490757,0.312763005495071,0.444404453039169
0,0.858333336144441,-0.298611122789481,-0.605555596878487,0.157297804951668,-0.530536472797394,0.173180297017098
0,0.918055589876652,-0.295833339022973,-0.647222256128395,0.342084527015686,-0.473726004362106,-0.271529614925385
0,1.00555558402623,-0.348611133338914,-0.71111113688651,-0.0128281703218818,-0.66737025976181,-0.694248378276825
0,1.0125000434425,-0.393055576355329,-0.718055596302781,-0.257785141468048,-0.981355011463165,-0.666453957557678
0,1.02500007039179,-0.459722240879953,-0.698611158561081,-0.277332812547684,-0.884532868862152,-0.722959041595459
0,1.00277780025972,-0.454166673346937,-0.666666693870094,-0.118507854640484,-1.03083515167236,-0.754418551921844
0,0.963888924776322,-0.470833327322128,-0.6319444454126,-0.231823354959488,-1.3023647069931,-0.62002819776535
0,0.936111184358955,-0.50138890012986,-0.584722267253534,-0.335059583187103,-1.4367550611496,-0.440739274024963
0,0.909722238577127,-0.488888921804431,-0.561111153862072,-0.237015709280968,-1.38116633892059,-0.281608879566193
0,0.848611190209378,-0.408333338447267,-0.525000013521323,-0.209526777267456,-1.35886979103088,-0.261450320482254
0,0.827777811960566,-0.361111135976272,-0.515277818962402,-0.289550125598908,-1.203404545784,-0.42363503575325
0,0.858333336144441,-0.308333341660331,-0.529166689171085,-0.249843880534172,-0.971275746822357,-0.655763864517212
0,0.831944487610329,-0.300000014672736,-0.548611126912784,-0.112704634666443,-1.50883710384369,-0.782823801040649
0,0.741666709694243,-0.368055571080613,-0.498611116363352,0.0974330082535744,-1.5079208612442,-0.46547931432724
0,0.709722245003256,-0.376388898068209,-0.456944457113445,0.0949895456433296,-0.892168700695038,0.0320704244077206
0,0.686111131611794,-0.269444466176932,-0.462500024646461,0.0305432621389627,-0.19578230381012,0.350636661052704
0,0.713888920653019,-0.187500003092477,-0.518055554105052,0.0235183127224445,-0.164628177881241,-0.021685715764761
0,0.751388904253164,-0.216666671860991,-0.572222240304247,0.00763581553474069,-0.688445150852203,-0.263893783092499
0,0.713888920653019,-0.294444447139719,-0.536111148587356,0.254425376653671,-0.696386396884918,-0.0668897479772568
0,0.676388937052873,-0.320833344297689,-0.488888921804431,0.166766211390495,0.251676470041275,0.417526394128799
0,0.743055601577497,-0.412500014097029,-0.519444445988306,-0.351858377456665,0.4758640229702,0.426689386367798
0,0.787500044593913,-0.370833354847121,-0.572222240304247,-0.513432264328003,0.0800233483314514,0.186619326472282
0,0.751388904253164,-0.369444462963867,-0.572222240304247,-0.645990014076233,0.163101017475128,0.317344486713409
0,0.683333347845286,-0.33750002258481,-0.570833348420992,-0.34941491484642,0.151800006628036,0.435546934604645
0,0.747222228603401,-0.286111120152123,-0.652777823661411,-0.262061178684235,0.113926365971565,0.282525181770325
0,0.765277823085705,-0.237500001485945,-0.666666693870094,-0.212275668978691,0.101709060370922,0.0791070461273193
0,0.743055601577497,-0.248611112240049,-0.637500012945616,-0.0946841165423393,0.0485637858510017,-0.115758962929249
0,0.716666704419527,-0.218055563744246,-0.623611142736933,-0.0858265683054924,0.178983509540558,-0.733343720436096
0,0.725000007095193,-0.188888894975731,-0.634722229179108,-0.426689386367798,0.159435823559761,-0.988074541091919
0,0.769444450111609,-0.159722226207217,-0.627777818386695,-0.690888583660126,0.17409659922123,-0.884838283061981
0,0.763888931202451,-0.170833336961321,-0.626388926503441,-0.204028993844986,0.459370672702789,-0.62491512298584
0,0.769444450111609,-0.18333333959868,-0.643055580478633,0.258395999670029,0.281914323568344,-0.581238269805908
0,0.772222233878117,-0.18333333959868,-0.644444472361887,0.439517557621002,0.170431405305862,-0.389426589012146
0,0.738888925927735,-0.18333333959868,-0.629166710269949,0.795041143894196,0.307876080274582,0.226020142436027
0,0.841666730793107,-0.227777782615095,-0.61944446708717,0.300240278244019,0.758083760738373,0.757167458534241
0,0.861111119910949,-0.279166685047782,-0.604166704995233,-0.415388375520706,0.469755381345749,0.478002041578293
0,0.805555590452358,-0.295833339022973,-0.587500002396184,-0.251981914043427,0.276721954345703,0.133779495954514
0,0.790277828360421,-0.311111125426839,-0.569444456537738,0.0244346093386412,0.788627028465271,0.0769690200686455
0,0.865277795560711,-0.298611122789481,-0.625000034620187,0.500909507274628,0.943175911903381,-0.176234617829323
0,0.904166671044111,-0.288888903918631,-0.601388921228725,0.489913940429688,1.02991878986359,-0.464563012123108
0,0.85138887672817,-0.238888893369199,-0.541666667496514,0.553749322891235,1.26357471942902,-0.430660009384155
0,0.815277785011279,-0.161111118090472,-0.508333359546131,0.339946508407593,0.80298238992691,-0.406225383281708
0,0.791666671619817,-0.0944444474878658,-0.506944467662877,0.46547931432724,0.230601623654366,-0.614835858345032
0,0.745833336720147,-0.0680555564078778,-0.479166678621653,0.902553379535675,0.019547687843442,-1.20187735557556
0,0.747222228603401,-0.0944444474878658,-0.459722240879953,0.956920385360718,0.240680903196335,-1.12093770503998
0,0.805555590452358,-0.111111119697004,-0.466666700296224,0.952644348144531,0.88850349187851,-0.760832667350769
0,0.879166714393253,-0.177777784221628,-0.5930555699292,0.921184778213501,0.763886988162994,-0.467617332935333
0,0.976388951725609,-0.33750002258481,-0.515277818962402,0.401949346065521,-0.152716308832169,0.22724187374115
0,0.955555573476797,-0.311111125426839,-0.462500024646461,-0.0543670058250427,0.211970239877701,0.35491269826889
0,0.918055589876652,-0.281944444502361,-0.459722240879953,-0.242208063602448,0.24342979490757,0.0403171069920063
0,0.931944508709193,-0.277777793164528,-0.44861110581392,-0.295658767223358,0.131641462445259,-0.24312436580658
0,0.92083337364316,-0.325000019947452,-0.466666700296224,0.29107728600502,0.157908663153648,-0.200669229030609
0,0.954166681593543,-0.333333346935047,-0.463888916529715,0.58704149723053,0.0678060427308083,-0.00397062394768
0,0.929166724942685,-0.294444447139719,-0.440277803138253,0.193033412098885,0.0461203269660473,0.149051114916802
0,0.926388941176177,-0.265277790527169,-0.440277803138253,-0.0045814891345799,-0.00610865233466029,0.317649930715561
0,0.880555606276507,-0.254166679773066,-0.449999997697174,0.0177150927484035,-0.0109955742955208,0.170125976204872
0,0.837500055143345,-0.233333350148112,-0.447222262554524,-0.0503963828086853,-0.136528387665749,-0.0363464802503586
0,0.805555590452358,-0.218055563744246,-0.443055586904762,-0.192727982997894,-0.0421497002243996,-0.239153742790222
0,0.898611103511094,-0.216666671860991,-0.466666700296224,-0.431270867586136,0.0384845100343227,-0.450207680463791
0,0.970833384192592,-0.205555561106887,-0.488888921804431,-0.513737678527832,-0.0125227374956012,-0.302989155054092
0,0.906944454810619,-0.243055569018962,-0.473611111088636,-0.0125227374956012,-0.0467311926186085,-0.0314595587551594
0,0.876388930626744,-0.244444460902216,-0.463888916529715,0.102014496922493,-0.274278491735458,-0.117896988987923
0,0.841666730793107,-0.226388890731841,-0.44583337067127,-0.0552833043038845,-0.0473420582711697,-0.146302223205566
0,0.843055622676362,-0.197222234119292,-0.456944457113445,-0.201890960335732,0.106290549039841,-0.213802829384804
0,0.894444525109048,-0.18333333959868,-0.46527780841297,-0.0580321997404099,-0.104457959532738,-0.171042263507843
0,0.948611114060526,-0.163888889701015,-0.469444484062732,0.00549778714776039,0.00641408516094089,0.0134390350431204
0,0.948611114060526,-0.163888889701015,-0.469444484062732,0.0574213340878487,0.177150920033455,0.164322748780251
0,0.855555552377932,-0.223611131277262,-0.466666700296224,0.0339030213654041,-0.0397062413394451,-0.0959058403968811
0,0.865277795560711,-0.216666671860991,-0.452777781463682,-0.0167987942695618,-0.124005645513535,-0.367740869522095
0,0.865277795560711,-0.216666671860991,-0.452777781463682,-0.0803287774324417,-0.19578230381012,-0.536950528621674
0,0.968055600426084,-0.14722222356986,-0.49166670557094,-0.0488692186772823,0.0525344125926495,-0.336586743593216
0,0.89722221162784,-0.162500009973726,-0.481944462388161,0.159435823559761,0.322231411933899,-0.0849102661013603
0,0.89722221162784,-0.162500009973726,-0.481944462388161,0.0424551330506802,0.00580321997404099,-0.0919352173805237
0,0.841666730793107,-0.204166669223633,-0.459722240879953,-0.0726929605007172,0.0928515195846558,0.0302378293126821
0,0.863888903677457,-0.13750000469901,-0.459722240879953,-0.0897971913218498,0.10048733651638,0.0830776765942574
0,0.863888903677457,-0.13750000469901,-0.459722240879953,0.0290160998702049,0.20616702735424,0.0461203269660473
0,0.841666730793107,-0.141666668192807,-0.44861110581392,0.219300627708435,0.501214921474457,-0.210137650370598
0,0.869444471210474,-0.2194444556275,-0.411111122213775,0.0867428630590439,0.263282924890518,-0.438906669616699
0,0.869444471210474,-0.2194444556275,-0.411111122213775,-0.0946841165423393,0.316122770309448,-0.608727216720581
0,1.00972225967599,-0.2194444556275,-0.433333343721983,-0.0400116741657257,0.289855569601059,-0.350636661052704
0,1.05833337834217,-0.159722226207217,-0.49166670557094,0.0360410511493683,-0.16371189057827,-0.0461203269660473
0,1.01111115155925,-0.126388893944906,-0.476388894855144,0.0916297882795334,-0.218078896403313,0.0222965814173222
0,0.972222276075846,-0.125000002061652,-0.456944457113445,0.0809396430850029,-0.353996396064758,0.157908663153648
0,0.956944465360051,-0.12916666555545,-0.424999992422458,-0.0149661982432008,-0.508545339107513,-0.0027488935738802
0,1.00416669214298,-0.140277788465518,-0.440277803138253,-0.0329867228865623,-0.613614141941071,-0.0934623852372169
0,1.02500007039179,-0.14722222356986,-0.462500024646461,-0.0021380283869803,-0.740674138069153,0.112093769013882
0,0.986111194908388,-0.150000007336368,-0.433333343721983,0.0247400421649218,-0.545197248458862,0.292604446411133
0,0.923611157409668,-0.144444451959316,-0.401388903342925,0.0561996027827263,-0.81886488199234,0.21685716509819
0,0.93750007624221,-0.120833338567854,-0.436111127488491,-0.0415388382971287,-1.00976026058197,0.0555887371301651
0,0.98888888142718,-0.102777780553444,-0.476388894855144,-0.0235183127224445,-1.03205680847168,-0.149661988019943
0,0.894444525109048,-0.125000002061652,-0.502777792013115,0.260839462280273,-1.07329022884369,-0.127976268529892
0,0.911111130460381,-0.105555564319952,-0.433333343721983,0.13225232064724,0.446237057447434,0.443182736635208
0,0.947222222177272,-0.12777778582816,-0.387500008822313,-0.525649547576904,1.53510439395904,0.731205701828003
0,0.861111119910949,-0.108333335930496,-0.495833332596844,-0.695470094680786,-0.457232624292374,0.564744889736176
0,0.786111152710659,-0.13750000469901,-0.538888932353864,0.195476874709129,-0.897666454315186,0.0149661982432008
0,0.755555579902926,-0.187500003092477,-0.515277818962402,0.752280533313751,-0.564744889736176,-0.268475264310837
0,0.793055563503071,-0.24583335278547,-0.518055554105052,0.526871263980865,-0.310624986886978,-0.00305432616733015
0,0.865277795560711,-0.268055574293678,-0.513888927079148,0.266948103904724,0.215940862894058,0.630718350410461
0,0.906944454810619,-0.261111114877407,-0.522222229754814,0.379347324371338,0.162795588374138,0.806342124938965
0,0.887500065692777,-0.208333344873396,-0.548611126912784,0.56657749414444,-0.119729585945606,0.728456795215607
0,0.827777811960566,-0.20972223675665,-0.544444451263022,0.666759431362152,-0.254730820655823,0.449902266263962
0,0.779166693294388,-0.272222225631511,-0.500000008246606,0.464257597923279,-0.156076073646545,0.248011291027069
0,0.82916670384382,-0.315277801076602,-0.495833332596844,0.0629191175103188,-0.00244346098043024,0.252592772245407
0,0.873611146860236,-0.312500017310094,-0.469444484062732,-0.167987942695618,0.215940862894058,0.415999233722687
0,0.865277795560711,-0.275000009398019,-0.49444444071359,0.0540615729987621,0.208915919065475,0.546724379062653
0,0.861111119910949,-0.229166674498349,-0.500000008246606,0.215024560689926,0.373544096946716,0.57574051618576
0,0.869444471210474,-0.250000004123303,-0.480555570504907,0.266031801700592,0.308792382478714,0.674089789390564
0,0.884722281926269,-0.276388901281273,-0.49166670557094,0.757472932338715,0.236710280179977,0.937067270278931
0,0.981944519258625,-0.313888909193348,-0.477777786738398,0.786183595657349,0.189062789082527,1.34207093715668
0,1.00277780025972,-0.316666668647927,-0.493055597454194,0.841466903686523,0.408363401889801,1.67835223674774
0,0.979166735492117,-0.33750002258481,-0.497222224480098,1.0345002412796,0.29107728600502,1.68934786319733
0,0.844444514559616,-0.372222246730376,-0.488888921804431,0.998459219932556,-0.0589484944939613,1.111163854599
0,0.790277828360421,-0.441666695021508,-0.504166683896369,0.652098655700684,0.122173048555851,0.609338104724884
0,0.841666730793107,-0.459722240879953,-0.516666662221798,0.218384325504303,0.251981914043427,0.573907911777496
0,0.884722281926269,-0.487500029921177,-0.54722223502953,0.184175878763199,0.314595609903336,1.12735176086426
0,0.841666730793107,-0.476388894855144,-0.543055559379768,0.74159038066864,0.437684953212738,1.60810279846191
0,0.779166693294388,-0.430555559955475,-0.505555575779623,1.42423236370087,0.504880130290985,1.88207578659058
0,0.743055601577497,-0.416666689746791,-0.473611111088636,2.07144403457642,0.819170296192169,1.92330920696259
0,0.712500028769764,-0.458333348996699,-0.431944451838729,2.37534952163696,1.10749864578247,1.8924605846405
0,0.675000045169619,-0.513888927079148,-0.405555578992687,2.41933178901672,0.766330420970917,1.85428142547607
0,0.63888890482887,-0.565277780887976,-0.368055571080613,2.27638936042786,0.34880405664444,1.63925683498383
0,0.600000029345471,-0.591666678045946,-0.322222236180943,2.00608158111572,0.277943700551987,1.26113128662109
0,0.600000029345471,-0.609722223904392,-0.290277795801886,1.65666651725769,0.279776275157929,0.966694235801697
0,0.588888894279438,-0.683333347845286,-0.262500006760661,1.27365398406982,0.0974330082535744,0.724791586399078
0,0.58333337537028,-0.743055601577497,-0.234722242031366,0.943175911903381,-0.102930791676045,0.504880130290985
0,0.577777807837263,-0.786111152710659,-0.223611131277262,0.558330833911896,-0.288328409194946,0.15332718193531
0,0.548611126912784,-0.791666671619817,-0.198611113846581,0.363159388303757,-0.195171445608139,0.0131336031481624
0,0.548611126912784,-0.813888941751883,-0.193055558469529,0.267558991909027,-0.0516181141138077,-0.0647517144680023
0,0.544444451263022,-0.820833352544296,-0.190277786858986,0.282219737768173,-0.0381790772080422,-0.0858265683054924
0,0.561111153862072,-0.831944487610329,-0.194444450352783,0.301767438650131,-0.142637029290199,-0.0937678143382072
0,0.555555586329055,-0.834722271376837,-0.172222228844576,0.34330627322197,-0.202807262539864,-0.140804439783096
0,0.565277780887976,-0.831944487610329,-0.161111118090472,0.275805652141571,-0.356439858675003,-0.143247902393341
0,0.58333337537028,-0.858333336144441,-0.151388899219622,0.211970239877701,-0.167987942695618,-0.0626136884093285
0,0.594444461812454,-0.854166660494678,-0.151388899219622,0.219606056809425,0.0244346093386412,0.000916297896765172
0,0.604166704995233,-0.873611146860236,-0.138888896582264,0.327729195356369,0.0561996027827263,0.12156218290329
0,0.6125000076709,-0.895833319744586,-0.134722233088466,0.420275300741196,-0.0653625801205635,0.180816113948822
0,0.623611142736933,-0.909722238577127,-0.122222230451108,0.448069661855698,-0.04764748737216,0.23243422806263
0,0.620833358970425,-0.906944454810619,-0.12777778582816,0.352163821458816,-0.16951510310173,0.217468023300171
0,0.630555602153203,-0.890277849459286,-0.120833338567854,0.23273965716362,-0.121867619454861,0.0629191175103188
0,0.637500012945616,-0.883333390043015,-0.113888891307548,0.0219911485910416,-0.0720821022987366,0.0439822971820831
0,0.630555602153203,-0.887500065692777,-0.111111119697004,-0.0769690200686455,-0.0210748501121998,0.03176499158144
0,0.627777818386695,-0.872222254976982,-0.106944444047242,-0.106901414692402,0.015577063895762,0.0247400421649218
0,0.627777818386695,-0.848611190209378,-0.108333335930496,-0.0833831056952477,0.064446285367012,0.104763388633728
0,0.637500012945616,-0.834722271376837,-0.113888891307548,-0.0372627787292004,0.0354301854968071,0.139888137578964
0,0.625000034620187,-0.82222224442755,-0.111111119697004,0.0485637858510017,-0.00427605677396059,0.164933621883392
0,0.608333332021137,-0.815277785011279,-0.106944444047242,0.129503428936005,-0.13744467496872,0.0931569486856461
0,0.58333337537028,-0.790277828360421,-0.0986111170596459,0.0925460830330849,-0.176234617829323,-0.000305432622553781
0,0.588888894279438,-0.768055606852213,-0.0930555616825939,0.0204639863222837,-0.0983493030071259,-0.0861319974064827
0,0.584722267253534,-0.773611125761372,-0.0972222251763917,-0.0983493030071259,0.037568211555481,-0.0128281703218818
0,0.594444461812454,-0.77638890952788,-0.106944444047242,-0.122783914208412,0.196698606014252,-0.0161879286170006
0,0.598611137462217,-0.779166693294388,-0.113888891307548,-0.140193566679955,0.150883719325066,-0.027488935738802
0,0.611111115787646,-0.788888936477167,-0.102777780553444,-0.096211276948452,0.139582708477974,-0.0894917547702789
0,0.629166710269949,-0.781944477060896,-0.130555557438704,-0.0662788823246956,0.104763388633728,-0.181732416152954
0,0.640277796712124,-0.775000017644626,-0.125000002061652,-0.0897971913218498,0.0146607663482428,-0.239764615893364
0,0.643055580478633,-0.775000017644626,-0.126388893944906,-0.0699440687894821,0.0781907513737679,-0.306654363870621
0,0.648611148011649,-0.766666714968959,-0.134722233088466,-0.127365410327911,0.078801617026329,-0.233961388468742
0,0.630555602153203,-0.775000017644626,-0.14722222356986,-0.13225232064724,0.143247902393341,-0.118202425539494
0,0.611111115787646,-0.769444450111609,-0.161111118090472,-0.0345138870179653,0.153632611036301,-0.0671951770782471
0,0.611111115787646,-0.769444450111609,-0.161111118090472,0.0372627787292004,0.0726929605007172,-0.0351247526705265
0,0.609722223904392,-0.790277828360421,-0.163888889701015,0.100792765617371,0.0433714315295219,-0.087659165263176
0,0.634722229179108,-0.80277780668585,-0.151388899219622,0.0873537287116051,-0.0222965814173222,-0.124921940267086
0,0.634722229179108,-0.80277780668585,-0.151388899219622,0.0995710343122482,-0.0354301854968071,-0.081855945289135
0,0.680555564078778,-0.854166660494678,-0.12916666555545,0.135917514562607,-0.0943786799907684,-0.0583376325666905
0,0.680555564078778,-0.854166660494678,-0.12916666555545,0.0836885422468185,-0.130725160241127,0.017409659922123
0,0.688888915378302,-0.854166660494678,-0.130555557438704,0.0507018156349659,-0.0968221426010132,0.0491746515035629
0,0.666666693870094,-0.834722271376837,-0.130555557438704,0.0400116741657257,-0.0858265683054924,0.05283984541893
0,0.655555558804062,-0.820833352544296,-0.125000002061652,0.0681114718317986,-0.128587126731873,0.0339030213654041
0,0.643055580478633,-0.806944482335612,-0.115277783190802,0.0342084541916847,-0.189673662185669,-0.0247400421649218
0,0.6319444454126,-0.805555590452358,-0.102777780553444,-0.0690277740359306,-0.147829383611679,-0.0226020142436027
0,0.634722229179108,-0.798611131036088,-0.108333335930496,-0.164322748780251,-0.0177150927484035,-0.0369573459029198
0,0.634722229179108,-0.775000017644626,-0.108333335930496,-0.198225766420364,0.0461203269660473,-0.0641408488154411
0,0.636111121062362,-0.768055606852213,-0.122222230451108,-0.148745685815811,-0.0027488935738802,-0.101709060370922
0,0.643055580478633,-0.762500039319197,-0.12916666555545,-0.0708603709936142,-0.0442877300083637,-0.0885754600167274
0,0.662500018220332,-0.765277823085705,-0.134722233088466,-0.0287106670439243,-0.0711658000946045,-0.0681114718317986
0,0.663888910103586,-0.752777796136418,-0.133333341205212,0.017409659922123,-0.0140499006956816,0.037568211555481
0,0.666666693870094,-0.758333363669434,-0.134722233088466,0.0287106670439243,0.0128281703218818,0.0769690200686455
0,0.656944450687316,-0.755555579902926,-0.141666668192807,0.0729983970522881,0.0262672062963247,0.0824668109416962
0,0.651388931778157,-0.752777796136418,-0.144444451959316,0.113620936870575,-0.0452040284872055,0.000305432622553781
0,0.66527780198684,-0.759722255552688,-0.144444451959316,0.0943786799907684,-0.0858265683054924,-0.0995710343122482
0,0.679166672195524,-0.754166688019672,-0.12777778582816,0.0809396430850029,-0.0778853222727776,-0.142331600189209
0,0.676388937052873,-0.75694447178618,-0.131944449321958,0.0928515195846558,-0.0149661982432008,-0.0430659987032413
0,0.673611153286365,-0.751388904253164,-0.140277788465518,0.125532805919647,-0.0045814891345799,0.0543670058250427
0,0.650000039894903,-0.740277817810989,-0.134722233088466,0.189368233084679,-0.0763581544160843,0.0613919571042061
0,0.611111115787646,-0.75000001236991,-0.138888896582264,0.283136039972305,-0.178983509540558,0.0436768643558025
0,0.609722223904392,-0.766666714968959,-0.133333341205212,0.324369430541992,-0.211970239877701,0.00427605677396059
0,0.626388926503441,-0.801388914802596,-0.118055554801345,0.272140473127365,-0.189979091286659,0.00519235478714108
0,0.637500012945616,-0.819444460661041,-0.111111119697004,0.146913096308708,-0.112093769013882,0.00580321997404099
0,0.640277796712124,-0.818055568777787,-0.10972222781375,0.0452040284872055,-0.0213802829384804,-0.0232128798961639
0,0.63888890482887,-0.815277785011279,-0.1194444466846,0.05283984541893,0.0201585534960032,-0.0387899428606033
0,0.659722234453824,-0.823611136310804,-0.120833338567854,0.127670839428902,-0.0794124826788902,-0.0369573459029198
0,0.815277785011279,-0.983333411141879,-0.311111125426839,1.10872042179108,-1.80541217327118,1.52197074890137
0,0.861111119910949,-0.923611157409668,-0.168055565350778,2.59617733955383,-1.51922190189362,1.84175872802734
0,0.676388937052873,-0.795833347269579,-0.14583334384257,2.73178935050964,-1.8723019361496,1.3200798034668
0,0.565277780887976,-0.731944466511464,-0.0638888929140799,2.26753187179565,-1.98164689540863,0.492968261241913
0,0.572222240304247,-0.743055601577497,-0.0638888929140799,2.20797252655029,-2.59953713417053,-0.955393254756927
0,0.773611125761372,-0.725000007095193,-0.0638888929140799,2.11115026473999,-0.642630219459534,-2.26111769676208
0,0.766666714968959,-0.697222266677827,-0.03194444645704,1.66430234909058,1.03327858448029,-2.78065848350525
0,0.708333353120002,-0.863888903677457,0.0916666697993398,0.66126161813736,1.40926611423492,-2.90435886383057
0,0.601388921228725,-0.872222254976982,0.106944444047242,-0.54916787147522,0.177761793136597,-2.44620990753174
0,0.590277786162692,-0.84583340644287,0.130555557438704,-1.29931032657623,0.0595593601465225,-1.07329022884369
0,0.797222239152834,-0.816666676894533,0.10972222781375,-1.406822681427,0.6139195561409,-0.508850753307343
0,0.772222233878117,-0.77638890952788,0.101388894748172,-1.05740773677826,1.24524879455566,0.177456349134445
0,0.693055591028065,-0.770833341994863,0.0652777787193518,-0.448680520057678,0.980438709259033,0.91049462556839
0,0.625000034620187,-0.77638890952788,0.0763888894734557,0.330172657966614,0.767857611179352,0.923933684825897
0,0.618055575203916,-0.752777796136418,0.0722222259796579,0.942565083503723,0.657901883125305,0.661872506141663
0,0.647222256128395,-0.754166688019672,0.0902777839940679,1.05099368095398,0.290160983800888,0.267253547906876
0,0.655555558804062,-0.752777796136418,0.140277788465518,1.07084679603577,0.845437526702881,0.0329867228865623
0,0.654166666920807,-0.763888931202451,0.176388892338373,1.26968336105347,1.85275423526764,-0.113315500319004
0,0.679166672195524,-0.75000001236991,0.18333333959868,1.34146010875702,2.14994025230408,-0.10567969083786
0,0.686111131611794,-0.73055557462821,0.179166676104882,1.10352802276611,1.72844326496124,-0.00885754637420177
0,0.655555558804062,-0.75694447178618,0.251388896006557,1.03144598007202,1.91322994232178,0.110566608607769
0,0.668055585753349,-0.762500039319197,0.320833344297689,1.05771315097809,2.22721457481384,0.156992360949516
0,0.688888915378302,-0.766666714968959,0.348611133338914,0.968221426010132,2.50943446159363,-0.107817716896534
0,0.613888899554154,-0.769444450111609,0.397222227693163,0.992045164108276,2.83869075775146,0.00610865233466029
0,0.640277796712124,-0.762500039319197,0.409722230330521,0.82375180721283,2.42849469184875,0.122478485107422
0,0.584722267253534,-0.75694447178618,0.437500019371745,0.488997638225555,1.77853417396545,0.303600013256073
0,0.572222240304247,-0.736111142161226,0.477777786738398,0.186008468270302,1.63528621196747,0.649044334888458
0,0.561111153862072,-0.75694447178618,0.536111148587356,0.0928515195846558,1.53327178955078,0.682947337627411
0,0.531944472937593,-0.765277823085705,0.554166694445801,0.0720821022987366,1.56045532226563,0.689361453056335
0,0.538888932353864,-0.758333363669434,0.555555586329055,-0.0372627787292004,1.53052282333374,0.655458390712738
0,0.519444445988306,-0.712500028769764,0.541666667496514,-0.140499010682106,1.97034585475922,0.847575545310974
0,0.519444445988306,-0.712500028769764,0.541666667496514,-0.161268427968025,2.33350515365601,1.12032687664032
0,0.393055576355329,-0.734722250277972,0.536111148587356,-0.144469633698463,2.43277072906494,1.16430914402008
0,0.305555557893823,-0.723611115211939,0.536111148587356,0.00549778714776039,1.86741507053375,1.04183065891266
0,0.305555557893823,-0.723611115211939,0.536111148587356,0.331088960170746,1.36131322383881,0.742201268672943
0,0.265277790527169,-0.755555579902926,0.598611137462217,0.850935280323029,0.917519569396973,0.143247902393341
0,0.276388901281273,-0.740277817810989,0.620833358970425,1.59649634361267,0.716850340366364,-0.615446746349335
0,0.276388901281273,-0.740277817810989,0.620833358970425,1.97645449638367,0.35979962348938,-0.942259669303894
0,0.258333331110899,-0.705555569353494,0.650000039894903,2.16673898696899,0.208305045962334,-1.133460521698
0,0.305555557893823,-0.650000039894903,0.698611158561081,2.06380820274353,-0.138971850275993,-1.3567316532135
0,0.305555557893823,-0.650000039894903,0.698611158561081,1.51005887985229,-0.386372268199921,-1.52869021892548
0,0.336111130701556,-0.551388910679293,0.716666704419527,0.838717997074127,-0.021685715764761,-1.26601827144623
0,0.381944465601225,-0.536111148587356,0.75000001236991,0.134390354156494,-0.0335975885391235,-1.10566604137421
0,0.401388903342925,-0.530555581054339,0.762500039319197,-0.451429426670075,0.0106901414692402,-0.96241819858551
0,0.401388903342925,-0.530555581054339,0.762500039319197,-0.619722783565521,0.315511912107468,-0.833525598049164
0,0.423611149163062,-0.518055554105052,0.758333363669434,-0.485027015209198,0.908051192760468,-0.782823801040649
0,0.415277797863537,-0.515277818962402,0.736111142161226,-0.305127203464508,0.996321201324463,-0.711047172546387
0,0.415277797863537,-0.515277818962402,0.736111142161226,-0.0983493030071259,0.284052342176437,-0.705243945121765
0,0.412500014097029,-0.522222229754814,0.723611115211939,0.156686931848526,0.0809396430850029,-0.64537912607193
0,0.397222227693163,-0.522222229754814,0.737500034044481,0.430354565382004,-0.149967417120934,-0.608421802520752
0,0.397222227693163,-0.522222229754814,0.737500034044481,0.660956203937531,-0.430049121379852,-0.702495038509369
0,0.423611149163062,-0.522222229754814,0.769444450111609,0.262672066688538,-0.456316351890564,-0.726929664611816
0,0.44583337067127,-0.484722246154669,0.769444450111609,-0.0736092627048492,-0.177150920033455,-0.553138494491577
0,0.443055586904762,-0.44583337067127,0.712500028769764,-0.314290165901184,-0.301156580448151,-0.569937288761139
0,0.437500019371745,-0.451388889580428,0.700000001820477,-0.483194410800934,-0.627358615398407,-0.62002819776535
0,0.413888905980283,-0.469444484062732,0.748611120486655,-0.437379509210587,-0.294742494821549,-0.635605275630951
0,0.462500024646461,-0.497222224480098,0.777777801411134,-0.320093393325806,0.447153359651566,-0.656680166721344
0,0.49444444071359,-0.493055597454194,0.755555579902926,-0.245567828416824,1.29533970355988,-0.532063603401184
0,0.462500024646461,-0.495833332596844,0.772222233878117,-0.192727982997894,1.59405291080475,-0.503047525882721
0,0.420833365396554,-0.46527780841297,0.715277812536273,-0.402560204267502,1.04366326332092,-0.582765460014343
0,0.384722225055805,-0.463888916529715,0.656944450687316,-0.733649134635925,0.16951510310173,-0.660039901733398
0,0.365277787314105,-0.488888921804431,0.662500018220332,-0.905913174152374,-0.586430609226227,-0.635910749435425
0,0.390277792588821,-0.533333364820847,0.70416667747024,-0.816115975379944,-0.774271726608276,-0.592539310455322
0,0.447222262554524,-0.529166689171085,0.727777790861702,-0.825584352016449,-0.794124841690063,-0.434325188398361
0,0.46527780841297,-0.551388910679293,0.745833336720147,-0.760221779346466,-0.467006474733353,-0.253203630447388
0,0.47500000297189,-0.54722223502953,0.755555579902926,-0.290160983800888,0.467006474733353,-0.210137650370598
0,0.481944462388161,-0.541666667496514,0.731944466511464,0.108734011650086,1.11543989181519,-0.337197601795196
0,0.500000008246606,-0.52083333787156,0.716666704419527,0.398589581251144,1.46516025066376,-0.458454370498657
0,0.493055597454194,-0.523611121638068,0.709722245003256,0.37568211555481,1.1979067325592,-0.550084173679352
0,0.454166673346937,-0.529166689171085,0.709722245003256,0.211970239877701,0.635605275630951,-0.553443908691406
0,0.454166673346937,-0.538888932353864,0.706944461236748,0.0647517144680023,0.117591559886932,-0.415693789720535
0,0.440277803138253,-0.548611126912784,0.716666704419527,0.0125227374956012,-0.0696386396884918,-0.317955374717712
0,0.424999992422458,-0.509722251429385,0.731944466511464,0.10598511993885,0.0870482996106148,-0.30146199464798
0,0.424999992422458,-0.515277818962402,0.747222228603401,0.226325571537018,0.408974289894104,-0.231517925858498
0,0.437500019371745,-0.518055554105052,0.781944477060896,0.325896620750427,0.612392425537109,-0.134084925055504
0,0.451388889580428,-0.519444445988306,0.793055563503071,0.279470860958099,0.511905074119568,-0.0442877300083637
0,0.449999997697174,-0.511111143312639,0.787500044593913,0.1795943826437,0.22754730284214,-0.0183259565383196
0,0.449999997697174,-0.49166670557094,0.794444455386325,0.0812450796365738,0.0855211317539215,0.013744467869401
0,0.449999997697174,-0.493055597454194,0.786111152710659,0.0681114718317986,0.0858265683054924,0.011606439948082
0,0.456944457113445,-0.486111138037923,0.794444455386325,0.0448985956609249,0.0754418596625328,0.017409659922123
0,0.458333348996699,-0.479166678621653,0.794444455386325,0.0549778714776039,0.118507854640484,0.00519235478714108
0,0.441666695021508,-0.479166678621653,0.786111152710659,0.0684169083833694,0.154243469238281,0.00977384392172098
0,0.443055586904762,-0.47500000297189,0.777777801411134,0.0830776765942574,0.0842994004487991,0.00152716308366507
0,0.437500019371745,-0.470833327322128,0.77638890952788,0.109650313854218,0.0406225398182869,-0.00824668072164059
0,0.427777776188966,-0.469444484062732,0.777777801411134,0.116675265133381,-0.015577063895762,-0.0287106670439243
0,0.420833365396554,-0.473611111088636,0.784722260827405,0.0858265683054924,-0.0183259565383196,-0.0207694191485643
0,0.422222257279808,-0.479166678621653,0.780555585177642,0.081855945289135,0.0513126812875271,0.0207694191485643
0,0.423611149163062,-0.46527780841297,0.787500044593913,0.0687223374843597,0.0500909499824047,0.0244346093386412
0,0.422222257279808,-0.458333348996699,0.784722260827405,0.0574213340878487,0.00763581553474069,0.0262672062963247
0,0.422222257279808,-0.463888916529715,0.790277828360421,0.0766635909676552,-0.0256563406437635,-0.0103847095742822
0,0.424999992422458,-0.462500024646461,0.798611131036088,0.0433714315295219,-0.0513126812875271,-0.0128281703218818
0,0.418055581630046,-0.458333348996699,0.798611131036088,0.0186313893646002,-0.0351247526705265,-0.0409279726445675
0,0.418055581630046,-0.46527780841297,0.781944477060896,0.0271835029125214,0.0348193198442459,-0.04764748737216
0,0.413888905980283,-0.463888916529715,0.781944477060896,0.0305432621389627,0.0183259565383196,-0.0549778714776039
0,0.416666689746791,-0.466666700296224,0.787500044593913,0.0604756586253643,-0.0384845100343227,-0.0565050356090069
0,0.416666689746791,-0.466666700296224,0.787500044593913,0.090408056974411,-0.0604756586253643,-0.0452040284872055
0,0.4194444735133,-0.452777781463682,0.788888936477167,0.0931569486856461,-0.0390953756868839,-0.0290160998702049
0,0.42916666807222,-0.454166673346937,0.801388914802596,0.0659734457731247,-0.0183259565383196,-0.0210748501121998
0,0.426388884305712,-0.452777781463682,0.798611131036088,0.0403171069920063,-0.0366519130766392,-0.0354301854968071
0,0.426388884305712,-0.449999997697174,0.794444455386325,0.0287106670439243,-0.0693332031369209,-0.0387899428606033
0,0.423611149163062,-0.44861110581392,0.779166693294388,0.0610865242779255,-0.0403171069920063,-0.0403171069920063
0,0.420833365396554,-0.452777781463682,0.777777801411134,0.0781907513737679,-0.0241291765123606,-0.0302378293126821
0,0.42916666807222,-0.454166673346937,0.787500044593913,0.0482583530247212,0.0448985956609249,-0.00671951752156019
0,0.433333343721983,-0.461111132763207,0.80277780668585,0.0177150927484035,0.0919352173805237,0.0186313893646002
0,0.430555559955475,-0.458333348996699,0.805555590452358,-0.013744467869401,0.070249505341053,0.00580321997404099
0,0.430555559955475,-0.459722240879953,0.793055563503071,-0.0113010071218014,0.00702495034784079,-0.0033597587607801
0,0.426388884305712,-0.452777781463682,0.77638890952788,0.00671951752156019,-0.0167987942695618,-0.00946841109544039
0,0.433333343721983,-0.455555565230191,0.784722260827405,0.000610865245107561,0.0262672062963247,0.00488692196086049
0,0.431944451838729,-0.455555565230191,0.786111152710659,0.00549778714776039,0.00305432616733015,0.017409659922123
0,0.423611149163062,-0.463888916529715,0.795833347269579,0.0250454749912024,-0.0113010071218014,0.00855211354792118
0,0.420833365396554,-0.472222219205382,0.801388914802596,0.0452040284872055,-0.0705549344420433,-0.0125227374956012
0,0.415277797863537,-0.461111132763207,0.798611131036088,0.02382374368608,-0.0406225398182869,-0.0232128798961639
0,0.416666689746791,-0.466666700296224,0.795833347269579,-0.0415388382971287,0.0290160998702049,-0.015577063895762
0,0.4194444735133,-0.459722240879953,0.788888936477167,-0.0592539273202419,0.0519235469400883,-0.000305432622553781
0,0.420833365396554,-0.452777781463682,0.78333336894415,0.01191187184304,-0.00244346098043024,-0.0045814891345799
0,0.426388884305712,-0.447222262554524,0.791666671619817,0.0482583530247212,-0.0277943685650826,-0.0149661982432008
0,0.422222257279808,-0.44861110581392,0.788888936477167,0.0265726372599602,0.00488692196086049,-0.00641408516094089
0,0.424999992422458,-0.444444478788016,0.772222233878117,-0.00580321997404099,0.0302378293126821,-0.017409659922123
0,0.42916666807222,-0.443055586904762,0.781944477060896,-0.000610865245107561,-0.00641408516094089,-0.0314595587551594
0,0.42916666807222,-0.443055586904762,0.781944477060896,0.0140499006956816,-0.00946841109544039,-0.0229074470698834
0,0.420833365396554,-0.447222262554524,0.77638890952788,0.0222965814173222,0.0369573459029198,0.0103847095742822
0,0.415277797863537,-0.454166673346937,0.777777801411134,0.0436768643558025,0.021685715764761,0.00702495034784079
0,0.415277797863537,-0.454166673346937,0.777777801411134,0.0543670058250427,-0.00916297826915979,-0.0109955742955208
0,0.4194444735133,-0.461111132763207,0.804166698569104,0.0497855171561241,-0.0100792767480016,-0.0287106670439243
0,0.418055581630046,-0.459722240879953,0.795833347269579,0.0311541277915239,0.00794124789535999,-0.0122173046693206
0,0.418055581630046,-0.459722240879953,0.795833347269579,0.0479529201984406,0.0626136884093285,-0.000305432622553781
0,0.42916666807222,-0.455555565230191,0.795833347269579,0.0821613743901253,0.0311541277915239,-0.00671951752156019
0,0.437500019371745,-0.447222262554524,0.791666671619817,0.0781907513737679,-0.00641408516094089,-0.021685715764761
0,0.437500019371745,-0.447222262554524,0.791666671619817,0.0616973899304867,-0.0751364231109619,-0.0500909499824047
0,0.433333343721983,-0.441666695021508,0.800000022919342,0.0390953756868839,-0.0934623852372169,-0.0662788823246956
0,0.430555559955475,-0.437500019371745,0.787500044593913,0.0186313893646002,-0.0299323964864016,-0.0568104684352875
0,0.430555559955475,-0.437500019371745,0.787500044593913,0.00122173049021512,-0.0143553335219622,-0.0277943685650826
0,0.431944451838729,-0.437500019371745,0.787500044593913,0.0424551330506802,0.0109955742955208,-0.037568211555481
0,0.431944451838729,-0.443055586904762,0.786111152710659,0.0925460830330849,-0.0033597587607801,-0.00549778714776039
0,0.430555559955475,-0.447222262554524,0.791666671619817,0.142026171088219,-0.0253509078174829,-0.00183259579353034
0,0.416666689746791,-0.447222262554524,0.793055563503071,0.196698606014252,-0.0729983970522881,-0.0103847095742822
0,0.413888905980283,-0.452777781463682,0.779166693294388,0.240070044994354,-0.120951317250729,-0.0384845100343227
0,0.413888905980283,-0.449999997697174,0.784722260827405,0.35491269826889,-0.0965167060494423,-0.0442877300083637
0,0.416666689746791,-0.433333343721983,0.784722260827405,0.561079740524292,-0.0623082555830479,0.000305432622553781
0,0.412500014097029,-0.437500019371745,0.793055563503071,0.831998467445374,0.134390354156494,0.0595593601465225
0,0.412500014097029,-0.413888905980283,0.815277785011279,0.992350578308105,0.448069661855698,0.0907134860754013
0,0.413888905980283,-0.411111122213775,0.826388920077312,0.509767055511475,0.314901024103165,0.196087747812271
0,0.415277797863537,-0.386111116939059,0.818055568777787,0.109344877302647,0.166766211390495,0.212886542081833
0,0.449999997697174,-0.352777784676747,0.795833347269579,-0.0757472887635231,-0.153938040137291,0.338724792003632
0,0.440277803138253,-0.359722244093018,0.773611125761372,0.0409279726445675,-0.502131223678589,0.388815730810165
0,0.397222227693163,-0.380555573717971,0.82222224442755,0.337197601795196,-0.40775254368782,0.228463605046272
0,0.394444468238583,-0.386111116939059,0.884722281926269,0.610559821128845,-0.186313897371292,-0.0500909499824047
0,0.402777795226179,-0.383333357484479,0.880555606276507,0.774882555007935,-0.124311074614525,-0.182954147458077
0,0.420833365396554,-0.379166681834717,0.861111119910949,0.778242349624634,-0.0690277740359306,-0.153021737933159
0,0.430555559955475,-0.348611133338914,0.834722271376837,0.512515962123871,-0.0913243517279625,0.00244346098043024
0,0.462500024646461,-0.315277801076602,0.838888947026599,0.183259576559067,0.107206851243973,0.231823354959488
0,0.476388894855144,-0.316666668647927,0.863888903677457,0.0244346093386412,0.252898216247559,0.240375474095344
0,0.447222262554524,-0.311111125426839,0.847222298326124,-0.02382374368608,0.153632611036301,0.142331600189209
0,0.437500019371745,-0.320833344297689,0.848611190209378,0.0849102661013603,-0.0815505087375641,0.0293215326964855
0,0.426388884305712,-0.326388911830706,0.865277795560711,0.149356558918953,-0.0452040284872055,-0.0314595587551594
0,0.424999992422458,-0.327777779402031,0.862500011794203,0.0610865242779255,0.00671951752156019,-0.0510072484612465
0,0.413888905980283,-0.341666673922643,0.863888903677457,0.00244346098043024,0.0733038261532784,-0.00733038317412138
0,0.406944470875941,-0.336111130701556,0.854166660494678,0.00916297826915979,0.0357356183230877,0.00610865233466029
0,0.405555578992687,-0.33750002258481,0.844444514559616,0.0409279726445675,-0.00702495034784079,0.0213802829384804
0,0.402777795226179,-0.347222241455659,0.863888903677457,0.136833816766739,-0.0397062413394451,0.0534507073462009
0,0.397222227693163,-0.343055565805897,0.866666687443965,0.277638256549835,0.0565050356090069,0.0329867228865623
0,0.397222227693163,-0.343055565805897,0.866666687443965,0.297185927629471,0.0965167060494423,0.029626963660121
0,0.394444468238583,-0.341666673922643,0.854166660494678,0.28496864438057,0.0800233483314514,0.0394008085131645
0,0.380555573717971,-0.334722238818301,0.859722228027695,-0.0427605658769607,-0.0167987942695618,-0.0439822971820831
0,0.381944465601225,-0.336111130701556,0.858333336144441,-0.186008468270302,0.0522289797663689,-0.078801617026329
0,0.390277792588821,-0.341666673922643,0.863888903677457,-0.120951317250729,0.0342084541916847,-0.0537561401724815
0,0.398611119576417,-0.330555563168539,0.863888903677457,-0.00671951752156019,-0.02382374368608,-0.0736092627048492
0,0.401388903342925,-0.325000019947452,0.859722228027695,-0.0109955742955208,-0.138971850275993,-0.0806342139840126
0,0.411111122213775,-0.325000019947452,0.85138887672817,-0.0952949747443199,-0.184481307864189,-0.0186313893646002
0,0.431944451838729,-0.322222236180943,0.854166660494678,-0.127976268529892,-0.110566608607769,0.0882700309157372
0,0.436111127488491,-0.330555563168539,0.887500065692777,-0.195476874709129,0.103541657328606,0.229685336351395
0,0.449999997697174,-0.329166671285285,0.876388930626744,-0.439822971820831,0.430049121379852,0.327729195356369
0,0.441666695021508,-0.331944455051793,0.86805557932722,-0.63438355922699,0.369573473930359,0.452956587076187
0,0.437500019371745,-0.341666673922643,0.854166660494678,-0.813977956771851,0.473115146160126,0.492662817239761
0,0.413888905980283,-0.341666673922643,0.84583340644287,-0.8472700715065,0.533896207809448,0.465173870325089
0,0.395833335809908,-0.354166676560001,0.843055622676362,-0.825889825820923,0.518624603748322,0.4544837474823
0,0.372222246730376,-0.397222227693163,0.82916670384382,-0.894917607307434,0.498160600662232,0.4758640229702
0,0.361111135976272,-0.420833365396554,0.825000028194058,-0.906829476356506,0.706160247325897,0.509767055511475
0,0.344444457689151,-0.434722235605237,0.811111157985375,-0.848491847515106,0.832609355449677,0.554360210895538
0,0.305555557893823,-0.449999997697174,0.801388914802596,-0.826195240020752,0.543364644050598,0.648128032684326
0,0.280555576931036,-0.461111132763207,0.777777801411134,-0.895223021507263,0.0128281703218818,0.630107522010803
0,0.261111114877407,-0.473611111088636,0.790277828360421,-0.779464066028595,-0.265420943498612,0.383928805589676
0,0.262500006760661,-0.502777792013115,0.797222239152834,-0.581849157810211,-0.358272463083267,-0.0558941699564457
0,0.259722222994153,-0.548611126912784,0.793055563503071,-0.536034226417542,-0.292604446411133,-0.328340083360672
0,0.283333336385615,-0.56666667277123,0.812500049868629,-0.562301456928253,-0.299323976039886,-0.412334054708481
0,0.313888909193348,-0.552777802562547,0.805555590452358,-0.768163025379181,0.0745255574584007,-0.334143280982971
0,0.336111130701556,-0.558333370095563,0.798611131036088,-0.800538897514343,0.17409659922123,-0.253814518451691
0,0.362500003547597,-0.568055564654484,0.800000022919342,-0.659429013729095,0.0931569486856461,-0.278859972953796
0,0.388888900705567,-0.595833353695709,0.808333374218867,-0.411112308502197,-0.0668897479772568,-0.347276896238327
0,0.405555578992687,-0.584722267253534,0.812500049868629,-0.165849909186363,-0.259312301874161,-0.382096201181412
0,0.412500014097029,-0.543055559379768,0.786111152710659,-0.000610865245107561,-0.28496864438057,-0.356134444475174
0,0.409722230330521,-0.515277818962402,0.769444450111609,0.124311074614525,-0.246178686618805,-0.215635433793068
0,0.391666684472075,-0.502777792013115,0.745833336720147,0.176540061831474,-0.209832206368446,-0.0800233483314514
0,0.370833354847121,-0.490277813687686,0.718055596302781,0.129197999835014,-0.197920337319374,0.0265726372599602
0,0.348611133338914,-0.487500029921177,0.661111126337078,-0.0403171069920063,-0.268475264310837,0.133168622851372
0,0.329166671285285,-0.486111138037923,0.663888910103586,-0.152105450630188,-0.0830776765942574,0.222965821623802
0,0.326388911830706,-0.508333359546131,0.669444477636603,-0.168293371796608,0.252898216247559,0.358883321285248
0,0.33750002258481,-0.522222229754814,0.694444482911319,-0.233655959367752,0.301156580448151,0.473115146160126
0,0.386111116939059,-0.52083333787156,0.75694447178618,-0.480750948190689,0.459676086902618,0.526871263980865
0,0.397222227693163,-0.531944472937593,0.775000017644626,-0.459676086902618,0.435852348804474,0.410196006298065
0,0.387500008822313,-0.545833343146276,0.781944477060896,-0.364686548709869,0.271224170923233,0.254425376653671
0,0.387500008822313,-0.545833343146276,0.781944477060896,-0.329256355762482,0.212581098079681,0.180510684847832
0,0.368055571080613,-0.565277780887976,0.75000001236991,-0.448375076055527,0.457232624292374,0.143247902393341
0,0.320833344297689,-0.572222240304247,0.668055585753349,-0.512210488319397,0.857960224151611,-0.0433714315295219
0,0.327777779402031,-0.602777813111979,0.630555602153203,-0.454178303480148,0.87109386920929,-0.196698606014252
0,0.365277787314105,-0.666666693870094,0.600000029345471,-0.145691365003586,0.286495804786682,-0.485637873411179
0,0.393055576355329,-0.668055585753349,0.677777780312269,0.261450320482254,-0.257174253463745,-0.545808076858521
0,0.441666695021508,-0.673611153286365,0.716666704419527,0.554971098899841,-0.31703907251358,-0.627358615398407
0,0.454166673346937,-0.686111131611794,0.773611125761372,0.802676916122437,0.268475264310837,-0.449902266263962
0,0.454166673346937,-0.686111131611794,0.773611125761372,0.907440304756165,0.954476952552795,-0.0293215326964855
0,0.398611119576417,-0.672222261403111,0.751388904253164,0.634994447231293,1.33626770973206,0.132557764649391
0,0.312500017310094,-0.629166710269949,0.598611137462217,0.254730820655823,1.31519281864166,-0.112093769013882
0,0.312500017310094,-0.629166710269949,0.598611137462217,0.117896988987923,1.00731682777405,-0.548862397670746
0,0.272222225631511,-0.651388931778157,0.588888894279438,0.0888808965682983,0.0302378293126821,-1.04274702072144
0,0.297222230906227,-0.698611158561081,0.633333337295854,-0.320093393325806,-0.122783914208412,-1.49020576477051
0,0.379166681834717,-0.656944450687316,0.677777780312269,-0.384845107793808,0.244651526212692,-1.53815865516663
0,0.443055586904762,-0.548611126912784,0.702777785586986,-0.529009282588959,0.566272079944611,-1.31610918045044
0,0.481944462388161,-0.490277813687686,0.645833364245141,-0.685085356235504,0.609948933124542,-1.11666166782379
0,0.452777781463682,-0.550000018796039,0.579166699720517,-0.992350578308105,0.705549359321594,-1.15972769260406
0,0.447222262554524,-0.633333337295854,0.53750004047061,-1.02472639083862,0.0714712366461754,-1.33443510532379
0,0.443055586904762,-0.636111121062362,0.54027777561326,-1.03877639770508,-0.271224170923233,-1.43400621414185
0,0.354166676560001,-0.529166689171085,0.541666667496514,-0.91996306180954,0.513126790523529,-1.83687174320221
0,0.295833339022973,-0.533333364820847,0.519444445988306,-1.04610669612884,1.0134254693985,-2.45476198196411
0,0.29166668768514,-0.648611148011649,0.52083333787156,-0.854905903339386,1.45416474342346,-2.75316977500915
0,0.354166676560001,-0.73055557462821,0.604166704995233,-1.10597157478332,0.948979139328003,-2.63588356971741
0,0.473611111088636,-0.706944461236748,0.581944483487025,-1.33535146713257,1.49753618240356,-2.07266569137573
0,0.341666673922643,-0.687500023495048,0.541666667496514,-1.10474979877472,2.09587860107422,-2.10229277610779
0,0.265277790527169,-0.716666704419527,0.591666678045946,-0.810007333755493,1.69240212440491,-2.55921983718872
0,0.290277795801886,-0.733333358394718,0.713888920653019,-0.91049462556839,1.71866941452026,-2.81395077705383
0,0.298611122789481,-0.676388937052873,0.772222233878117,-1.23914015293121,1.60840821266174,-2.93032050132752
0,0.294444447139719,-0.647222256128395,0.613888899554154,-1.27609753608704,2.17865085601807,-3.17069602012634
0,0.347222241455659,-0.677777780312269,0.644444472361887,-0.84085601568222,2.29105019569397,-2.97949528694153
0,0.365277787314105,-0.70416667747024,0.723611115211939,-0.592539310455322,1.96393179893494,-2.73973059654236
0,0.288888903918631,-0.727777790861702,0.816666676894533,-1.02136671543121,2.85274076461792,-2.82494640350342
0,0.227777782615095,-0.716666704419527,0.808333374218867,-1.15728425979614,2.82494640350342,-3.13068437576294
0,0.29166668768514,-0.650000039894903,0.815277785011279,-0.93554013967514,2.46545219421387,-2.98987984657288
0,0.358333352209763,-0.630555602153203,0.831944487610329,-0.523511528968811,1.93644285202026,-2.42116451263428
0,0.416666689746791,-0.5930555699292,0.861111119910949,0.122173048555851,1.54212927818298,-1.76173532009125
0,0.370833354847121,-0.601388921228725,0.884722281926269,0.288328409194946,1.58824968338013,-1.75196146965027
0,0.230555566381603,-0.576388915954009,0.955555573476797,-0.309403240680695,1.95201992988586,-1.76631689071655
0,0.281944444502361,-0.652777823661411,1.00277780025972,-0.649349749088287,1.49692523479462,-1.73821699619293
0,0.300000014672736,-0.650000039894903,0.975000059842355,-0.915381550788879,1.36467289924622,-1.21837067604065
0,0.327777779402031,-0.493055597454194,0.887500065692777,-0.287412106990814,1.20187735557556,-0.851240694522858
0,0.318055560531181,-0.387500008822313,0.763888931202451,0.6878342628479,0.922711968421936,-0.547335267066956
0,0.250000004123303,-0.4194444735133,0.784722260827405,1.13987457752228,0.567188382148743,-0.726013362407684
0,0.259722222994153,-0.500000008246606,0.908333346693873,0.799622595310211,0.578794836997986,-0.762359797954559
0,0.354166676560001,-0.436111127488491,0.94305554652751,0.670424580574036,0.477085769176483,-0.320398807525635
0,0.368055571080613,-0.308333341660331,0.965277816659576,0.796873688697815,0.0201585534960032,0.128892570734024
0,0.318055560531181,-0.297222230906227,1.06527783775844,0.170736834406853,0.195171445608139,0.343000829219818
0,0.301388906555989,-0.341666673922643,1.08750001064279,-0.391870051622391,0.355829000473023,0.41263946890831
0,0.247222220356795,-0.387500008822313,0.975000059842355,-0.472198843955994,0.450513124465942,0.767246723175049
0,0.237500001485945,-0.416666689746791,0.855555552377932,-0.107206851243973,0.406836241483688,0.428827404975891
0,0.258333331110899,-0.361111135976272,0.775000017644626,0.812450766563416,-0.178983509540558,0.342695415019989
0,0.266666682410424,-0.413888905980283,0.725000007095193,1.71469879150391,-0.16371189057827,0.215330004692078
0,0.0958333393711199,-0.47500000297189,0.838888947026599,1.87505090236664,-0.193338856101036,0.0161879286170006
0,0.0791666671619817,-0.591666678045946,0.993055557076942,0.498771458864212,0.279776275157929,-0.869261264801025
0,0.193055558469529,-0.559722261978817,0.963888924776322,-0.255036234855652,0.415999233722687,-0.925155401229858
0,0.33750002258481,-0.459722240879953,0.861111119910949,-0.124921940267086,-0.0442877300083637,-0.423940479755402
0,0.305555557893823,-0.356944460326509,0.769444450111609,0.388510286808014,0.0226020142436027,0.0513126812875271
0,0.269444466176932,-0.250000004123303,0.786111152710659,1.14873206615448,0.0943786799907684,-0.143553331494331
0,0.295833339022973,-0.233333350148112,0.795833347269579,1.51586210727692,-0.415082931518555,-0.206472456455231
0,0.354166676560001,-0.188888894975731,0.84583340644287,1.43919849395752,-0.399505883455276,0.550084173679352
0,0.354166676560001,-0.188888894975731,0.84583340644287,1.28312242031097,-0.598953366279602,0.769384801387787
0,0.176388892338373,-0.288888903918631,0.899999995394348,1.15239727497101,-0.246789559721947,0.518930017948151
0,0.18333333959868,-0.258333331110899,0.95000000594378,1.14476144313812,-0.229074463248253,-0.120340451598167
0,0.18333333959868,-0.258333331110899,0.95000000594378,0.420580714941025,-0.00977384392172098,0.352469235658646
0,0.413888905980283,-0.0486111125881959,1.06666672964169,0.131030589342117,-1.09650313854218,1.30969512462616
0,0.380555573717971,-0.0930555616825939,1.13055556177595,0.374154955148697,-1.75654304027557,1.61024081707001
0,0.380555573717971,-0.0930555616825939,1.13055556177595,0.392786353826523,-0.717766642570496,1.19118726253509
0,0.256944463539574,-0.101388894748172,1.04166667574312,0.22235494852066,-0.780991196632385,0.344222575426102
0,0.197222234119292,-0.186111123365188,0.979166735492117,0.122478485107422,-0.577267646789551,-0.138971850275993
0,0.243055569018962,-0.180555567988136,0.926388941176177,0.182343274354935,-0.589179515838623,-0.241291776299477
0,0.376388898068209,-0.222222239394008,0.895833319744586,0.756556630134583,-0.949590027332306,-0.389121174812317
0,0.330555563168539,-0.256944463539574,0.813888941751883,1.23516952991486,0.0855211317539215,-1.22722828388214
0,0.265277790527169,-0.223611131277262,0.733333358394718,1.1688905954361,-0.599564254283905,-1.25502264499664
0,0.488888921804431,-0.0916666697993398,0.863888903677457,0.743117570877075,0.474031418561935,-0.0497855171561241
0,0.376388898068209,-0.00972222266958873,0.752777796136418,0.844215750694275,1.15209186077118,-0.336586743593216
0,0.202777789496344,-0.0680555564078778,0.656944450687316,1.31549835205078,0.260228604078293,-0.870788395404816
0,0.340277782039389,0.00972222266958873,0.808333374218867,1.20737516880035,-0.0616973899304867,-0.538477718830109
0,0.461111132763207,0.0125000003581147,1.00138890837647,0.311235845088959,-0.00488692196086049,0.404392778873444
0,0.44861110581392,0.0250000007162294,1.147222264375,-0.661872506141663,-0.0574213340878487,0.794124841690063
0,0.404166687109433,0.0513888902767219,1.18333335609189,-1.35856425762176,0.0729983970522881,0.844215750694275
0,0.311111125426839,0.0513888902767219,1.07500008094122,-1.11299645900726,0.185703039169311,0.346360594034195
0,0.265277790527169,-0.0250000007162294,0.918055589876652,-0.24862214922905,0.00488692196086049,-0.446237057447434
0,0.269444466176932,-0.0833333367337618,0.856944444261187,0.215940862894058,0.0125227374956012,-0.835663676261902
0,0.309722233543585,-0.0972222251763917,0.906944454810619,0.087659165263176,-0.135001212358475,-0.925766289234161
0,0.358333352209763,-0.0694444482911319,0.973611167959101,-0.57574051618576,0.143553331494331,-0.408974289894104
0,0.343055565805897,-0.00694444498106275,0.962500032893068,-1.1734721660614,0.211970239877701,0.183565005660057
0,0.319444452414435,-0.0194444453391775,0.947222222177272,-1.31610918045044,0.32192599773407,0.383012503385544
0,0.25555557165632,-0.0430555572111439,0.906944454810619,-1.02350473403931,0.237626582384109,0.0977384373545647
0,0.205555561106887,-0.033333335301303,0.85138887672817,-0.590095818042755,0.415693789720535,-0.177150920033455
0,0.24583335278547,-0.0791666671619817,0.848611190209378,-0.221133217215538,0.325896620750427,-0.298713117837906
0,0.288888903918631,-0.116666675074056,0.876388930626744,0.0592539273202419,0.338113903999329,-0.22693644464016
0,0.305555557893823,-0.136111112815755,0.906944454810619,0.0931569486856461,0.334143280982971,-0.0607810914516449
0,0.311111125426839,-0.13750000469901,0.93750007624221,-0.0421497002243996,0.268475264310837,0.0561996027827263
0,0.323611128064198,-0.13750000469901,0.956944465360051,-0.183259576559067,0.261755764484406,0.171653136610985
0,0.322222236180943,-0.141666668192807,0.941666654644256,-0.238848313689232,0.34880405664444,0.283441483974457
0,0.325000019947452,-0.166666673467524,0.931944508709193,-0.122783914208412,0.259312301874161,0.240070044994354
0,0.33750002258481,-0.194444450352783,0.930555616825939,-0.0235183127224445,0.230907067656517,0.22174409031868
0,0.356944460326509,-0.204166669223633,0.958333357243305,0.0210748501121998,0.138055548071861,0.171653136610985
0,0.350000000910239,-0.211111128639904,0.977777843608863,-0.0299323964864016,0.191506251692772,0.182954147458077
0,0.344444457689151,-0.222222239394008,0.991666665193688,-0.16371189057827,0.101709060370922,0.162490159273148
0,0.327777779402031,-0.215277779977737,0.969444492309338,-0.215635433793068,0.251981914043427,0.116675265133381
0,0.325000019947452,-0.213888888094483,0.952777789710289,-0.124311074614525,0.0986547395586967,0.0308486949652433
0,0.33750002258481,-0.19166667874224,0.940277860008718,0.0103847095742822,0.0919352173805237,0.0302378293126821
0,0.336111130701556,-0.168055565350778,0.940277860008718,0.00580321997404099,0.129197999835014,0.0849102661013603
0,0.331944455051793,-0.150000007336368,0.954166681593543,-0.0348193198442459,0.152410879731178,0.11636982858181
0,0.336111130701556,-0.14722222356986,0.96666670854283,-0.110566608607769,0.124311074614525,0.176540061831474
0,0.343055565805897,-0.161111118090472,0.963888924776322,-0.0910189226269722,0.0653625801205635,0.223576679825783
0,0.336111130701556,-0.16527778158427,0.945833330294018,0.000916297896765172,0.00305432616733015,0.246178686618805
0,0.316666668647927,-0.156944454596674,0.940277860008718,0.150578290224075,-0.0161879286170006,0.184786736965179
0,0.312500017310094,-0.166666673467524,0.947222222177272,0.193033412098885,-0.00549778714776039,0.15332718193531
0,0.318055560531181,-0.184722231481934,0.952777789710289,0.15332718193531,-0.0134390350431204,0.135612085461616
0,0.325000019947452,-0.187500003092477,0.970833384192592,0.0717766657471657,-0.0204639863222837,0.161879286170006
0,0.319444452414435,-0.179166676104882,0.96666670854283,-0.0815505087375641,0.00549778714776039,0.16371189057827
0,0.311111125426839,-0.161111118090472,0.955555573476797,-0.138666406273842,0.0164933614432812,0.143858760595322
0,0.311111125426839,-0.15555556271342,0.94305554652751,-0.114537231624126,0.0152716310694814,0.0971275717020035
0,0.318055560531181,-0.162500009973726,0.93750007624221,-0.0198531206697226,-0.0445931628346443,0.0812450796365738
0,0.318055560531181,-0.162500009973726,0.93750007624221,0.0458148941397667,-0.0696386396884918,0.0772744566202164
0,0.319444452414435,-0.163888889701015,0.955555573476797,-0.0171042270958424,-0.0720821022987366,0.142637029290199
0,0.305555557893823,-0.180555567988136,0.954166681593543,-0.0607810914516449,0.00397062394768,0.172874867916107
0,0.305555557893823,-0.180555567988136,0.954166681593543,-0.0470366254448891,-0.0378736443817616,0.0882700309157372
0,0.298611122789481,-0.190277786858986,0.972222276075846,-0.0427605658769607,-0.0769690200686455,0.0436768643558025
0,0.325000019947452,-0.197222234119292,0.993055557076942,-0.104457959532738,-0.167682513594627,0.05283984541893
0,0.325000019947452,-0.197222234119292,0.993055557076942,-0.207083314657211,-0.169820532202721,0.142637029290199
0,0.326388911830706,-0.193055558469529,0.972222276075846,-0.247400417923927,-0.18509216606617,0.281303435564041
0,0.320833344297689,-0.186111123365188,0.951388897827035,-0.137139245867729,-0.237626582384109,0.317955374717712
0,0.313888909193348,-0.188888894975731,0.926388941176177,-0.013744467869401,-0.259312301874161,0.318566232919693
0,0.306944449777077,-0.197222234119292,0.925000049292922,0.0549778714776039,-0.215330004692078,0.24862214922905
0,0.290277795801886,-0.190277786858986,0.929166724942685,0.0733038261532784,-0.1750128865242,0.138666406273842
0,0.283333336385615,-0.194444450352783,0.913888914226889,0.076052725315094,-0.142637029290199,0.0778853222727776
0,0.300000014672736,-0.197222234119292,0.913888914226889,0.13225232064724,-0.138360977172852,0.0931569486856461
0,0.319444452414435,-0.194444450352783,0.916666697993398,0.139888137578964,-0.087659165263176,0.144164204597473
0,0.316666668647927,-0.188888894975731,0.922222265526414,0.145691365003586,-0.117591559886932,0.164628177881241
0,0.315277801076602,-0.188888894975731,0.927777833059431,0.138971850275993,-0.111482910811901,0.154243469238281
0,0.318055560531181,-0.18333333959868,0.933333400592447,0.100181899964809,-0.112399205565453,0.161268427968025
0,0.318055560531181,-0.184722231481934,0.951388897827035,0.0360410511493683,-0.145691365003586,0.143553331494331
0,0.331944455051793,-0.197222234119292,0.94305554652751,0.0293215326964855,-0.171042263507843,0.173180297017098
0,0.341666673922643,-0.19166667874224,0.925000049292922,0.0555887371301651,-0.177761793136597,0.226325571537018
0,0.344444457689151,-0.184722231481934,0.906944454810619,0.0965167060494423,-0.234266817569733,0.291688144207001
0,0.347222241455659,-0.200000005729836,0.909722238577127,0.0916297882795334,-0.234877690672875,0.346055150032044
0,0.338888890156135,-0.20138889761309,0.911111130460381,0.0131336031481624,-0.22754730284214,0.346055150032044
0,0.334722238818301,-0.206944452990142,0.913888914226889,-0.0342084541916847,-0.213497400283814,0.351858377456665
0,0.323611128064198,-0.216666671860991,0.909722238577127,-0.0519235469400883,-0.19028452038765,0.314901024103165
0,0.312500017310094,-0.2194444556275,0.888888957576031,-0.0470366254448891,-0.145385921001434,0.293215304613113
0,0.308333341660331,-0.218055563744246,0.886111173809523,-0.0613919571042061,-0.109650313854218,0.24342979490757
0,0.301388906555989,-0.222222239394008,0.880555606276507,-0.0256563406437635,-0.0467311926186085,0.197614908218384
0,0.301388906555989,-0.222222239394008,0.879166714393253,0.0635299831628799,-0.0555887371301651,0.152410879731178
0,0.305555557893823,-0.223611131277262,0.883333390043015,0.154243469238281,-0.029626963660121,0.108123145997524
0,0.300000014672736,-0.234722242031366,0.904166671044111,0.100181899964809,-0.0436768643558025,0.0378736443817616
0,0.312500017310094,-0.2194444556275,0.930555616825939,-0.0372627787292004,0.0305432621389627,0.0186313893646002
0,0.318055560531181,-0.206944452990142,0.92083337364316,-0.103541657328606,0.0510072484612465,-0.0131336031481624
0,0.331944455051793,-0.202777789496344,0.901388887277602,-0.00152716308366507,0.00305432616733015,-0.0244346093386412
0,0.330555563168539,-0.181944447715425,0.89166674134254,0.167377084493637,-0.0180205255746841,0.00580321997404099
0,0.331944455051793,-0.17361112072783,0.887500065692777,0.216246291995048,0.00733038317412138,0.0354301854968071
0,0.33750002258481,-0.190277786858986,0.906944454810619,0.166460782289505,-0.00916297826915979,0.0613919571042061
0,0.344444457689151,-0.187500003092477,0.906944454810619,0.05283984541893,0.0320704244077206,0.113010071218014
0,0.354166676560001,-0.197222234119292,0.904166671044111,-0.0131336031481624,0.01588249579072,0.195476874709129
0,0.347222241455659,-0.193055558469529,0.904166671044111,0.0103847095742822,0.017409659922123,0.240070044994354
0,0.341666673922643,-0.19166667874224,0.884722281926269,0.128892570734024,-0.0280998013913631,0.2165517359972
0,0.331944455051793,-0.20138889761309,0.906944454810619,0.197920337319374,-0.0439822971820831,0.153021737933159
0,0.330555563168539,-0.212499996211229,0.933333400592447,0.165239050984383,-0.0348193198442459,0.0959058403968811
0,0.344444457689151,-0.218055563744246,0.94305554652751,0.0745255574584007,0.000610865245107561,0.0836885422468185
0,0.361111135976272,-0.226388890731841,0.930555616825939,-0.0134390350431204,-0.0033597587607801,0.149661988019943
0,0.354166676560001,-0.226388890731841,0.931944508709193,-0.0418442711234093,-0.0287106670439243,0.209832206368446
0,0.354166676560001,-0.226388890731841,0.931944508709193,-0.0809396430850029,-0.0461203269660473,0.202807262539864
0,0.33750002258481,-0.237500001485945,0.941666654644256,-0.102319926023483,-0.064446285367012,0.098960168659687
0,0.361111135976272,-0.250000004123303,0.940277860008718,-0.129808858036995,-0.0678060427308083,0.0232128798961639
0,0.361111135976272,-0.250000004123303,0.940277860008718,-0.193949714303017,-0.0711658000946045,0.153021737933159
0,0.387500008822313,-0.251388896006557,0.930555616825939,-0.384234249591827,-0.0516181141138077,0.392175495624542
0,0.366666679197359,-0.258333331110899,0.922222265526414,-0.480445504188538,-0.0293215326964855,0.511905074119568
0,0.366666679197359,-0.258333331110899,0.922222265526414,-0.313373863697052,-0.123394779860973,0.284052342176437
0,0.322222236180943,-0.286111120152123,0.895833319744586,-0.0995710343122482,-0.162184715270996,0.0161879286170006
0,0.341666673922643,-0.283333336385615,0.89166674134254,0.0149661982432008,-0.135917514562607,-0.0678060427308083
0,0.341666673922643,-0.283333336385615,0.89166674134254,0.0314595587551594,-0.172569438815117,-0.0754418596625328
0,0.376388898068209,-0.297222230906227,0.933333400592447,-0.0723875313997269,-0.193338856101036,-0.0109955742955208
0,0.383333357484479,-0.302777798439244,0.962500032893068,-0.242818936705589,-0.183870434761047,0.132557764649391
0,0.372222246730376,-0.305555557893823,0.958333357243305,-0.387899428606033,-0.239764615893364,0.196698606014252
0,0.368055571080613,-0.305555557893823,0.94305554652751,-0.368046313524246,-0.244040668010712,0.131030589342117
0,0.340277782039389,-0.312500017310094,0.887500065692777,-0.249233022332191,-0.257174253463745,0.0045814891345799
0,0.341666673922643,-0.308333341660331,0.887500065692777,-0.118813291192055,-0.255952537059784,-0.123700208961964
0,0.363888895430851,-0.311111125426839,0.886111173809523,-0.0543670058250427,-0.283441483974457,-0.122783914208412
0,0.377777789951463,-0.311111125426839,0.898611103511094,-0.111482910811901,-0.26908615231514,-0.0687223374843597
0,0.375000006184955,-0.298611122789481,0.906944454810619,-0.223882108926773,-0.238848313689232,-0.0311541277915239
0,0.386111116939059,-0.297222230906227,0.911111130460381,-0.31154128909111,-0.225409269332886,0.00549778714776039
0,0.391666684472075,-0.294444447139719,0.884722281926269,-0.288939267396927,-0.250760197639465,0.0546724386513233
0,0.393055576355329,-0.301388906555989,0.877777822509998,-0.203723564743996,-0.270918726921081,0.0412334054708481
0,0.391666684472075,-0.313888909193348,0.876388930626744,-0.108428582549095,-0.277943700551987,-0.013744467869401
0,0.390277792588821,-0.305555557893823,0.89166674134254,-0.144469633698463,-0.29107728600502,-0.0626136884093285
0,0.402777795226179,-0.301388906555989,0.895833319744586,-0.202501833438873,-0.246484130620956,-0.0626136884093285
0,0.413888905980283,-0.301388906555989,0.888888957576031,-0.236710280179977,-0.281303435564041,-0.0354301854968071
0,0.418055581630046,-0.312500017310094,0.873611146860236,-0.217468023300171,-0.276416510343552,-0.0146607663482428
0,0.4194444735133,-0.312500017310094,0.848611190209378,-0.0901026204228401,-0.317649930715561,-0.0592539273202419
0,0.426388884305712,-0.322222236180943,0.849999984844916,0.0445931628346443,-0.383623361587524,-0.110261179506779
0,0.433333343721983,-0.318055560531181,0.866666687443965,0.0647517144680023,-0.37079519033432,-0.131336033344269
0,0.444444478788016,-0.319444452414435,0.884722281926269,-0.00855211354792118,-0.371100634336472,-0.122478485107422
0,0.451388889580428,-0.309722233543585,0.862500011794203,-0.144164204597473,-0.42852196097374,-0.122173048555851
0,0.462500024646461,-0.312500017310094,0.836111163260091,-0.22693644464016,-0.392175495624542,-0.0635299831628799
0,0.466666700296224,-0.312500017310094,0.809722266102121,-0.199142068624496,-0.365602850914002,-0.0232128798961639
0,0.459722240879953,-0.306944449777077,0.813888941751883,-0.0922406539320946,-0.377514719963074,-0.0171042270958424
0,0.458333348996699,-0.306944449777077,0.805555590452358,-0.0565050356090069,-0.378736466169357,-0.0739146918058395
0,0.472222219205382,-0.308333341660331,0.801388914802596,-0.0598647929728031,-0.387288570404053,-0.0971275717020035
0,0.472222219205382,-0.308333341660331,0.801388914802596,-0.0809396430850029,-0.351858377456665,-0.0849102661013603
0,0.476388894855144,-0.295833339022973,0.793055563503071,-0.0986547395586967,-0.300545692443848,-0.0106901414692402
0,0.479166678621653,-0.295833339022973,0.790277828360421,-0.0739146918058395,-0.280692577362061,0.0265726372599602
0,0.484722246154669,-0.29166668768514,0.788888936477167,-0.0403171069920063,-0.272445887327194,0.0448985956609249
0,0.490277813687686,-0.304166666010569,0.777777801411134,-0.027488935738802,-0.215330004692078,0.0342084541916847
0,0.486111138037923,-0.315277801076602,0.768055606852213,-0.0412334054708481,-0.186619326472282,-0.0229074470698834
0,0.477777786738398,-0.304166666010569,0.754166688019672,-0.0268780700862408,-0.109039448201656,-0.0510072484612465
0,0.486111138037923,-0.306944449777077,0.754166688019672,0.0235183127224445,-0.0729983970522881,-0.0623082555830479
0,0.498611116363352,-0.290277795801886,0.755555579902926,0.0537561401724815,-0.0754418596625328,-0.0351247526705265
0,0.502777792013115,-0.295833339022973,0.777777801411134,0.00794124789535999,-0.0568104684352875,-0.00488692196086049
0,0.495833332596844,-0.294444447139719,0.786111152710659,-0.0662788823246956,-0.0262672062963247,-0.00397062394768
0,0.500000008246606,-0.297222230906227,0.779166693294388,-0.0433714315295219,0.0131336031481624,0.000305432622553781
0,0.502777792013115,-0.300000014672736,0.769444450111609,0.0503963828086853,-0.00366519158706069,-0.0207694191485643
0,0.513888927079148,-0.316666668647927,0.769444450111609,0.170736834406853,-0.0461203269660473,-0.00122173049021512
0,0.515277818962402,-0.320833344297689,0.800000022919342,0.130725160241127,-0.011606439948082,-0.00152716308366507
0,0.519444445988306,-0.331944455051793,0.82222224442755,0.0305432621389627,-0.0180205255746841,0.0183259565383196
0,0.526388905404577,-0.338888890156135,0.831944487610329,-0.0632245540618896,0.00397062394768,0.0568104684352875
0,0.526388905404577,-0.338888890156135,0.813888941751883,-0.0522289797663689,-0.0348193198442459,0.0549778714776039
0,0.523611121638068,-0.340277782039389,0.808333374218867,0.0232128798961639,-0.0354301854968071,0.0149661982432008
0,0.522222229754814,-0.344444457689151,0.812500049868629,0.0723875313997269,-0.05283984541893,-0.0510072484612465
0,0.529166689171085,-0.340277782039389,0.811111157985375,0.0653625801205635,-0.0656680166721344,-0.0384845100343227
0,0.53750004047061,-0.333333346935047,0.811111157985375,0.0397062413394451,-0.0812450796365738,0.0253509078174829
0,0.531944472937593,-0.33750002258481,0.808333374218867,0.0394008085131645,-0.064446285367012,0.0262672062963247
0,0.529166689171085,-0.331944455051793,0.805555590452358,0.00671951752156019,-0.0726929605007172,0.00549778714776039
0,0.533333364820847,-0.333333346935047,0.779166693294388,-0.00824668072164059,-0.0629191175103188,-0.0177150927484035
0,0.531944472937593,-0.33750002258481,0.775000017644626,-0.0277943685650826,-0.0540615729987621,0.0287106670439243
0,0.538888932353864,-0.331944455051793,0.780555585177642,-0.0390953756868839,-0.0928515195846558,0.0791070461273193
0,0.531944472937593,-0.333333346935047,0.768055606852213,-0.00733038317412138,-0.105374254286289,0.0919352173805237
0,0.526388905404577,-0.341666673922643,0.770833341994863,0.0323758572340012,-0.109344877302647,0.0491746515035629
0,0.522222229754814,-0.333333346935047,0.761111147435943,0.0329867228865623,-0.0864374339580536,0.00152716308366507
0,0.52083333787156,-0.33750002258481,0.770833341994863,0.00794124789535999,-0.0339030213654041,-0.0479529201984406
0,0.531944472937593,-0.336111130701556,0.770833341994863,-0.00977384392172098,-0.0305432621389627,-0.0684169083833694
0,0.541666667496514,-0.330555563168539,0.770833341994863,-0.0113010071218014,-0.0284052342176437,-0.0189368221908808
0,0.54027777561326,-0.334722238818301,0.770833341994863,0.01588249579072,-0.0299323964864016,0.0305432621389627
0,0.529166689171085,-0.33750002258481,0.781944477060896,0.0219911485910416,-0.0442877300083637,0.0259617734700441
0,0.530555581054339,-0.343055565805897,0.781944477060896,0.019547687843442,-0.0021380283869803,-0.0235183127224445
0,0.530555581054339,-0.331944455051793,0.779166693294388,0.00519235478714108,0.0100792767480016,-0.0549778714776039
0,0.536111148587356,-0.33750002258481,0.78333336894415,0.000610865245107561,-0.00305432616733015,-0.0549778714776039
0,0.543055559379768,-0.323611128064198,0.797222239152834,0.0106901414692402,0.000610865245107561,-0.0106901414692402
0,0.536111148587356,-0.320833344297689,0.798611131036088,-0.015577063895762,0.011606439948082,0.0146607663482428
0,0.529166689171085,-0.322222236180943,0.795833347269579,-0.0464257597923279,0.019547687843442,-0.0348193198442459
0,0.533333364820847,-0.315277801076602,0.78333336894415,-0.0152716310694814,0.0143553335219622,-0.0726929605007172
0,0.536111148587356,-0.315277801076602,0.779166693294388,0.0268780700862408,-0.00305432616733015,-0.0757472887635231
0,0.544444451263022,-0.318055560531181,0.777777801411134,0.0849102661013603,-0.0366519130766392,-0.0131336031481624
0,0.544444451263022,-0.318055560531181,0.777777801411134,0.0500909499824047,-0.0552833043038845,0.03176499158144
0,0.541666667496514,-0.323611128064198,0.791666671619817,-0.0161879286170006,-0.0488692186772823,0.0500909499824047
0,0.534722256704101,-0.331944455051793,0.786111152710659,-0.0390953756868839,-0.0235183127224445,0.0323758572340012
0,0.534722256704101,-0.331944455051793,0.786111152710659,-0.027488935738802,-0.00946841109544039,-0.00305432616733015
0,0.534722256704101,-0.333333346935047,0.772222233878117,0.0351247526705265,-0.00855211354792118,-0.0177150927484035
0,0.538888932353864,-0.331944455051793,0.77638890952788,0.0809396430850029,-0.0287106670439243,-0.0204639863222837
0,0.538888932353864,-0.331944455051793,0.77638890952788,0.0812450796365738,-0.0491746515035629,-0.00916297826915979
0,0.543055559379768,-0.340277782039389,0.78333336894415,0.0357356183230877,-0.0189368221908808,-0.00885754637420177
0,0.545833343146276,-0.336111130701556,0.784722260827405,-0.0021380283869803,-0.00519235478714108,-0.0167987942695618
0,0.545833343146276,-0.336111130701556,0.784722260827405,-0.00152716308366507,-0.00733038317412138,-0.0186313893646002
0,0.54722223502953,-0.333333346935047,0.77638890952788,0.0277943685650826,-0.0229074470698834,-0.0299323964864016
0,0.555555586329055,-0.333333346935047,0.78333336894415,0.0302378293126821,-0.015577063895762,-0.0351247526705265
0,0.555555586329055,-0.333333346935047,0.78333336894415,0.0027488935738802,-0.0748309940099716,-0.0280998013913631
0,0.555555586329055,-0.334722238818301,0.798611131036088,-0.0641408488154411,-0.0360410511493683,0.0201585534960032
0,0.552777802562547,-0.327777779402031,0.791666671619817,-0.0983493030071259,-0.0397062413394451,0.013744467869401
0,0.545833343146276,-0.334722238818301,0.775000017644626,-0.0510072484612465,-0.0134390350431204,-0.0265726372599602
0,0.541666667496514,-0.334722238818301,0.775000017644626,0.00427605677396059,-0.0400116741657257,-0.0711658000946045
0,0.545833343146276,-0.331944455051793,0.765277823085705,0.0241291765123606,-0.0494800843298435,-0.0852157026529312
0,0.558333370095563,-0.33750002258481,0.763888931202451,0.00641408516094089,-0.0397062413394451,-0.03176499158144
0,0.562499997121468,-0.334722238818301,0.772222233878117,-0.0445931628346443,-0.0510072484612465,0.01588249579072
0,0.552777802562547,-0.326388911830706,0.781944477060896,-0.0733038261532784,-0.0149661982432008,-0.00122173049021512
0,0.545833343146276,-0.322222236180943,0.775000017644626,-0.0415388382971287,-0.0351247526705265,-0.0522289797663689
0,0.541666667496514,-0.322222236180943,0.763888931202451,0.00366519158706069,-0.0164933614432812,-0.0620028227567673
0,0.54722223502953,-0.325000019947452,0.759722255552688,0.0339030213654041,-0.0354301854968071,-0.0552833043038845
0,0.554166694445801,-0.325000019947452,0.773611125761372,0.0320704244077206,-0.0314595587551594,-0.0128281703218818
0,0.552777802562547,-0.325000019947452,0.779166693294388,-0.00397062394768,-0.0354301854968071,0.015577063895762
0,0.541666667496514,-0.340277782039389,0.78333336894415,-0.0167987942695618,-0.00702495034784079,0.0113010071218014
0,0.536111148587356,-0.33750002258481,0.786111152710659,-0.0342084541916847,0.0186313893646002,-0.0461203269660473
0,0.538888932353864,-0.331944455051793,0.77638890952788,-0.0210748501121998,-0.00244346098043024,-0.0839939713478088
0,0.544444451263022,-0.329166671285285,0.784722260827405,-0.00824668072164059,-0.00152716308366507,-0.0653625801205635
0,0.548611126912784,-0.330555563168539,0.780555585177642,-0.00885754637420177,-0.00244346098043024,-0.0653625801205635
0,0.551388910679293,-0.320833344297689,0.769444450111609,-0.00366519158706069,-0.00580321997404099,-0.0473420582711697
0,0.555555586329055,-0.325000019947452,0.773611125761372,0.00610865233466029,-0.0143553335219622,-0.000305432622553781
0,0.569444456537738,-0.333333346935047,0.772222233878117,0.0186313893646002,-0.0109955742955208,0.0595593601465225
0,0.568055564654484,-0.344444457689151,0.786111152710659,0.0189368221908808,-0.0384845100343227,0.0516181141138077
0,0.562499997121468,-0.355555568443255,0.791666671619817,0.000610865245107561,-0.0314595587551594,0.00549778714776039
0,0.556944478212309,-0.356944460326509,0.790277828360421,-0.0287106670439243,-0.0403171069920063,-0.0244346093386412
0,0.562499997121468,-0.351388892793493,0.775000017644626,-0.0729983970522881,-0.0235183127224445,-0.00397062394768
0,0.561111153862072,-0.348611133338914,0.759722255552688,-0.0412334054708481,-0.0284052342176437,0.0247400421649218
0,0.565277780887976,-0.352777784676747,0.75694447178618,-0.015577063895762,-0.0500909499824047,0.0574213340878487
0,0.572222240304247,-0.363888895430851,0.775000017644626,-0.0583376325666905,-0.0293215326964855,0.0809396430850029
0,0.576388915954009,-0.373611114301701,0.781944477060896,-0.156381502747536,-0.0497855171561241,0.0968221426010132
0,0.577777807837263,-0.375000006184955,0.779166693294388,-0.184481307864189,-0.0433714315295219,0.0729983970522881
0,0.575000024070755,-0.363888895430851,0.755555579902926,-0.134695783257484,-0.0335975885391235,0.0268780700862408
0,0.562499997121468,-0.362500003547597,0.720833380069289,-0.000916297896765172,-0.0247400421649218,0.00763581553474069
0,0.559722261978817,-0.351388892793493,0.709722245003256,0.0797179117798805,0.00794124789535999,0.0620028227567673
0,0.563888889004722,-0.345833349572405,0.701388893703731,0.138360977172852,-0.0143553335219622,0.159130394458771
0,0.562499997121468,-0.344444457689151,0.719444488186035,0.16951510310173,0.0180205255746841,0.302378296852112
0,0.577777807837263,-0.355555568443255,0.727777790861702,0.119729585945606,0.0284052342176437,0.509767055511475
0,0.588888894279438,-0.376388898068209,0.745833336720147,0.0332921557128429,0.113926365971565,0.722348153591156
0,0.551388910679293,-0.404166687109433,0.75000001236991,-0.00152716308366507,0.169820532202721,0.608421802520752
0,0.529166689171085,-0.411111122213775,0.733333358394718,0.106595985591412,0.120951317250729,0.383317947387695
0,0.525000013521323,-0.406944470875941,0.731944466511464,0.366213709115982,0.0183259565383196,0.144775062799454
0,0.548611126912784,-0.405555578992687,0.720833380069289,0.59315013885498,-0.0323758572340012,0.078801617026329
0,0.597222245578963,-0.412500014097029,0.745833336720147,0.649655163288116,-0.247094988822937,0.256563395261765
0,0.572222240304247,-0.402777795226179,0.791666671619817,0.489913940429688,-0.314901024103165,0.347276896238327
0,0.595833353695709,-0.408333338447267,0.766666714968959,0.448375076055527,-0.000916297896765172,0.685696244239807
0,0.594444461812454,-0.405555578992687,0.75000001236991,0.422107875347138,-0.0430659987032413,0.911410927772522
0,0.529166689171085,-0.384722225055805,0.766666714968959,0.288328409194946,0.04764748737216,0.792292237281799
0,0.509722251429385,-0.391666684472075,0.784722260827405,0.11606439948082,-0.0748309940099716,0.551000475883484
0,0.505555575779623,-0.388888900705567,0.784722260827405,0.22235494852066,-0.146913096308708,0.447153359651566
0,0.522222229754814,-0.397222227693163,0.75694447178618,0.518930017948151,-0.148134827613831,0.486248731613159
0,0.519444445988306,-0.427777776188966,0.744444493460751,0.886365473270416,-0.0574213340878487,0.666453957557678
0,0.462500024646461,-0.411111122213775,0.899999995394348,0.318260788917542,-0.525954961776733,0.58551436662674
0,0.44861110581392,-0.437500019371745,0.886111173809523,-0.0390953756868839,0.36987891793251,0.594982743263245
0,0.469444484062732,-0.430555559955475,0.831944487610329,-0.0858265683054924,0.342389971017838,0.686917960643768
0,0.470833327322128,-0.390277792588821,0.765277823085705,0.209221348166466,0.331088960170746,0.742812156677246
0,0.483333354271415,-0.358333352209763,0.716666704419527,0.570853590965271,0.780685782432556,0.63896507024765
0,0.454166673346937,-0.345833349572405,0.73055557462821,1.05190992355347,0.470366239547729,0.703411340713501
0,0.468055592179478,-0.361111135976272,0.837500055143345,0.770606517791748,0.115758962929249,1.06504356861115
0,0.459722240879953,-0.369444462963867,0.926388941176177,0.40225476026535,0.340862810611725,1.21592724323273
0,0.411111122213775,-0.365277787314105,0.901388887277602,0.328034639358521,0.430049121379852,1.09100532531738
0,0.418055581630046,-0.355555568443255,0.840277838909853,0.639881372451782,0.213802829384804,0.959669291973114
0,0.431944451838729,-0.380555573717971,0.794444455386325,0.884838283061981,0.0558941699564457,1.0067058801651
0,0.423611149163062,-0.377777789951463,0.805555590452358,1.16705811023712,0.106595985591412,1.10810959339142
0,0.380555573717971,-0.345833349572405,0.847222298326124,1.41598558425903,0.160657554864883,1.14109623432159
0,0.340277782039389,-0.295833339022973,0.901388887277602,1.62917757034302,0.05283984541893,1.08947813510895
0,0.313888909193348,-0.244444460902216,0.904166671044111,1.60443758964539,0.0781907513737679,1.09314334392548
0,0.316666668647927,-0.213888888094483,0.866666687443965,1.133460521698,-0.483194410800934,0.978606104850769
0,0.298611122789481,-0.17361112072783,0.869444471210474,1.01953411102295,-0.638659596443176,0.961501896381378
0,0.33750002258481,-0.168055565350778,0.847222298326124,1.06473815441132,-0.0204639863222837,0.904996871948242
0,0.350000000910239,-0.162500009973726,0.827777811960566,1.23822391033173,0.431270867586136,0.921184778213501
0,0.348611133338914,-0.161111118090472,0.858333336144441,1.4245377779007,0.718072116374969,1.0134254693985
0,0.322222236180943,-0.122222230451108,0.893055633225794,1.18599486351013,0.502742111682892,1.21470558643341
0,0.311111125426839,-0.154166670830166,0.908333346693873,0.644768238067627,0.36987891793251,1.33321344852448
0,0.362500003547597,-0.052777782159976,1.0125000434425,0.252287358045578,-0.504574716091156,1.26998889446259
0,0.405555578992687,-0.00972222266958873,1.04861113515939,0.577267646789551,-0.954476952552795,0.667064845561981
0,0.320833344297689,-0.0569444456537738,0.973611167959101,0.621555387973785,-0.589484989643097,0.4758640229702
0,0.25555557165632,-0.120833338567854,0.904166671044111,0.546724379062653,-0.331394404172897,0.480140089988708
0,0.277777793164528,-0.187500003092477,0.880555606276507,0.576656818389893,-0.0100792767480016,0.617279350757599
0,0.316666668647927,-0.208333344873396,0.887500065692777,0.249843880534172,0.769384801387787,0.739146947860718
0,0.316666668647927,-0.208333344873396,0.887500065692777,0.218384325504303,1.19607412815094,0.933096647262573
0,0.130555557438704,-0.0444444460554069,0.972222276075846,0.52381694316864,0.972192049026489,1.22050881385803
0,0.0361111129898289,-0.00555555575692586,0.977777843608863,0.551305890083313,1.2990049123764,1.59222030639648
0,0.0361111129898289,-0.00555555575692586,0.977777843608863,0.261144906282425,0.59650993347168,2.61205983161926
0,0.223611131277262,-0.0819444448505077,0.986111194908388,-0.0800233483314514,0.188451930880547,3.00484609603882
0,0.404166687109433,0.111111119697004,1.06666672964169,0.138971850275993,0.350025773048401,2.6835310459137
0,0.404166687109433,0.111111119697004,1.06666672964169,0.409585148096085,0.0308486949652433,2.08091235160828
0,0.348611133338914,0.029166668768514,1.03472221632685,0.337197601795196,0.813977956771851,1.69942712783813
0,0.281944444502361,-0.0597222233422998,0.805555590452358,-0.211053937673569,1.31916344165802,1.74585282802582
0,0.281944444502361,-0.0597222233422998,0.805555590452358,-1.0256427526474,0.375071257352829,1.35245561599731
0,0.231944458264858,-0.102777780553444,0.858333336144441,-0.952644348144531,-0.63896507024765,1.22936630249023
0,0.175000000455119,-0.193055558469529,0.959722249126559,-0.718377530574799,-0.68172562122345,0.978911578655243
0,0.208333344873396,-0.309722233543585,0.934722292475701,-0.541837453842163,0.0222965814173222,0.566272079944611
0,0.205555561106887,-0.440277803138253,0.945833330294018,-0.10598511993885,1.35856425762176,0.0507018156349659
0,0.298611122789481,-0.509722251429385,0.904166671044111,0.718072116374969,3.30722451210022,-0.733343720436096
0,0.29166668768514,-0.49444444071359,1.03750000009336,2.15940856933594,4.74092531204224,-0.622166275978088
0,0.168055565350778,-0.261111114877407,1.05555559457566,3.57936501502991,4.3203444480896,0.725402474403381
0,0.0361111129898289,-0.0375000018340919,0.912500022343635,1.14598321914673,2.23912644386292,1.32618844509125
0,0.0638888929140799,-0.0819444448505077,0.691666699144811,-1.66399693489075,-0.536950528621674,0.859181940555573
0,0.0152777788063885,-0.104166672436698,0.751388904253164,-3.24797058105469,-2.72323727607727,1.2278391122818
0,-0.111111119697004,-0.102777780553444,0.89166674134254,-3.2369749546051,-2.70979833602905,1.55648469924927
0,-0.130555557438704,-0.193055558469529,1.00555558402623,-2.36465930938721,-1.46638202667236,1.58336269855499
0,-0.0986111170596459,-0.286111120152123,1.06527783775844,-1.04610669612884,-0.450818538665771,1.29839408397675
0,-0.033333335301303,-0.366666679197359,1.06250005399193,0.135001212358475,0.119424156844616,1.03114056587219
0,-0.033333335301303,-0.413888905980283,1.0125000434425,0.255341678857803,-0.418442696332932,1.13620936870575
0,-0.0388888906783549,-0.362500003547597,1.00138890837647,-0.106290549039841,-0.927904307842255,1.36711645126343
0,-0.0986111170596459,-0.287500012035377,1.03888889197661,-0.609338104724884,-1.01312005519867,1.40071403980255
0,-0.105555564319952,-0.290277795801886,1.06666672964169,-0.982271313667297,-1.12215948104858,1.14506685733795
0,-0.0958333393711199,-0.327777779402031,1.02500007039179,-1.05160450935364,-1.15270268917084,0.9089674949646
0,-0.0680555564078778,-0.330555563168539,0.979166735492117,-0.808480143547058,-1.0567969083786,0.693942904472351
0,-0.03194444645704,-0.344444457689151,0.92083337364316,-0.25870144367218,-1.03480577468872,0.429438263177872
0,0.00972222266958873,-0.340277782039389,0.913888914226889,0.149356558918953,-1.15728425979614,0.281914323568344
0,0.0402777795226179,-0.343055565805897,0.886111173809523,0.298713117837906,-1.43828225135803,0.197920337319374
0,0.0416666683668809,-0.344444457689151,0.890277849459286,0.249843880534172,-1.67407619953155,0.183259576559067
0,0.052777782159976,-0.318055560531181,0.904166671044111,0.0430659987032413,-1.7989981174469,0.103236228227615
0,0.0638888929140799,-0.319444452414435,0.908333346693873,-0.117896988987923,-1.80083072185516,0.0751364231109619
0,0.0958333393711199,-0.312500017310094,0.898611103511094,-0.184481307864189,-1.66246974468231,0.133779495954514
0,0.138888896582264,-0.313888909193348,0.925000049292922,-0.346666038036346,-1.48592972755432,0.146913096308708
0,0.150000007336368,-0.329166671285285,0.936111184358955,-0.645073711872101,-1.27854096889496,0.191200822591782
0,0.163888889701015,-0.350000000910239,0.933333400592447,-0.876286208629608,-0.870177567005157,0.266337245702743
0,0.18333333959868,-0.359722244093018,0.898611103511094,-0.916603326797485,-0.504269242286682,0.188146501779556
0,0.198611113846581,-0.356944460326509,0.856944444261187,-0.715323209762573,-0.608727216720581,0.150272846221924
0,0.212499996211229,-0.358333352209763,0.85138887672817,-0.398589581251144,-0.760832667350769,0.0122173046693206
0,0.243055569018962,-0.381944465601225,0.815277785011279,-0.161268427968025,-0.838412523269653,-0.267864406108856
0,0.262500006760661,-0.400000011459671,0.815277785011279,-0.0113010071218014,-0.798095464706421,-0.444404453039169
0,0.273611117514765,-0.404166687109433,0.899999995394348,0.0830776765942574,-0.350636661052704,-0.405309081077576
0,0.312500017310094,-0.406944470875941,0.880555606276507,-0.0855211317539215,-0.505491018295288,-0.431881725788117
0,0.327777779402031,-0.4194444735133,0.82222224442755,-0.438295811414719,-0.736092627048492,-0.273362189531326
0,0.354166676560001,-0.411111122213775,0.781944477060896,-0.698524415493011,-1.04824471473694,-0.167682513594627
0,0.370833354847121,-0.426388884305712,0.738888925927735,-0.828333258628845,-1.16491997241974,-0.282830595970154
0,0.390277792588821,-0.427777776188966,0.78333336894415,-0.826500654220581,-1.1389582157135,-0.492662817239761
0,0.394444468238583,-0.483333354271415,0.815277785011279,-0.701578736305237,-0.838412523269653,-0.524427831172943
0,0.415277797863537,-0.515277818962402,0.786111152710659,-0.595593631267548,-0.766330420970917,-0.447458803653717
0,0.42916666807222,-0.522222229754814,0.729166682744956,-0.571769893169403,-0.855211317539215,-0.473115146160126
0,0.402777795226179,-0.538888932353864,0.773611125761372,-0.0922406539320946,-0.430049121379852,-0.626136898994446
0,0.416666689746791,-0.552777802562547,0.743055601577497,-0.00855211354792118,-0.63896507024765,-0.797179162502289
0,0.409722230330521,-0.538888932353864,0.715277812536273,-0.0378736443817616,-0.952033460140228,-0.806953012943268
