Activity,acc_x,acc_y,acc_z,gyro_x,gyro_y,gyro_z
0,0.259722222994153,0.0916666697993398,0.926388941176177,0.0986547395586967,0.12156218290329,0.141720741987228
0,0.218055563744246,0.0875000002275597,0.936111184358955,0.0696386396884918,0.164322748780251,-0.165239050984383
0,0.286111120152123,0.106944444047242,0.923611157409668,0.0894917547702789,0.241291776299477,-0.45998153090477
0,0.286111120152123,0.106944444047242,0.923611157409668,0.124616511166096,0.375987559556961,-0.461508691310883
0,0.468055592179478,0.130555557438704,0.908333346693873,0.159435823559761,0.417526394128799,-0.231823354959488
0,0.468055592179478,0.130555557438704,0.908333346693873,0.0537561401724815,0.24862214922905,0.131336033344269
0,0.479166678621653,0.14583334384257,0.906944454810619,-0.0406225398182869,0.0632245540618896,0.307265222072601
0,0.447222262554524,0.156944454596674,0.92083337364316,-0.0442877300083637,-0.0152716310694814,0.295353353023529
0,0.409722230330521,0.166666673467524,0.926388941176177,-0.0027488935738802,-0.00733038317412138,0.144775062799454
0,0.409722230330521,0.166666673467524,0.926388941176177,-0.0103847095742822,-0.0403171069920063,0.143247902393341
0,0.400000011459671,0.141666668192807,0.952777789710289,-0.0204639863222837,-0.0232128798961639,0.161879286170006
0,0.377777789951463,0.130555557438704,0.962500032893068,-0.0442877300083637,-0.0531452745199203,0.149661988019943
0,0.350000000910239,0.123611110178398,0.954166681593543,-0.108123145997524,-0.134695783257484,0.0229074470698834
0,0.33750002258481,0.130555557438704,0.959722249126559,-0.136833816766739,-0.0992656052112579,-0.142026171088219
0,0.325000019947452,0.120833338567854,0.954166681593543,-0.116675265133381,-0.0394008085131645,-0.234266817569733
0,0.287500012035377,0.140277788465518,0.940277860008718,-0.119118720293045,-0.00733038317412138,-0.26419922709465
0,0.247222220356795,0.108333335930496,0.93750007624221,-0.13744467496872,0.0711658000946045,-0.469449937343597
0,0.280555576931036,0.152777778946911,0.925000049292922,-0.0858265683054924,0.253509074449539,-0.716544926166534
0,0.280555576931036,0.152777778946911,0.925000049292922,-0.0797179117798805,0.568410098552704,-0.858571112155914
0,0.341666673922643,0.13750000469901,0.909722238577127,-0.218995183706284,0.281303435564041,-0.872010111808777
0,0.368055571080613,0.0958333393711199,0.880555606276507,-0.13225232064724,0.138360977172852,-0.652404069900513
0,0.380555573717971,0.0847222225390337,0.881944498159761,-0.0891863256692886,0.0232128798961639,-0.333837866783142
0,0.380555573717971,0.0916666697993398,0.870833363093728,-0.0510072484612465,0.109650313854218,-0.0345138870179653
0,0.372222246730376,0.108333335930496,0.894444525109048,-0.0439822971820831,0.0555887371301651,0.0458148941397667
0,0.350000000910239,0.120833338567854,0.89722221162784,-0.01588249579072,0.145080491900444,0.0733038261532784
0,0.331944455051793,0.118055554801345,0.913888914226889,-0.0259617734700441,0.202807262539864,0.0668897479772568
0,0.331944455051793,0.118055554801345,0.913888914226889,-0.0320704244077206,0.279776275157929,0.0164933614432812
0,0.356944460326509,0.101388894748172,0.959722249126559,-0.076052725315094,0.273667633533478,-0.00763581553474069
0,0.380555573717971,0.0888888921108138,0.962500032893068,-0.0778853222727776,0.248927593231201,0.106595985591412
0,0.400000011459671,0.0986111170596459,0.96666670854283,-0.0943786799907684,0.263588339090347,0.250454753637314
0,0.388888900705567,0.108333335930496,0.96666670854283,-0.0378736443817616,0.418442696332932,0.37568211555481
0,0.380555573717971,0.125000002061652,0.965277816659576,-0.0433714315295219,0.366824567317963,0.450513124465942
0,0.366666679197359,0.130555557438704,0.958333357243305,-0.015577063895762,0.198836639523506,0.46059238910675
0,0.333333346935047,0.133333341205212,0.969444492309338,-0.0198531206697226,0.0161879286170006,0.350331217050552
0,0.319444452414435,0.134722233088466,0.970833384192592,-0.0497855171561241,-0.128892570734024,0.147523954510689
0,0.327777779402031,0.148611115453114,0.968055600426084,0.021685715764761,-0.197004035115242,0.118202425539494
0,0.422222257279808,0.158333334323963,0.972222276075846,0.0293215326964855,-0.0693332031369209,0.362243086099625
0,0.483333354271415,0.166666673467524,0.952777789710289,-0.0879645943641663,-0.013744467869401,0.72570788860321
0,0.426388884305712,0.158333334323963,0.947222222177272,-0.109955742955208,-0.0284052342176437,0.762665271759033
0,0.426388884305712,0.158333334323963,0.947222222177272,0.00366519158706069,-0.0665843114256859,0.741895854473114
0,0.272222225631511,0.0972222251763917,0.944444438410764,0.199142068624496,-0.120951317250729,0.530841886997223
0,0.243055569018962,0.0791666671619817,0.956944465360051,0.209832206368446,-0.294131606817245,0.361632227897644
0,0.197222234119292,0.0472222237439329,0.972222276075846,0.157603234052658,-0.413555771112442,0.165239050984383
0,0.140277788465518,0.0458333348996699,0.975000059842355,0.0836885422468185,-0.449291378259659,-0.0339030213654041
0,0.13750000469901,0.0361111129898289,0.96666670854283,0.0555887371301651,-0.29107728600502,-0.35491269826889
0,0.163888889701015,0.0416666683668809,0.961111141009813,0.0656680166721344,-0.198836639523506,-0.587652385234833
0,0.218055563744246,0.0513888902767219,0.945833330294018,0.0513126812875271,-0.129808858036995,-0.671035468578339
0,0.270833333748257,0.0569444456537738,0.938888968125464,0.0497855171561241,0.167682513594627,-0.612392425537109
0,0.309722233543585,0.0638888929140799,0.913888914226889,-0.0360410511493683,0.335365027189255,-0.394924372434616
0,0.309722233543585,0.0638888929140799,0.913888914226889,-0.0699440687894821,0.448680520057678,-0.176845490932465
0,0.272222225631511,0.0597222233422998,0.918055589876652,-0.0219911485910416,0.424551337957382,-0.21685716509819
0,0.259722222994153,0.0916666697993398,0.919444481759906,-0.0671951770782471,0.246484130620956,-0.404698222875595
0,0.269444466176932,0.0750000036681839,0.916666697993398,-0.0699440687894821,0.313679307699203,-0.289855569601059
0,0.315277801076602,0.0750000036681839,0.934722292475701,-0.114842668175697,0.30757063627243,-0.125838235020638
0,0.338888890156135,0.0583333375370279,0.933333400592447,-0.172263994812965,0.36041048169136,0.0577267669141293
0,0.312500017310094,0.0791666671619817,0.93750007624221,-0.223882108926773,0.482278108596802,0.164628177881241
0,0.290277795801886,0.0833333367337618,0.94305554652751,-0.198531210422516,0.386983126401901,0.124311074614525
0,0.259722222994153,0.0888888921108138,0.96666670854283,-0.217468023300171,0.239459171891212,-0.0177150927484035
0,0.224999998848587,0.100000002864918,0.976388951725609,-0.229990765452385,0.315817326307297,-0.302378296852112
0,0.20972223675665,0.113888891307548,0.986111194908388,-0.252287358045578,0.567493796348572,-0.474031418561935
0,0.206944452990142,0.108333335930496,0.994444448960196,-0.320093393325806,0.687223374843597,-0.695164620876312
0,0.227777782615095,0.12777778582816,0.997222232726705,-0.347582310438156,0.737314343452454,-0.949895441532135
0,0.265277790527169,0.12777778582816,0.973611167959101,-0.277027398347855,0.645073711872101,-1.03022420406342
0,0.268055574293678,0.0583333375370279,0.975000059842355,-0.109650313854218,0.661567032337189,-0.415999233722687
0,0.180555567988136,0.0361111129898289,0.95000000594378,-0.0803287774324417,0.338113903999329,-0.465173870325089
0,0.0902777839940679,0.111111119697004,0.984722303025134,0.17470745742321,0.912632703781128,-1.20523715019226
0,0.140277788465518,0.12777778582816,1.02222228662528,0.276111096143722,0.899804532527924,-1.24311077594757
0,0.250000004123303,0.0736111117849297,1.01805561097552,0.177456349134445,0.500298619270325,-0.764803290367126
0,0.288888903918631,0.0666666706026059,0.98888888142718,0.0513126812875271,0.0378736443817616,-0.244346097111702
0,0.272222225631511,0.0708333340964038,0.979166735492117,0.113010071218014,-0.384845107793808,0.0720821022987366
0,0.266666682410424,0.0750000036681839,0.96666670854283,0.202501833438873,-0.752280533313751,0.234266817569733
0,0.263888898643915,0.0777777813567098,0.95000000594378,0.279470860958099,-0.969748556613922,0.389426589012146
0,0.273611117514765,0.0861111144222878,0.947222222177272,0.406836241483688,-1.01922869682312,0.541226625442505
0,0.283333336385615,0.0916666697993398,0.947222222177272,0.538783133029938,-0.777020573616028,0.664926826953888
0,0.269444466176932,0.0944444474878658,0.919444481759906,0.472504258155823,-0.667064845561981,0.620639085769653
0,0.231944458264858,0.118055554801345,0.911111130460381,0.211053937673569,-0.972497463226318,0.483194410800934
0,0.226388890731841,0.108333335930496,0.911111130460381,0.131641462445259,-0.808174729347229,0.411417752504349
0,0.237500001485945,0.0944444474878658,0.936111184358955,0.110261179506779,-0.673173487186432,0.384845107793808
0,0.243055569018962,0.0888888921108138,0.951388897827035,0.0500909499824047,-0.74464476108551,0.319787949323654
0,0.259722222994153,0.0722222259796579,0.973611167959101,-0.236710280179977,-1.21837067604065,0.341473668813705
0,0.287500012035377,0.033333335301303,0.945833330294018,-0.745866477489471,-1.44530713558197,0.436463207006455
0,0.325000019947452,0.033333335301303,0.979166735492117,-0.82527893781662,-1.31824719905853,0.382096201181412
0,0.329166671285285,0.027777779924251,0.969444492309338,-0.979216992855072,-0.873537302017212,0.311235845088959
0,0.234722242031366,-0.0638888929140799,0.898611103511094,-1.08367490768433,-0.921490252017975,0.261755764484406
0,0.270833333748257,-0.0833333367337618,0.787500044593913,-1.12551915645599,-0.963334500789642,0.118202425539494
0,0.315277801076602,-0.0916666697993398,0.738888925927735,-0.660956203937531,-0.153938040137291,-0.0974330082535744
0,0.361111135976272,-0.0444444460554069,0.663888910103586,-0.487775892019272,0.118202425539494,-0.429743707180023
0,0.322222236180943,-0.0986111170596459,0.702777785586986,-0.556803643703461,-0.395229816436768,-0.657901883125305
0,0.340277782039389,-0.0875000002275597,0.702777785586986,-0.911105513572693,-1.35062301158905,-1.02258837223053
0,0.334722238818301,-0.0930555616825939,0.687500023495048,-0.747699081897736,-0.519540905952454,-1.64933621883392
0,0.380555573717971,-0.186111123365188,1.05833337834217,-0.130419731140137,2.94437050819397,-1.67315995693207
0,0.456944457113445,-0.208333344873396,0.977777843608863,-0.581543684005737,2.64535188674927,-1.716836810112
0,0.441666695021508,-0.259722222994153,0.843055622676362,-1.03144598007202,-0.49235737323761,-1.98042511940002
0,0.438888911254999,-0.244444460902216,0.790277828360421,-0.569020986557007,-1.56595301628113,-1.86924767494202
0,0.470833327322128,-0.231944458264858,0.823611136310804,-0.504574716091156,-1.96942949295044,-1.68140661716461
0,0.527777797287831,-0.20138889761309,0.913888914226889,-1.03236222267151,-2.16307377815247,-1.69392931461334
0,0.643055580478633,-0.0569444456537738,1.01111115155925,-1.69087505340576,-1.31885802745819,-1.90040183067322
0,0.723611115211939,-0.0569444456537738,0.983333411141879,-1.8924605846405,-1.19301986694336,-2.34419536590576
0,0.718055596302781,-0.0472222237439329,0.902777779160856,-2.26539373397827,-1.55526292324066,-2.44193387031555
0,0.725000007095193,-0.0347222241455659,0.838888947026599,-2.42757844924927,-1.71439325809479,-2.17926168441773
0,0.773611125761372,-0.0638888929140799,0.781944477060896,-1.71286618709564,-2.42941117286682,-1.7012597322464
0,0.779166693294388,-0.0888888921108138,0.713888920653019,-0.889419794082642,-3.48162651062012,-1.24311077594757
0,0.71111113688651,0.0402777795226179,0.63888890482887,-0.226631000638008,-3.79622197151184,-1.00365161895752
0,0.71111113688651,0.0402777795226179,0.63888890482887,0.172263994812965,-2.8292224407196,-1.3234395980835
0,0.577777807837263,0.101388894748172,0.686111131611794,0.322231411933899,-2.02959966659546,-1.65605568885803
0,0.608333332021137,0.0652777787193518,0.738888925927735,0.289244681596756,-1.52288711071014,-1.5534303188324
0,0.709722245003256,0.00138888893923146,0.837500055143345,0.0308486949652433,-1.85214340686798,-1.3356568813324
0,0.75000001236991,-0.00277777787846293,0.873611146860236,-0.25411993265152,-2.40161681175232,-1.29503428936005
0,0.818055568777787,0.0972222251763917,0.873611146860236,-0.378736466169357,-2.44376635551453,-1.48806774616241
0,0.811111157985375,0.168055565350778,0.795833347269579,-1.11269104480743,-1.96209919452667,-1.82037842273712
0,0.904166671044111,0.17361112072783,0.899999995394348,-1.42667579650879,-1.49784159660339,-1.96301543712616
0,0.980555627375371,0.14722222356986,0.861111119910949,-1.2122620344162,-1.1267409324646,-1.50944805145264
0,1.00555558402623,0.158333334323963,0.712500028769764,-0.786794424057007,-1.15025925636292,-1.12460291385651
0,1.01666671909226,0.161111118090472,0.584722267253534,-0.464563012123108,-1.39827048778534,-0.744339287281036
0,1.0125000434425,0.33750002258481,0.411111122213775,0.0488692186772823,-1.72050201892853,-0.693637490272522
0,1.02638896227504,0.387500008822313,0.329166671285285,0.166766211390495,-1.97981429100037,-0.600785970687866
0,1.02361117850853,0.373611114301701,0.330555563168539,0.0968221426010132,-1.54335105419159,-0.573907911777496
0,1.0361111082101,0.384722225055805,0.305555557893823,-0.0308486949652433,-1.39918684959412,-0.468839079141617
0,1.02916674604155,0.286111120152123,0.250000004123303,-0.0485637858510017,-1.75776469707489,-0.537256002426147
0,0.98888888142718,0.186111123365188,0.234722242031366,0.0552833043038845,-1.99508583545685,-0.675006091594696
0,0.911111130460381,0.179166676104882,0.237500001485945,0.0299323964864016,-1.53388261795044,-0.79992800951004
0,0.929166724942685,0.226388890731841,0.181944447715425,-0.0458148941397667,-1.55892813205719,-0.951728045940399
0,0.983333411141879,0.262500006760661,0.12777778582816,-0.171347707509995,-1.83503913879395,-1.01678514480591
0,0.968055600426084,0.223611131277262,0.115277783190802,-0.249843880534172,-1.97584366798401,-0.927598893642426
0,0.944444438410764,0.144444451959316,0.166666673467524,-0.125532805919647,-2.30509996414185,-0.90408056974411
0,0.898611103511094,0.265277790527169,0.0625000010308258,-0.0870482996106148,-2.70277333259583,-0.999986410140991
0,0.876388930626744,0.325000019947452,-0.0583333375370279,-0.132557764649391,-2.85701680183411,-0.824973523616791
0,0.801388914802596,0.281944444502361,-0.163888889701015,-0.0901026204228401,-2.9413161277771,-0.132863193750381
0,0.854166660494678,0.508333359546131,-0.108333335930496,-0.361937671899795,-1.66155350208282,0.300851136445999
0,0.962500032893068,0.384722225055805,-0.180555567988136,-0.408057987689972,-2.21438646316528,0.400116741657257
0,0.909722238577127,0.361111135976272,-0.20972223675665,-0.22724187374115,-1.9046778678894,0.926988005638123
0,0.997222232726705,0.218055563744246,-0.380555573717971,0.330172657966614,-4.78276920318604,1.73455190658569
0,0.89722221162784,0.354166676560001,0.0194444453391775,-0.31703907251358,-0.133474051952362,0.972497463226318
0,0.804166698569104,0.297222230906227,-0.262500006760661,-0.545502662658691,-0.391870051622391,1.08428585529327
0,0.818055568777787,0.361111135976272,-0.269444466176932,-0.586125195026398,-0.0598647929728031,1.111163854599
0,0.997222232726705,0.430555559955475,-0.376388898068209,-0.810618162155151,-0.172569438815117,0.642324805259705
0,1.04583335139288,0.372222246730376,-0.384722225055805,-0.682947337627411,-0.134084925055504,0.453567445278168
0,0.890277849459286,0.202777789496344,-0.309722233543585,-0.603840291500092,0.0897971913218498,0.625831425189972
0,0.812500049868629,0.16527778158427,-0.277777793164528,-0.789543330669403,0.472809702157974,0.855211317539215
0,0.927777833059431,0.186111123365188,-0.269444466176932,-0.700967848300934,-0.0711658000946045,0.621555387973785
0,1.05555559457566,0.226388890731841,-0.326388911830706,-0.604756593704224,-0.152716308832169,0.682947337627411
0,0.976388951725609,0.193055558469529,-0.327777779402031,-0.577878534793854,-0.18020524084568,0.840550601482391
0,0.911111130460381,0.111111119697004,-0.298611122789481,-0.730900287628174,-0.290771842002869,1.32221782207489
0,0.848611190209378,0.162500009973726,-0.287500012035377,-0.91507613658905,-0.561996042728424,1.52838480472565
0,0.740277817810989,0.156944454596674,-0.284722228268869,-1.02442097663879,-0.397978693246841,1.94255149364471
0,0.80277780668585,0.0763888894734557,-0.213888888094483,-0.82375180721283,-0.0537561401724815,1.91781139373779
0,1.50555559227284,0.24583335278547,-0.652777823661411,-1.47310149669647,-1.85977923870087,1.31763637065887
0,1.18333335609189,0.101388894748172,-0.434722235605237,-1.08764553070068,-0.96241819858551,1.17835903167725
0,1.07361118905796,0.0583333375370279,-0.409722230330521,-0.934623837471008,-0.480445504188538,0.856433093547821
0,1.05416670269241,0.00277777787846293,-0.384722225055805,-0.823140919208527,0.253814518451691,0.48197266459465
0,1.00694447590948,-0.0111111115138517,-0.369444462963867,-0.720210134983063,0.671951770782471,0.33841934800148
0,0.993055557076942,0.00416666691266287,-0.319444452414435,-0.574213325977325,0.935845553874969,0.343611687421799
0,1.02777785415829,0.0388888906783549,-0.326388911830706,-0.367130011320114,0.942565083503723,0.283746898174286
0,1.00138890837647,0.0388888906783549,-0.315277801076602,-0.261450320482254,0.822835505008698,0.0870482996106148
0,0.952777789710289,-0.0208333341834404,-0.283333336385615,-0.29596421122551,0.600175082683563,0.11117747426033
0,0.961111141009813,0.00694444498106275,-0.259722222994153,-0.254730820655823,0.237015709280968,0.101098194718361
0,0.952777789710289,0.030555557612777,-0.250000004123303,-0.01191187184304,-0.0384845100343227,0.170125976204872
0,1.00972225967599,0.0666666706026059,-0.233333350148112,0.201585531234741,-0.252592772245407,-0.103236228227615
0,1.05694448645892,0.00555555575692586,-0.263888898643915,0.367435455322266,-0.511294186115265,-0.356745302677154
0,0.969444492309338,0.00972222266958873,-0.293055555256465,0.24862214922905,-0.865290641784668,-0.367130011320114
0,1.01944450285877,0.0583333375370279,-0.302777798439244,-0.351858377456665,-1.40254664421081,-0.586736083030701
0,0.987499989543926,0.0819444448505077,-0.318055560531181,-0.377209275960922,-1.40529549121857,-0.566882967948914
0,0.99583334084345,0.101388894748172,-0.363888895430851,-0.389732033014297,-1.57389426231384,-0.850935280323029
0,0.958333357243305,0.0986111170596459,-0.412500014097029,-0.440739274024963,-1.3445143699646,-0.569020986557007
0,0.791666671619817,0.029166668768514,-0.380555573717971,0.0210748501121998,-0.737008929252625,-0.224492982029915
0,0.812500049868629,0.112499999424294,-0.431944451838729,-0.116980694234371,-0.419969856739044,-0.11636982858181
0,0.78333336894415,0.169444445078067,-0.420833365396554,-0.380569040775299,0.0332921557128429,0.0748309940099716
0,0.716666704419527,0.104166672436698,-0.327777779402031,-0.102625362575054,0.907134890556335,0.209832206368446
0,0.687500023495048,-0.00416666691266287,-0.202777789496344,0.420580714941025,2.12947630882263,0.652709543704987
0,0.866666687443965,0.0222222230277034,-0.312500017310094,0.546113550662994,2.21835708618164,0.674700677394867
0,0.858333336144441,0.0500000014324589,-0.377777789951463,0.628274917602539,1.2834278345108,0.693942904472351
0,0.93750007624221,0.1194444466846,-0.384722225055805,0.542753756046295,1.16614174842834,0.806647539138794
0,0.818055568777787,0.111111119697004,-0.456944457113445,0.457538068294525,1.71866941452026,0.993266880512238
0,1.27222224212472,0.0916666697993398,-0.623611142736933,0.313373863697052,0.633161842823029,1.11391282081604
0,1.2013889505742,0.0388888906783549,-0.398611119576417,-0.146607652306557,0.698219001293182,0.759305477142334
0,1.05555559457566,-0.0694444482911319,-0.298611122789481,-0.360105067491531,0.830471277236938,0.406836241483688
0,1.07777786470773,-0.0875000002275597,-0.288888903918631,-0.388815730810165,1.08978354930878,0.076052725315094
0,1.09166668629255,-0.0861111144222878,-0.272222225631511,-0.337503045797348,1.26876711845398,-0.0968221426010132
0,1.08194444310977,-0.0500000014324589,-0.254166679773066,-0.231517925858498,1.38452613353729,-0.127976268529892
0,1.01944450285877,0.00555555575692586,-0.198611113846581,-0.310624986886978,1.37139248847961,-0.100181899964809
0,1.00416669214298,-0.00277777787846293,-0.151388899219622,-0.334143280982971,1.23852932453155,-0.00702495034784079
0,1.04444445950963,0.0194444453391775,-0.138888896582264,-0.158214092254639,1.27762460708618,-0.0403171069920063
0,1.00833336779274,0.00138888893923146,-0.0888888921108138,-0.207694187760353,1.17713737487793,-0.0320704244077206
0,0.904166671044111,-0.0388888906783549,-0.0222222230277034,-0.0665843114256859,1.0723739862442,-0.03176499158144
0,0.906944454810619,-0.0430555572111439,-0.00972222266958873,-0.0632245540618896,0.820086598396301,-0.108734011650086
0,0.877777822509998,-0.0208333341834404,-0.0111111115138517,-0.119729585945606,0.675922393798828,-0.0729983970522881
0,1.09583336194232,0.0111111115138517,0.033333335301303,0.0668897479772568,1.17469382286072,0.235488548874855
0,1.12499999424293,0.0569444456537738,0.101388894748172,0.013744467869401,-0.160962998867035,0.621249973773956
0,1.28333337719076,-0.0138888899621255,0.0513888902767219,-0.078801617026329,-0.721431851387024,0.438906669616699
0,1.10000003759208,-0.0819444448505077,-0.0513888902767219,-0.0131336031481624,-0.143247902393341,0.521373510360718
0,0.993055557076942,-0.0458333348996699,-0.00972222266958873,0.0473420582711697,-0.321315109729767,0.41263946890831
0,1.05833337834217,-0.029166668768514,-0.14722222356986,0.215940862894058,0.571769893169403,0.463646709918976
0,1.14305558872524,-0.0750000036681839,-0.113888891307548,0.163406446576118,1.36742186546326,0.241597205400467
0,1.04305556762637,-0.0388888906783549,0.0180555564949145,0.319787949323654,1.05557513236999,0.29657506942749
0,1.04166667574312,-0.116666675074056,0.0250000007162294,0.150578290224075,0.9089674949646,0.260839462280273
0,1.12083341584089,-0.0680555564078778,-0.0763888894734557,-0.133168622851372,1.54029667377472,-0.178067222237587
0,0.925000049292922,-0.03194444645704,0.152777778946911,0.304210901260376,0.722959041595459,-0.0427605658769607
0,0.981944519258625,-0.0513888902767219,0.0986111170596459,0.0910189226269722,0.669813752174377,-0.107817716896534
0,1.00277780025972,-0.0416666683668809,0.0513888902767219,-0.0461203269660473,0.0894917547702789,-0.0971275717020035
0,1.03750000009336,-0.0416666683668809,0.144444451959316,-0.149967417120934,-0.220522359013557,-0.0045814891345799
0,1.0333333244436,-0.0611111152255539,0.13750000469901,-0.0507018156349659,-0.472504258155823,-0.0430659987032413
0,1.0305556379248,-0.0583333375370279,0.111111119697004,-0.029626963660121,-0.552222192287445,0.00152716308366507
0,1.01666671909226,-0.0388888906783549,0.0486111125881959,0.0952949747443199,-0.758694648742676,0.0113010071218014
0,1.00972225967599,-0.0597222233422998,0.0347222241455659,-0.04764748737216,-0.266948103904724,-0.0268780700862408
0,1.02222228662528,-0.055555559848502,0.03194444645704,-0.011606439948082,-0.279470860958099,-0.0858265683054924
0,1.06527783775844,-0.0597222233422998,0.00555555575692586,-0.0171042270958424,-0.00488692196086049,-0.0922406539320946
0,1.03194452980806,-0.0513888902767219,-0.0347222241455659,0.0403171069920063,0.264810085296631,-0.0100792767480016
0,1.04027778385987,-0.0430555572111439,-0.0152777788063885,-0.204945296049118,0.823140919208527,-0.0106901414692402
0,1.01527782720901,-0.0486111125881959,0.0902777839940679,-0.017409659922123,0.983187615871429,-0.0354301854968071
0,0.986111194908388,-0.0347222241455659,0.212499996211229,0.0516181141138077,0.628274917602539,-0.0458148941397667
0,0.994444448960196,-0.029166668768514,0.166666673467524,0.0662788823246956,-0.0665843114256859,-0.0354301854968071
0,0.99583334084345,-0.0458333348996699,0.0875000002275597,0.238542884588242,-0.440128415822983,-0.015577063895762
0,0.997222232726705,-0.0486111125881959,0.115277783190802,0.08460483700037,-0.587346911430359,-0.0045814891345799
0,1.07083340529146,-0.0402777795226179,-0.030555557612777,-0.310014098882675,-0.107512280344963,-0.0595593601465225
0,1.07083340529146,-0.0402777795226179,-0.030555557612777,0.0222965814173222,0.118507854640484,0.00427605677396059
0,1.02222228662528,-0.026388891079988,0.112499999424294,0.013744467869401,0.119729585945606,-0.0406225398182869
0,1.0361111082101,-0.0402777795226179,0.0819444448505077,0.134084925055504,0.145691365003586,-0.00580321997404099
0,1.0361111082101,-0.0402777795226179,0.0819444448505077,0.141720741987228,0.234877690672875,0.00946841109544039
0,0.94305554652751,-0.0513888902767219,0.1194444466846,-0.0610865242779255,-0.200058370828629,0.0806342139840126
0,0.99583334084345,-0.0152777788063885,0.104166672436698,0.0140499006956816,-0.0235183127224445,0.271529614925385
0,0.975000059842355,-0.0486111125881959,0.170833336961321,0.142942473292351,-0.240070044994354,0.254425376653671
0,0.99583334084345,-0.0694444482911319,0.0902777839940679,0.0928515195846558,-0.732122004032135,0.225714713335037
0,0.962500032893068,-0.0847222225390337,0.0152777788063885,-0.129808858036995,-0.606894612312317,-0.153632611036301
0,0.993055557076942,-0.102777780553444,0.03194444645704,-0.220216915011406,-0.165239050984383,-0.632245540618896
0,0.927777833059431,-0.029166668768514,0.0111111115138517,-0.113315500319004,0.181732416152954,-1.33138084411621
0,0.96666670854283,-0.00833333382532574,-0.00416666691266287,0.109955742955208,0.605672895908356,-1.07420659065247
0,1.03750000009336,0.0875000002275597,0.0152777788063885,0.019547687843442,0.843910336494446,-0.711352586746216
0,1.03750000009336,0.0875000002275597,0.0152777788063885,0.148745685815811,0.749226212501526,0.226020142436027
0,0.92083337364316,0.00972222266958873,0.222222239394008,0.244956970214844,0.400116741657257,0.507629036903381
0,1.11805563207438,-0.0486111125881959,0.0777777813567098,0.0922406539320946,-0.161573857069016,0.246178686618805
0,1.11805563207438,-0.0486111125881959,0.0777777813567098,0.0351247526705265,0.117896988987923,0.0305432621389627
0,1.24583339359061,-0.033333335301303,0.0708333340964038,-0.0314595587551594,0.0430659987032413,0.0149661982432008
0,1.2430556098241,-0.0180555564949145,0.0652777787193518,-0.0149661982432008,0.0424551330506802,-0.0595593601465225
0,1.2430556098241,-0.0180555564949145,0.0652777787193518,0.0241291765123606,0.370184332132339,-0.15851953625679
0,1.08611111875954,-0.00277777787846293,0.138888896582264,0.0723875313997269,0.204028993844986,-0.0546724386513233
0,1.01527782720901,0.00555555575692586,0.131944449321958,0.0326812900602817,0.0250454749912024,-0.0430659987032413
0,0.990277773310434,0.00555555575692586,0.120833338567854,-0.0723875313997269,-0.0424551330506802,-0.0922406539320946
0,1.02916674604155,0.00277777787846293,0.111111119697004,0.0290160998702049,0.156686931848526,-0.125227376818657
0,1.06111116210868,-0.00277777787846293,0.131944449321958,-0.00763581553474069,-0.199447497725487,-0.124005645513535
0,0.969444492309338,-0.00277777787846293,0.150000007336368,-0.0879645943641663,-0.34941491484642,-0.08460483700037
0,0.993055557076942,0.0208333341834404,0.118055554801345,-0.173180297017098,-0.384845107793808,-0.0345138870179653
0,1.01111115155925,0.0194444453391775,0.0777777813567098,-0.120951317250729,-0.140499010682106,-0.0678060427308083
0,1.06805562152495,0.00416666691266287,0.0819444448505077,-0.0357356183230877,-0.101403631269932,-0.064446285367012
0,1.0513889189259,0.0111111115138517,0.0958333393711199,-0.0241291765123606,-0.151494577527046,-0.0204639863222837
0,1.01388893532575,0.0111111115138517,0.0916666697993398,0.01191187184304,-0.110261179506779,-0.0171042270958424
0,1.04305556762637,0.00833333382532574,0.0958333393711199,0.058643065392971,0.0427605658769607,-0.0164933614432812
0,1.04444445950963,0.00416666691266287,0.0944444474878658,0.11117747426033,0.140499010682106,-0.0415388382971287
0,1.00416669214298,0.0138888899621255,0.0916666697993398,0.164933621883392,-0.0390953756868839,-0.0507018156349659
0,1.0125000434425,0.0236111118719664,0.0875000002275597,0.087659165263176,-0.111482910811901,-0.0424551330506802
0,1.02083339474202,0.0194444453391775,0.0819444448505077,0.0503963828086853,-0.0561996027827263,-0.0357356183230877
0,1.04027778385987,0.0138888899621255,0.0819444448505077,0.0287106670439243,0.0583376325666905,-0.0503963828086853
0,1.05000002704265,0.0152777788063885,0.0750000036681839,-0.0690277740359306,0.15851953625679,-0.0519235469400883
0,1.01666671909226,0.0111111115138517,0.0875000002275597,-0.0693332031369209,-0.0122173046693206,-0.0100792767480016
0,1.00000001649321,0.0125000003581147,0.0958333393711199,-0.0458148941397667,-0.167682513594627,0.00702495034784079
0,1.00833336779274,0.0180555564949145,0.118055554801345,0.0335975885391235,-0.222965821623802,-0.0122173046693206
0,1.02916674604155,0.0180555564949145,0.116666675074056,0.00305432616733015,-0.160352125763893,-0.0131336031481624
0,1.0361111082101,0.0138888899621255,0.0777777813567098,-0.0632245540618896,-0.115148097276688,-0.0293215326964855
0,1.02500007039179,0.00833333382532574,0.0750000036681839,-0.0910189226269722,-0.087659165263176,-0.0540615729987621
0,1.02222228662528,0.00833333382532574,0.0819444448505077,-0.019547687843442,0.0314595587551594,-0.00855211354792118
0,1.05555559457566,0.00694444498106275,0.0861111144222878,-0.00641408516094089,0.137750118970871,0.0766635909676552
0,1.05694448645892,0.00277777787846293,0.0986111170596459,-0.0775798857212067,0.0693332031369209,0.145080491900444
0,1.05000002704265,0.00138888893923146,0.0847222225390337,-0.117286130785942,0.0638354197144508,0.193338856101036
0,1.0361111082101,-0.0111111115138517,0.0708333340964038,0.019547687843442,-0.0809396430850029,0.0571159012615681
0,1.00416669214298,0.0152777788063885,0.055555559848502,0.00122173049021512,0.00366519158706069,0.0412334054708481
0,1.06527783775844,-0.0152777788063885,0.0736111117849297,-0.16401731967926,0.218384325504303,0.104457959532738
0,1.06111116210868,-0.00833333382532574,0.0638888929140799,0.198836639523506,1.02045035362244,0.0861319974064827
0,0.994444448960196,-0.00833333382532574,0.0972222251763917,-0.0794124826788902,0.568104684352875,-0.0384845100343227
0,0.976388951725609,-0.00555555575692586,0.123611110178398,-0.0604756586253643,0.446237057447434,0.000305432622553781
0,1.02916674604155,-0.00555555575692586,0.14722222356986,0.0836885422468185,0.383012503385544,-0.0543670058250427
0,0.981944519258625,-0.00972222266958873,0.152777778946911,0.138971850275993,0.256257981061935,-0.0806342139840126
0,1.00000001649321,-0.0111111115138517,0.144444451959316,0.10048733651638,0.132557764649391,-0.0485637858510017
0,0.98888888142718,-0.0111111115138517,0.156944454596674,0.0629191175103188,-0.109039448201656,-0.000916297896765172
0,0.984722303025134,0.03194444645704,0.14722222356986,0.107206851243973,-0.0873537287116051,0.02382374368608
0,1.00555558402623,0.00555555575692586,0.126388893944906,0.292604446411133,-0.374460399150848,-0.12705996632576
0,1.02500007039179,0.00138888893923146,0.0777777813567098,0.04764748737216,-0.000610865245107561,-0.0522289797663689
0,1.01527782720901,0.0138888899621255,0.140277788465518,0.0418442711234093,-0.149051114916802,-0.00702495034784079
0,1.02222228662528,0.0375000018340919,0.0402777795226179,-0.00519235478714108,0.193644285202026,-0.0033597587607801
0,1.00555558402623,0.026388891079988,0.144444451959316,0.0247400421649218,-0.0739146918058395,-0.027488935738802
0,0.990277773310434,0.0152777788063885,0.180555567988136,-0.01191187184304,-0.34391713142395,-0.0430659987032413
0,1.00555558402623,0.0180555564949145,0.12777778582816,-0.0256563406437635,-0.324369430541992,-0.0436768643558025
0,1.02500007039179,0.0166666676506515,0.0916666697993398,0.109650313854218,-0.137750118970871,-0.01191187184304
0,1.06805562152495,0.00416666691266287,0.0972222251763917,0.170431405305862,0.11087204515934,-0.0458148941397667
0,1.09166668629255,-0.00277777787846293,0.100000002864918,0.303905457258224,0.265420943498612,-0.0812450796365738
0,1.0361111082101,0.0152777788063885,0.0833333367337618,0.148440256714821,0.181121543049812,-0.0635299831628799
0,1.10972228077486,0.00555555575692586,0.108333335930496,0.384539663791656,0.423940479755402,-0.0500909499824047
0,1.03888889197661,0.033333335301303,-0.0111111115138517,0.253203630447388,0.68172562122345,-0.0348193198442459
0,1.01527782720901,0.0138888899621255,0.248611112240049,0.696997225284576,-0.00946841109544039,-0.115758962929249
0,1.00972225967599,0.0500000014324589,0.0638888929140799,0.0482583530247212,0.0736092627048492,0.0100792767480016
0,1.02777785415829,0.0250000007162294,0.118055554801345,0.00946841109544039,-0.0406225398182869,-0.0027488935738802
0,1.05277781080915,0.0222222230277034,0.105555564319952,-0.0833831056952477,0.0201585534960032,-0.0458148941397667
0,1.04583335139288,0.0250000007162294,0.125000002061652,0.0397062413394451,0.122783914208412,-0.0464257597923279
0,1.00972225967599,0.0166666676506515,0.13750000469901,0.081855945289135,0.0824668109416962,-0.0473420582711697
0,0.983333411141879,0.0166666676506515,0.15555556271342,0.108428582549095,-0.0134390350431204,0.000916297896765172
0,1.03194452980806,0.0125000003581147,0.0722222259796579,-0.0616973899304867,0.266948103904724,-0.0210748501121998
0,1.03194452980806,0.0194444453391775,0.144444451959316,0.0280998013913631,0.101709060370922,-0.0280998013913631
0,1.01111115155925,0.0236111118719664,0.166666673467524,0.0494800843298435,0.05283984541893,-0.0482583530247212
0,0.99583334084345,0.0152777788063885,0.156944454596674,0.0729983970522881,-0.0271835029125214,-0.0394008085131645
0,0.993055557076942,0.030555557612777,0.161111118090472,0.00549778714776039,-0.213497400283814,-0.0109955742955208
0,1.00416669214298,0.029166668768514,0.166666673467524,-0.015577063895762,-0.203112691640854,0.0247400421649218
0,1.06527783775844,0.0194444453391775,0.111111119697004,-0.120645888149738,0.177761793136597,0.0149661982432008
0,1.03194452980806,0.027777779924251,0.106944444047242,-0.0409279726445675,0.0400116741657257,-0.0213802829384804
0,0.991666665193688,0.029166668768514,0.130555557438704,-0.00855211354792118,-0.0369573459029198,0.00641408516094089
0,1.00277780025972,0.0430555572111439,0.14722222356986,-0.0833831056952477,-0.147218525409698,0.0161879286170006
0,1.00138890837647,0.0250000007162294,0.120833338567854,-0.00763581553474069,-0.167682513594627,0.0164933614432812
0,1.06805562152495,-0.0125000003581147,0.0680555564078778,0.323147714138031,0.249538451433182,-0.0565050356090069
0,0.986111194908388,0.0416666683668809,0.2194444556275,-0.153938040137291,-0.394618958234787,0.00824668072164059
0,1.0361111082101,0.029166668768514,0.115277783190802,-0.0839939713478088,-0.011606439948082,-0.0442877300083637
0,1.01527782720901,0.0222222230277034,0.120833338567854,-0.0797179117798805,-0.0335975885391235,-0.0241291765123606
0,1.01944450285877,0.0180555564949145,0.104166672436698,-0.0580321997404099,0.0222965814173222,-0.0262672062963247
0,1.02500007039179,0.0236111118719664,0.12777778582816,0.0626136884093285,0.0974330082535744,-0.0507018156349659
0,1.00694447590948,0.029166668768514,0.118055554801345,0.0210748501121998,0.0739146918058395,-0.0326812900602817
0,1.02222228662528,0.00694444498106275,0.130555557438704,0.0772744566202164,0.0781907513737679,-0.0256563406437635
0,1.02361117850853,0.0138888899621255,0.140277788465518,0.151800006628036,0.13744467496872,-0.0348193198442459
0,1.01527782720901,0.033333335301303,0.130555557438704,0.183259576559067,0.118507854640484,-0.037568211555481
0,1.02083339474202,0.030555557612777,0.130555557438704,0.197920337319374,0.0781907513737679,-0.0406225398182869
0,1.00277780025972,0.0625000010308258,0.166666673467524,0.168293371796608,0.0122173046693206,-0.0299323964864016
0,1.03194452980806,0.0388888906783549,0.13750000469901,0.218078896403313,0.121256753802299,-0.0613919571042061
0,1.04305556762637,0.0388888906783549,0.123611110178398,0.288022965192795,0.155465200543404,-0.0745255574584007
0,0.955555573476797,0.0513888902767219,0.112499999424294,0.337197601795196,-0.346971452236175,-0.0830776765942574
0,1.01527782720901,0.0625000010308258,0.105555564319952,0.0784961804747581,-0.271529614925385,0.0207694191485643
0,1.0361111082101,0.0486111125881959,0.102777780553444,-0.101403631269932,-0.11636982858181,0.0314595587551594
0,1.01111115155925,0.0222222230277034,0.131944449321958,-0.113926365971565,-0.116980694234371,-0.00549778714776039
0,1.01527782720901,0.0166666676506515,0.12916666555545,-0.0213802829384804,-0.078801617026329,0.0027488935738802
0,1.03194452980806,0.0388888906783549,0.108333335930496,0.100792765617371,0.0219911485910416,0.0109955742955208
0,1.02222228662528,0.0458333348996699,0.106944444047242,0.0833831056952477,-0.0901026204228401,0.0287106670439243
0,1.02916674604155,0.0541666679652478,0.108333335930496,0.0442877300083637,-0.00305432616733015,0.0348193198442459
0,0.997222232726705,0.0444444460554069,0.130555557438704,0.0485637858510017,-0.10048733651638,0.0219911485910416
0,1.01805561097552,0.0569444456537738,0.113888891307548,0.0781907513737679,-0.106901414692402,0.0445931628346443
0,1.01111115155925,0.0541666679652478,0.106944444047242,0.0525344125926495,-0.110566608607769,0.0464257597923279
0,1.00694447590948,0.0361111129898289,0.108333335930496,-0.00977384392172098,-0.130419731140137,0.0473420582711697
0,1.01388893532575,0.026388891079988,0.120833338567854,-0.0531452745199203,-0.129503428936005,0.0406225398182869
0,1.02500007039179,0.0388888906783549,0.130555557438704,-0.0485637858510017,-0.0522289797663689,0.03176499158144
0,1.02222228662528,0.0513888902767219,0.120833338567854,-0.0507018156349659,0.0277943685650826,0.0473420582711697
0,1.01527782720901,0.0444444460554069,0.0944444474878658,-0.070249505341053,0.00855211354792118,0.0665843114256859
0,1.04027778385987,0.029166668768514,0.0805555590452358,-0.187841057777405,-0.0146607663482428,0.12156218290329
0,1.03750000009336,0.0222222230277034,0.1194444466846,-0.180510684847832,0.0592539273202419,0.11117747426033
0,1.01805561097552,0.029166668768514,0.159722226207217,-0.0867428630590439,0.146302223205566,0.0610865242779255
0,0.997222232726705,0.0458333348996699,0.156944454596674,-0.0577267669141293,0.0180205255746841,-0.00152716308366507
0,0.98888888142718,0.0625000010308258,0.14722222356986,-0.0800233483314514,-0.0366519130766392,-0.0100792767480016
0,1.01111115155925,0.0388888906783549,0.140277788465518,-0.0803287774324417,0.0781907513737679,0.0201585534960032
0,1.04027778385987,0.0152777788063885,0.136111112815755,0.0959058403968811,0.0931569486856461,-0.011606439948082
0,1.07916665934326,0.055555559848502,0.116666675074056,-0.0360410511493683,0.00733038317412138,0.0565050356090069
0,1.02916674604155,0.0486111125881959,0.168055565350778,0.0183259565383196,0.167071640491486,-0.00763581553474069
0,1.00416669214298,0.0416666683668809,0.14583334384257,-0.0314595587551594,-0.0348193198442459,0.000305432622553781
0,1.01944450285877,0.0347222241455659,0.118055554801345,-0.0583376325666905,0.00580321997404099,0.013744467869401
0,1.01805561097552,0.029166668768514,0.123611110178398,-0.0620028227567673,0.0339030213654041,0.013744467869401
0,1.00277780025972,0.029166668768514,0.140277788465518,-0.0809396430850029,-0.0280998013913631,0.01588249579072
0,1.01111115155925,0.0472222237439329,0.144444451959316,-0.0696386396884918,0.0143553335219622,0.021685715764761
0,1.00833336779274,0.027777779924251,0.130555557438704,-0.0907134860754013,-0.0180205255746841,0.021685715764761
0,1.02500007039179,0.026388891079988,0.12777778582816,-0.0891863256692886,-0.0164933614432812,0.0262672062963247
0,1.03194452980806,0.029166668768514,0.130555557438704,-0.0589484944939613,-0.00305432616733015,0.0262672062963247
0,1.03194452980806,0.029166668768514,0.130555557438704,-0.0277943685650826,0.0027488935738802,0.0397062413394451
0,1.0305556379248,0.00694444498106275,0.125000002061652,0.0021380283869803,0.0259617734700441,0.0406225398182869
0,1.01666671909226,0.00555555575692586,0.130555557438704,0.0299323964864016,0.0574213340878487,0.0271835029125214
0,1.00694447590948,0.0180555564949145,0.143055560076062,0.0387899428606033,0.0387899428606033,0.0299323964864016
0,1.01527782720901,0.0152777788063885,0.130555557438704,0.0537561401724815,0.0186313893646002,0.0473420582711697
0,1.02361117850853,0.0194444453391775,0.118055554801345,0.0620028227567673,0.0183259565383196,0.0418442711234093
0,1.02777785415829,0.0180555564949145,0.118055554801345,0.058643065392971,0.0314595587551594,0.0485637858510017
0,1.02777785415829,0.0180555564949145,0.118055554801345,0.0445931628346443,0.0305432621389627,0.0412334054708481
0,1.04444445950963,0.0250000007162294,0.123611110178398,0.0140499006956816,0.02382374368608,0.0339030213654041
0,1.04444445950963,0.0250000007162294,0.123611110178398,-0.0171042270958424,0.0500909499824047,0.0247400421649218
0,1.05416670269241,0.00972222266958873,0.111111119697004,-0.0259617734700441,0.0549778714776039,0.00519235478714108
0,1.03472221632685,-0.00694444498106275,0.0944444474878658,-0.0427605658769607,0.0714712366461754,-0.00946841109544039
0,1.03472221632685,-0.00694444498106275,0.0944444474878658,-0.0690277740359306,0.0534507073462009,-0.017409659922123
0,0.976388951725609,0.0125000003581147,0.116666675074056,-0.102014496922493,-0.0219911485910416,-0.0293215326964855
0,0.94305554652751,0.00833333382532574,0.113888891307548,-0.118202425539494,-0.0433714315295219,-0.0629191175103188
0,0.952777789710289,0.0111111115138517,0.1194444466846,-0.139582708477974,-0.0571159012615681,-0.108123145997524
0,0.975000059842355,-0.00972222266958873,0.112499999424294,-0.128892570734024,-0.0232128798961639,-0.129808858036995
0,1.00555558402623,-0.0250000007162294,0.10972222781375,-0.0940732508897781,0.0125227374956012,-0.152410879731178
0,1.02916674604155,-0.03194444645704,0.105555564319952,-0.0503963828086853,0.0106901414692402,-0.153938040137291
0,1.04583335139288,-0.0166666676506515,0.120833338567854,-0.0140499006956816,0.0250454749912024,-0.145080491900444
0,1.05833337834217,0.00277777787846293,0.120833338567854,0.021685715764761,0.0723875313997269,-0.11117747426033
0,1.05833337834217,0.0166666676506515,0.123611110178398,0.0378736443817616,0.0931569486856461,-0.0849102661013603
0,1.04166667574312,0.0208333341834404,0.138888896582264,0.0390953756868839,0.0797179117798805,-0.0616973899304867
0,1.02083339474202,0.0375000018340919,0.141666668192807,0.0394008085131645,0.0329867228865623,-0.0311541277915239
0,1.00555558402623,0.0458333348996699,0.14583334384257,0.0293215326964855,-0.00488692196086049,0.0140499006956816
0,1.01388893532575,0.0402777795226179,0.134722233088466,0.0167987942695618,-0.00580321997404099,0.0320704244077206
0,1.01944450285877,0.033333335301303,0.122222230451108,0.0143553335219622,-0.00702495034784079,0.0470366254448891
0,1.01527782720901,0.0152777788063885,0.106944444047242,0.0290160998702049,0.00946841109544039,0.0372627787292004
0,1.01944450285877,0.0152777788063885,0.1194444466846,0.0656680166721344,0.0277943685650826,0.0146607663482428
0,1.02500007039179,-0.0125000003581147,0.120833338567854,0.112399205565453,0.0537561401724815,0.00641408516094089
0,1.02777785415829,-0.0208333341834404,0.125000002061652,0.173180297017098,0.0855211317539215,-0.00916297826915979
0,1.02777785415829,-0.0250000007162294,0.12777778582816,0.255036234855652,0.11636982858181,-0.0326812900602817
0,1.04027778385987,-0.03194444645704,0.138888896582264,0.321620553731918,0.156686931848526,-0.0507018156349659
0,1.04861113515939,-0.03194444645704,0.14722222356986,0.394924372434616,0.194560587406159,-0.0665843114256859
0,1.05555559457566,-0.0125000003581147,0.166666673467524,0.458454370498657,0.214719131588936,-0.0675006061792374
0,1.03750000009336,0.0180555564949145,0.184722231481934,0.479834645986557,0.176845490932465,-0.0516181141138077
0,1.02777785415829,0.0569444456537738,0.177777784221628,0.463646709918976,0.149051114916802,-0.0381790772080422
0,1.01944450285877,0.0736111117849297,0.177777784221628,0.381790786981583,0.113010071218014,-0.0143553335219622
0,0.993055557076942,0.0944444474878658,0.177777784221628,0.29596421122551,0.0497855171561241,-0.00580321997404099
0,0.968055600426084,0.122222230451108,0.181944447715425,0.205250725150108,0.0421497002243996,-0.0171042270958424
0,0.976388951725609,0.123611110178398,0.177777784221628,0.122173048555851,0.0861319974064827,-0.0143553335219622
0,0.987499989543926,0.108333335930496,0.180555567988136,0.0366519130766392,0.12156218290329,-0.00366519158706069
0,0.986111194908388,0.0791666671619817,0.184722231481934,0.0403171069920063,0.127365410327911,-0.00519235478714108
0,0.986111194908388,0.0722222259796579,0.200000005729836,0.115453533828259,0.120035022497177,-0.0448985956609249
0,0.976388951725609,0.0638888929140799,0.236111109602691,0.173180297017098,0.115453533828259,-0.0571159012615681
0,0.976388951725609,0.0819444448505077,0.263888898643915,0.122173048555851,0.113620936870575,-0.0705549344420433
0,0.981944519258625,0.0875000002275597,0.258333331110899,0.0616973899304867,0.0956004112958908,-0.0635299831628799
0,1.00138890837647,0.0875000002275597,0.250000004123303,0.0250454749912024,0.118813291192055,-0.0708603709936142
0,1.0125000434425,0.0777777813567098,0.252777787889811,0.015577063895762,0.137139245867729,-0.0616973899304867
0,1.00555558402623,0.0750000036681839,0.254166679773066,0.0213802829384804,0.129808858036995,-0.0604756586253643
0,0.991666665193688,0.0750000036681839,0.262500006760661,-0.00397062394768,0.0971275717020035,-0.0500909499824047
0,0.972222276075846,0.0652777787193518,0.263888898643915,-0.0430659987032413,0.0503963828086853,-0.0650571510195732
0,0.962500032893068,0.0486111125881959,0.25555557165632,-0.0830776765942574,-0.01588249579072,-0.0952949747443199
0,0.947222222177272,0.03194444645704,0.252777787889811,-0.0870482996106148,-0.0974330082535744,-0.100181899964809
0,0.938888968125464,0.027777779924251,0.243055569018962,-0.0739146918058395,-0.195476874709129,-0.0684169083833694
0,0.968055600426084,0.00833333382532574,0.227777782615095,0.0125227374956012,-0.313679307699203,-0.0045814891345799
0,1.00833336779274,-0.0222222230277034,0.206944452990142,0.0913243517279625,-0.339030206203461,0.0366519130766392
0,1.02500007039179,-0.0430555572111439,0.193055558469529,0.161268427968025,-0.375376701354981,0.0711658000946045
0,1.08055555122652,-0.0513888902767219,0.200000005729836,0.238848313689232,-0.262366622686386,0.0699440687894821
0,1.11388895642462,-0.0430555572111439,0.187500003092477,0.244346097111702,0.0595593601465225,0.0531452745199203
0,1.08611111875954,-0.0222222230277034,0.180555567988136,0.24312436580658,0.130419731140137,0.0500909499824047
0,1.04861113515939,0.0152777788063885,0.156944454596674,0.244346097111702,0.0406225398182869,0.0207694191485643
0,1.03194452980806,0.0416666683668809,0.140277788465518,0.178372651338577,-0.0424551330506802,-0.00427605677396059
0,1.02222228662528,0.0458333348996699,0.131944449321958,0.100792765617371,-0.01588249579072,0.0222965814173222
0,1.00555558402623,0.0541666679652478,0.14722222356986,0.0491746515035629,-0.00244346098043024,0.0574213340878487
0,1.00694447590948,0.0597222233422998,0.141666668192807,-0.0109955742955208,-0.02382374368608,0.098960168659687
0,1.02500007039179,0.0736111117849297,0.130555557438704,-0.0803287774324417,-0.0616973899304867,0.149967417120934
0,1.05833337834217,0.0819444448505077,0.0972222251763917,-0.150578290224075,-0.106595985591412,0.16951510310173
0,1.06805562152495,0.0791666671619817,0.0847222225390337,-0.215024560689926,-0.116675265133381,0.157603234052658
0,1.06666672964169,0.0861111144222878,0.0750000036681839,-0.311235845088959,-0.110566608607769,0.0934623852372169
0,1.02638896227504,0.0930555616825939,0.0777777813567098,-0.447764217853546,-0.191200822591782,0.0513126812875271
0,0.990277773310434,0.106944444047242,0.0986111170596459,-0.509156167507172,-0.171653136610985,0.064446285367012
0,0.979166735492117,0.0986111170596459,0.0625000010308258,-0.694859206676483,-0.159435823559761,0.0943786799907684
0,0.961111141009813,0.0750000036681839,0.0513888902767219,-0.71959924697876,-0.116675265133381,0.105374254286289
0,0.970833384192592,0.052777782159976,0.0625000010308258,-0.777631461620331,-0.15332718193531,0.0861319974064827
0,0.962500032893068,0.0444444460554069,0.0611111152255539,-0.726929664611816,-0.142331600189209,0.0598647929728031
0,0.981944519258625,0.0444444460554069,0.0458333348996699,-0.752891421318054,-0.0809396430850029,-0.00366519158706069
0,0.998611124609959,0.0513888902767219,0.03194444645704,-0.772133648395538,-0.0855211317539215,-0.0354301854968071
0,1.00277780025972,0.0569444456537738,0.030555557612777,-0.80328780412674,-0.111788339912891,-0.0461203269660473
0,1.00555558402623,0.0722222259796579,0.0388888906783549,-0.829554975032806,-0.105068825185299,-0.05283984541893
0,1.0125000434425,0.0777777813567098,0.0208333341834404,-0.863458037376404,-0.122173048555851,-0.0332921557128429
0,1.03194452980806,0.0680555564078778,0.0361111129898289,-0.874453604221344,-0.0940732508897781,-0.00855211354792118
0,1.02916674604155,0.0361111129898289,0.0458333348996699,-0.869261264801025,-0.118202425539494,0.0045814891345799
0,1.02361117850853,0.0152777788063885,0.0597222233422998,-0.790765047073364,-0.175929188728332,-0.0021380283869803
0,1.01527782720901,-0.00833333382532574,0.0583333375370279,-0.707687377929688,-0.237626582384109,-0.0235183127224445
0,1.02916674604155,-0.0194444453391775,0.0486111125881959,-0.570853590965271,-0.270307868719101,-0.0491746515035629
0,1.05833337834217,-0.0361111129898289,0.0416666683668809,-0.420275300741196,-0.228769034147263,-0.0623082555830479
0,1.06250005399193,-0.0236111118719664,0.027777779924251,-0.262977480888367,-0.158824965357781,-0.0784961804747581
0,1.05277781080915,0.00277777787846293,0.0250000007162294,-0.149967417120934,-0.12675453722477,-0.0943786799907684
0,1.04861113515939,0.027777779924251,0.0486111125881959,-0.0916297882795334,-0.076052725315094,-0.112093769013882
0,1.03194452980806,0.0486111125881959,0.0375000018340919,-0.0601702257990837,-0.0299323964864016,-0.109955742955208
0,1.02777785415829,0.0569444456537738,0.0388888906783549,-0.0522289797663689,-0.0229074470698834,-0.102930791676045
0,1.02500007039179,0.0708333340964038,0.0430555572111439,-0.0574213340878487,-0.0250454749912024,-0.0901026204228401
0,1.02222228662528,0.0722222259796579,0.0486111125881959,-0.0626136884093285,-0.0128281703218818,-0.0781907513737679
0,1.02083339474202,0.0833333367337618,0.0569444456537738,-0.0601702257990837,-0.00183259579353034,-0.0339030213654041
0,1.02083339474202,0.102777780553444,0.0666666706026059,-0.0607810914516449,0.00610865233466029,-0.00122173049021512
0,1.01805561097552,0.10972222781375,0.0722222259796579,-0.0873537287116051,0.0241291765123606,0.0277943685650826
0,1.00555558402623,0.120833338567854,0.0888888921108138,-0.127365410327911,-0.0021380283869803,0.0659734457731247
0,1.00416669214298,0.125000002061652,0.0750000036681839,-0.143553331494331,-0.0180205255746841,0.0888808965682983
0,1.00694447590948,0.118055554801345,0.0722222259796579,-0.158824965357781,-0.0540615729987621,0.111788339912891
0,1.01527782720901,0.0986111170596459,0.0722222259796579,-0.152105450630188,-0.0678060427308083,0.130114302039146
0,1.02500007039179,0.0833333367337618,0.0458333348996699,-0.119729585945606,-0.0400116741657257,0.139888137578964
0,1.03472221632685,0.055555559848502,0.0361111129898289,-0.0684169083833694,-0.0113010071218014,0.144469633698463
0,1.04027778385987,0.0402777795226179,0.027777779924251,-0.00610865233466029,0.0167987942695618,0.13744467496872
0,1.04583335139288,0.033333335301303,0.0236111118719664,0.0739146918058395,0.0620028227567673,0.145996794104576
0,1.04305556762637,0.029166668768514,0.0125000003581147,0.16401731967926,0.101709060370922,0.151800006628036
0,1.04166667574312,0.0236111118719664,0.0138888899621255,0.234266817569733,0.113620936870575,0.142637029290199
0,1.0333333244436,0.0388888906783549,0.0194444453391775,0.284663200378418,0.112399205565453,0.136833816766739
0,1.01666671909226,0.0625000010308258,0.0388888906783549,0.331699818372726,0.0959058403968811,0.140804439783096
0,1.00833336779274,0.0986111170596459,0.03194444645704,0.339641064405441,0.0675006061792374,0.18539759516716
0,1.00277780025972,0.143055560076062,0.0111111115138517,0.303905457258224,0.0485637858510017,0.236710280179977
0,1.00694447590948,0.154166670830166,0.00694444498106275,0.175929188728332,0.081855945289135,0.281303435564041
0,1.00833336779274,0.12777778582816,0.00277777787846293,0.0479529201984406,0.087659165263176,0.268475264310837
0,1.00694447590948,0.0722222259796579,0.00972222266958873,-0.0467311926186085,0.0360410511493683,0.21135938167572
0,1.01944450285877,0.0111111115138517,0.0180555564949145,-0.116980694234371,-0.0565050356090069,0.130419731140137
0,1.01944450285877,-0.0111111115138517,0.0166666676506515,-0.16920967400074,-0.22785273194313,0.0351247526705265
0,1.02222228662528,-0.0125000003581147,0.00416666691266287,-0.177456349134445,-0.305432617664337,-0.0171042270958424
0,1.03194452980806,-0.0250000007162294,-0.00833333382532574,-0.12705996632576,-0.295658767223358,-0.0415388382971287
0,1.01388893532575,-0.0458333348996699,-0.00277777787846293,-0.03176499158144,-0.17989981174469,-0.0839939713478088
0,1.00833336779274,-0.0486111125881959,0.0152777788063885,0.103847093880177,-0.0940732508897781,-0.137750118970871
0,0.98888888142718,-0.0652777787193518,0.0472222237439329,0.213497400283814,-0.064446285367012,-0.17409659922123
0,0.987499989543926,-0.0680555564078778,0.0513888902767219,0.317649930715561,-0.0849102661013603,-0.206472456455231
0,0.99583334084345,-0.0777777813567098,0.0652777787193518,0.413250327110291,-0.154243469238281,-0.242818936705589
0,0.99583334084345,-0.0777777813567098,0.0652777787193518,0.467617332935333,-0.184786736965179,-0.274278491735458
0,1.0361111082101,-0.0944444474878658,0.0388888906783549,0.531147301197052,-0.172569438815117,-0.295047909021378
0,1.04027778385987,-0.100000002864918,0.00833333382532574,0.643546521663666,-0.0403171069920063,-0.308792382478714
0,1.01944450285877,-0.104166672436698,-0.00416666691266287,0.728456795215607,0.116675265133381,-0.325591176748276
0,0.955555573476797,-0.111111119697004,-0.00416666691266287,0.821308314800262,0.221133217215538,-0.357356160879135
0,0.886111173809523,-0.140277788465518,0.0388888906783549,0.907745778560638,0.197920337319374,-0.429743707180023
0,0.863888903677457,-0.170833336961321,0.101388894748172,1.02961337566376,0.129197999835014,-0.537256002426147
0,0.863888903677457,-0.170833336961321,0.101388894748172,1.14109623432159,0.165239050984383,-0.581543684005737
0,1.05694448645892,-0.0750000036681839,0.236111109602691,1.26540732383728,0.260839462280273,-0.553443908691406
0,1.21944444780878,0.0861111144222878,0.211111128639904,1.25990951061249,0.422107875347138,-0.492662817239761
0,1.21944444780878,0.0861111144222878,0.211111128639904,1.00212442874908,0.542753756046295,-0.405614525079727
0,1.21944444780878,0.305555557893823,0.216666671860991,0.698219001293182,0.450207680463791,-0.316733628511429
0,1.14305558872524,0.279166685047782,0.269444466176932,0.449902266263962,0.246789559721947,-0.176540061831474
0,1.14305558872524,0.279166685047782,0.269444466176932,0.280692577362061,0.108123145997524,-0.00855211354792118
0,1.10416671324184,0.206944452990142,0.276388901281273,0.210137650370598,0.0766635909676552,0.0705549344420433
0,0.972222276075846,0.123611110178398,0.268055574293678,0.137750118970871,-0.0210748501121998,0.124616511166096
0,0.972222276075846,0.123611110178398,0.268055574293678,0.0992656052112579,-0.119424156844616,0.170125976204872
0,0.95000000594378,0.111111119697004,0.238888893369199,-0.0183259565383196,-0.178067222237587,0.286801218986511
0,0.956944465360051,0.0694444482911319,0.166666673467524,-0.087659165263176,-0.10598511993885,0.339030206203461
0,0.911111130460381,0.0583333375370279,0.118055554801345,0.0445931628346443,-0.225409269332886,0.303600013256073
0,0.880555606276507,0.033333335301303,0.156944454596674,0.0986547395586967,-0.312763005495071,0.203418120741844
0,1.10694449700835,0.033333335301303,0.188888894975731,0.244040668010712,0.400116741657257,0.17440202832222
0,1.20972230187372,0.00138888893923146,0.111111119697004,0.273973047733307,0.797484576702118,0.16401731967926
0,1.1083333888916,0.0166666676506515,-0.0111111115138517,0.294131606817245,0.207694187760353,0.0995710343122482
0,0.89722221162784,0.116666675074056,0.00555555575692586,0.081855945289135,-0.245567828416824,-0.0415388382971287
0,0.887500065692777,0.19166667874224,0.0388888906783549,-0.115453533828259,-0.189979091286659,-0.0922406539320946
0,0.96666670854283,0.163888889701015,0.134722233088466,-0.22693644464016,0.0394008085131645,-0.0342084541916847
0,1.00000001649321,0.0986111170596459,0.163888889701015,-0.241597205400467,0.17989981174469,0.0766635909676552
0,1.01944450285877,0.0750000036681839,0.204166669223633,-0.197309479117393,0.0384845100343227,0.132557764649391
0,1.02500007039179,0.0819444448505077,0.216666671860991,-0.156381502747536,-0.208305045962334,0.156381502747536
0,1.08472222687628,0.0416666683668809,0.224999998848587,-0.0907134860754013,-0.145996794104576,0.173485726118088
0,1.12222230772414,-0.026388891079988,0.200000005729836,0.0409279726445675,0.0348193198442459,0.178983509540558
0,1.08194444310977,-0.0763888894734557,0.161111118090472,0.124921940267086,0.117286130785942,0.167071640491486
0,1.04027778385987,-0.0666666706026059,0.140277788465518,0.16890424489975,0.186008468270302,0.12156218290329
0,1.00833336779274,-0.0236111118719664,0.12916666555545,0.178678080439568,0.138971850275993,0.0714712366461754
0,0.987499989543926,0.026388891079988,0.144444451959316,0.171042263507843,0.0351247526705265,0.037568211555481
0,0.979166735492117,0.0569444456537738,0.13750000469901,0.136833816766739,-0.0149661982432008,0.0357356183230877
0,1.00000001649321,0.0625000010308258,0.140277788465518,0.101098194718361,0.0555887371301651,0.0470366254448891
0,1.00833336779274,0.052777782159976,0.156944454596674,0.0678060427308083,0.166460782289505,0.0284052342176437
0,0.997222232726705,0.0388888906783549,0.180555567988136,0.0433714315295219,0.160046696662903,-0.0198531206697226
0,0.983333411141879,0.0222222230277034,0.176388892338373,-0.00427605677396059,0.0494800843298435,-0.0284052342176437
0,0.976388951725609,0.0194444453391775,0.104166672436698,-0.01588249579072,0.00855211354792118,-0.0583376325666905
0,0.979166735492117,0.027777779924251,0.12777778582816,-0.0293215326964855,-0.0189368221908808,-0.0482583530247212
0,1.00000001649321,0.0472222237439329,0.120833338567854,-0.115148097276688,-0.0113010071218014,-0.0335975885391235
0,1.0361111082101,0.0750000036681839,0.0972222251763917,-0.189673662185669,0.113315500319004,-0.0577267669141293
0,1.04444445950963,0.0819444448505077,0.106944444047242,-0.157297804951668,0.200363799929619,-0.142942473292351
0,1.03888889197661,0.0819444448505077,0.120833338567854,-0.160657554864883,0.234266817569733,-0.202501833438873
0,1.02777785415829,0.0847222225390337,0.161111118090472,-0.0940732508897781,0.268169850111008,-0.231212496757507
0,1.01944450285877,0.0916666697993398,0.212499996211229,-0.0806342139840126,0.289244681596756,-0.23273965716362
0,1.01527782720901,0.0944444474878658,0.20972223675665,-0.103236228227615,0.280998021364212,-0.207999616861343
0,1.01527782720901,0.101388894748172,0.197222234119292,-0.151189148426056,0.237626582384109,-0.177456349134445
0,1.01805561097552,0.0958333393711199,0.190277786858986,-0.172874867916107,0.198225766420364,-0.129197999835014
0,1.00694447590948,0.0875000002275597,0.20972223675665,-0.162184715270996,0.140193566679955,-0.0742201283574104
0,1.00277780025972,0.0777777813567098,0.233333350148112,-0.167987942695618,0.103541657328606,-0.0452040284872055
0,0.986111194908388,0.0680555564078778,0.224999998848587,-0.201890960335732,0.0632245540618896,-0.0366519130766392
0,0.968055600426084,0.055555559848502,0.223611131277262,-0.193644285202026,-0.00122173049021512,-0.0390953756868839
0,0.947222222177272,0.03194444645704,0.218055563744246,-0.154854342341423,-0.0992656052112579,-0.0232128798961639
0,0.938888968125464,0.00555555575692586,0.229166674498349,-0.11606439948082,-0.225103840231896,0.019547687843442
0,0.956944465360051,-0.0208333341834404,0.229166674498349,-0.0751364231109619,-0.276111096143722,0.0897971913218498
0,0.986111194908388,-0.030555557612777,0.212499996211229,-0.00366519158706069,-0.28496864438057,0.17470745742321
0,1.0305556379248,-0.030555557612777,0.195833342236038,0.0491746515035629,-0.229074463248253,0.201585531234741
0,1.02638896227504,-0.0180555564949145,0.200000005729836,0.106901414692402,-0.246789559721947,0.22754730284214
0,1.03472221632685,-0.0180555564949145,0.236111109602691,0.147829383611679,-0.230601623654366,0.256563395261765
0,1.11527784830787,-0.0125000003581147,0.213888888094483,0.149661988019943,-0.00641408516094089,0.285884946584701
0,1.14305558872524,0.0208333341834404,0.14722222356986,0.138666406273842,0.0943786799907684,0.281914323568344
0,1.11111117265811,0.0722222259796579,0.104166672436698,0.0983493030071259,-0.0021380283869803,0.265726387500763
0,1.06250005399193,0.0944444474878658,0.115277783190802,-0.0146607663482428,-0.0183259565383196,0.261144906282425
0,1.02083339474202,0.0819444448505077,0.156944454596674,-0.115148097276688,0.0256563406437635,0.302683740854263
0,1.00277780025972,0.055555559848502,0.176388892338373,-0.181732416152954,0.0809396430850029,0.335365027189255
0,1.0125000434425,0.055555559848502,0.162500009973726,-0.273056775331497,0.116980694234371,0.361937671899795
0,1.02222228662528,0.0625000010308258,0.130555557438704,-0.339335650205612,0.064446285367012,0.351552963256836
0,1.01944450285877,0.0625000010308258,0.118055554801345,-0.386983126401901,-0.058643065392971,0.34330627322197
0,1.00416669214298,0.0500000014324589,0.1194444466846,-0.423940479755402,-0.173180297017098,0.350942075252533
0,0.962500032893068,0.0236111118719664,0.112499999424294,-0.441655576229096,-0.248316720128059,0.335975885391235
0,0.940277860008718,0.00277777787846293,0.104166672436698,-0.467617332935333,-0.155465200543404,0.322231411933899
0,0.933333400592447,-0.0347222241455659,0.113888891307548,-0.486554175615311,-0.0430659987032413,0.310930401086807
0,0.923611157409668,-0.0708333340964038,0.0902777839940679,-0.484416127204895,-0.0934623852372169,0.293826192617416
0,0.930555616825939,-0.0944444474878658,0.0944444474878658,-0.435241490602493,-0.240375474095344,0.251065611839294
0,0.96666670854283,-0.0819444448505077,0.0847222225390337,-0.392786353826523,-0.309708684682846,0.181426972150803
0,0.984722303025134,-0.0708333340964038,0.0388888906783549,-0.362243086099625,-0.330478101968765,0.141109868884087
0,1.00972225967599,-0.0736111117849297,0.029166668768514,-0.324980318546295,-0.287106662988663,0.103541657328606
0,1.01527782720901,-0.0875000002275597,0.00416666691266287,-0.305432617664337,-0.219606056809425,0.0861319974064827
0,1.0333333244436,-0.0986111170596459,0.00138888893923146,-0.274889349937439,-0.161573857069016,0.0708603709936142
0,1.06805562152495,-0.0847222225390337,0.00555555575692586,-0.196087747812271,-0.106290549039841,0.0400116741657257
0,1.10555560512509,-0.0583333375370279,0.00972222266958873,-0.163406446576118,-0.0430659987032413,-0.0149661982432008
0,1.09305557817581,-0.0152777788063885,-0.0166666676506515,-0.180510684847832,-0.00671951752156019,-0.0620028227567673
0,1.05277781080915,0.0361111129898289,0.00277777787846293,-0.230601623654366,-0.00549778714776039,-0.106901414692402
0,1.0361111082101,0.0625000010308258,0.0152777788063885,-0.284052342176437,0.00549778714776039,-0.112093769013882
0,1.03194452980806,0.0416666683668809,0.030555557612777,-0.287412106990814,0.0100792767480016,-0.113926365971565
0,1.03194452980806,0.0166666676506515,0.0388888906783549,-0.22235494852066,-0.0320704244077206,-0.120645888149738
0,1.02222228662528,0.00972222266958873,0.0402777795226179,-0.114231802523136,-0.140804439783096,-0.123394779860973
0,1.02500007039179,0.0125000003581147,0.0375000018340919,-0.0433714315295219,-0.190895393490791,-0.0971275717020035
0,1.03750000009336,0.0138888899621255,0.033333335301303,0.0143553335219622,-0.178372651338577,-0.0659734457731247
0,1.05694448645892,0.0152777788063885,0.0138888899621255,0.0794124826788902,-0.134695783257484,-0.0366519130766392
0,1.05833337834217,0.0194444453391775,0.0111111115138517,0.126449108123779,-0.0675006061792374,-0.0106901414692402
0,1.05000002704265,0.0111111115138517,0.030555557612777,0.10567969083786,-0.0201585534960032,0.0033597587607801
0,1.0333333244436,-0.00555555575692586,0.0513888902767219,0.0613919571042061,0.0177150927484035,-0.00763581553474069
0,1.02222228662528,-0.03194444645704,0.0722222259796579,0.0693332031369209,-0.0149661982432008,-0.0293215326964855
0,1.02500007039179,-0.0416666683668809,0.0750000036681839,0.0745255574584007,-0.0259617734700441,-0.0403171069920063
5,1.02222228662528,-0.0347222241455659,0.0611111152255539,0.0659734457731247,-0.0128281703218818,-0.0458148941397667
5,1.01666671909226,-0.03194444645704,0.0541666679652478,0.0394008085131645,-0.00244346098043024,-0.0244346093386412
5,1.01388893532575,-0.029166668768514,0.030555557612777,0.0229074470698834,0.0546724386513233,0.00824668072164059
5,1.02777785415829,-0.027777779924251,0.0111111115138517,0.0287106670439243,0.08460483700037,0.0345138870179653
5,1.03888889197661,-0.029166668768514,0.0166666676506515,0.0452040284872055,0.0784961804747581,0.0421497002243996
5,1.04444445950963,-0.0388888906783549,0.0361111129898289,0.0491746515035629,0.0641408488154411,0.0491746515035629
5,1.02916674604155,-0.0513888902767219,0.055555559848502,0.058643065392971,0.0369573459029198,0.0436768643558025
5,1.02500007039179,-0.0750000036681839,0.0819444448505077,0.0815505087375641,0.0280998013913631,0.0305432621389627
5,1.02361117850853,-0.0986111170596459,0.0944444474878658,0.132557764649391,0.0497855171561241,0.027488935738802
5,1.0125000434425,-0.0944444474878658,0.101388894748172,0.203723564743996,0.0510072484612465,0.0342084541916847
5,1.02083339474202,-0.0791666671619817,0.0916666697993398,0.245567828416824,0.0366519130766392,0.0198531206697226
5,1.02361117850853,-0.0416666683668809,0.0819444448505077,0.268475264310837,0.0247400421649218,0.0326812900602817
5,1.01527782720901,-0.00833333382532574,0.0763888894734557,0.247094988822937,0.00855211354792118,0.0345138870179653
5,1.00972225967599,0.00277777787846293,0.0791666671619817,0.17440202832222,-0.0299323964864016,0.0345138870179653
5,1.00694447590948,0.00277777787846293,0.0833333367337618,0.115148097276688,-0.0555887371301651,0.0543670058250427
5,1.01666671909226,-0.0166666676506515,0.0847222225390337,0.0879645943641663,-0.0839939713478088,0.0781907513737679
5,1.03194452980806,-0.0361111129898289,0.0819444448505077,0.0607810914516449,-0.076052725315094,0.0797179117798805
5,1.03194452980806,-0.0388888906783549,0.0652777787193518,0.0613919571042061,-0.0546724386513233,0.0678060427308083
5,1.07083340529146,-0.0458333348996699,0.0541666679652478,0.0684169083833694,-0.0372627787292004,0.0665843114256859
5,1.0361111082101,-0.0472222237439329,0.0791666671619817,0.0675006061792374,0.00977384392172098,0.00183259579353034
5,1.0305556379248,-0.0583333375370279,0.0583333375370279,0.0598647929728031,0.00916297826915979,-0.0186313893646002
5,1.0361111082101,-0.052777782159976,0.0458333348996699,0.02382374368608,0.0192422550171614,-0.0229074470698834
5,1.03888889197661,-0.0875000002275597,0.03194444645704,0.0314595587551594,0.119118720293045,-0.00488692196086049
5,1.02638896227504,-0.112499999424294,0.0388888906783549,0.149661988019943,0.0690277740359306,-0.0183259565383196
5,1.01666671909226,-0.0875000002275597,0.0680555564078778,0.0928515195846558,0.0723875313997269,-0.0189368221908808
5,1.01111115155925,-0.0986111170596459,0.0805555590452358,0.0919352173805237,-0.00122173049021512,-0.0354301854968071
5,1.02500007039179,-0.0902777839940679,0.0486111125881959,0.0870482996106148,0.0849102661013603,-0.0604756586253643
5,1.01527782720901,-0.0513888902767219,0.0708333340964038,0.0922406539320946,0.161268427968025,-0.0629191175103188
5,1.01666671909226,-0.0250000007162294,0.0708333340964038,0.0164933614432812,0.0574213340878487,-0.0387899428606033
5,1.02500007039179,-0.052777782159976,0.0652777787193518,0.0620028227567673,0.0360410511493683,-0.00855211354792118
5,1.04305556762637,-0.0833333367337618,0.0833333367337618,0.110566608607769,-0.118813291192055,0.0616973899304867
5,1.06527783775844,-0.106944444047242,0.0819444448505077,0.154548913240433,0.0497855171561241,0.0323758572340012
5,1.02222228662528,-0.0847222225390337,0.108333335930496,0.171347707509995,0.0394008085131645,-0.01191187184304
5,1.02500007039179,-0.0666666706026059,0.0847222225390337,0.224798411130905,-0.0122173046693206,0.0109955742955208
5,1.04166667574312,-0.055555559848502,0.0805555590452358,0.22754730284214,0.0436768643558025,0.01191187184304
5,1.0361111082101,-0.055555559848502,0.0805555590452358,0.208915919065475,0.0668897479772568,-0.011606439948082
5,1.02222228662528,-0.0513888902767219,0.0930555616825939,0.196698606014252,0.0589484944939613,-0.0345138870179653
5,1.01944450285877,-0.0402777795226179,0.106944444047242,0.190895393490791,0.0797179117798805,-0.0540615729987621
5,1.01944450285877,-0.0402777795226179,0.106944444047242,0.18509216606617,0.0537561401724815,-0.0705549344420433
5,1.00000001649321,-0.0138888899621255,0.100000002864918,0.146302223205566,0.0589484944939613,-0.0720821022987366
5,1.00277780025972,0.00416666691266287,0.0958333393711199,0.109344877302647,0.0164933614432812,-0.0656680166721344
5,1.00277780025972,0.00416666691266287,0.0958333393711199,0.0613919571042061,0.0372627787292004,-0.0699440687894821
5,1.01666671909226,0.00555555575692586,0.0944444474878658,0.0256563406437635,0.0513126812875271,-0.0632245540618896
5,1.01527782720901,-0.00833333382532574,0.102777780553444,-0.00946841109544039,0.0326812900602817,-0.0473420582711697
5,1.01527782720901,-0.00833333382532574,0.102777780553444,-0.00641408516094089,-0.01588249579072,-0.0311541277915239
5,1.02222228662528,-0.0250000007162294,0.0972222251763917,-0.0314595587551594,0.00916297826915979,-0.021685715764761
5,1.02083339474202,-0.0416666683668809,0.0930555616825939,-0.0253509078174829,-0.0445931628346443,-0.0113010071218014
5,1.02083339474202,-0.0416666683668809,0.0930555616825939,-0.0192422550171614,-0.0394008085131645,-0.00427605677396059
5,1.01527782720901,-0.0402777795226179,0.0916666697993398,-0.0348193198442459,-0.0390953756868839,-0.00519235478714108
5,1.02222228662528,-0.0541666679652478,0.0916666697993398,-0.0372627787292004,-0.0442877300083637,0.0113010071218014
5,1.02222228662528,-0.0541666679652478,0.0916666697993398,-0.027488935738802,-0.0488692186772823,0.0287106670439243
5,1.0125000434425,-0.0625000010308258,0.0986111170596459,-0.0186313893646002,-0.0262672062963247,0.0293215326964855
5,1.00277780025972,-0.0625000010308258,0.0916666697993398,-0.0378736443817616,-0.123089343309402,0.011606439948082
5,1.02777785415829,-0.0513888902767219,0.0777777813567098,-0.0549778714776039,0.0131336031481624,0.01588249579072
5,1.04166667574312,-0.0625000010308258,0.0652777787193518,-0.0222965814173222,-0.104457959532738,0.0342084541916847
5,0.99583334084345,-0.0625000010308258,0.0958333393711199,-0.0772744566202164,-0.0262672062963247,0.0103847095742822
5,1.00833336779274,-0.0416666683668809,0.0930555616825939,-0.0668897479772568,-0.109344877302647,0.0433714315295219
5,1.02500007039179,-0.0375000018340919,0.0750000036681839,-0.0745255574584007,-0.0607810914516449,0.0684169083833694
5,1.04305556762637,-0.0361111129898289,0.0638888929140799,-0.0720821022987366,-0.0565050356090069,0.0882700309157372
5,1.02083339474202,-0.0444444460554069,0.0791666671619817,-0.0699440687894821,-0.0580321997404099,0.0998764708638191
5,1.02361117850853,-0.0486111125881959,0.0736111117849297,-0.0763581544160843,-0.0500909499824047,0.110566608607769
5,1.02638896227504,-0.0513888902767219,0.0666666706026059,-0.0919352173805237,-0.0326812900602817,0.0849102661013603
5,1.02500007039179,-0.0583333375370279,0.0708333340964038,-0.0873537287116051,-0.0183259565383196,0.08460483700037
5,1.02916674604155,-0.0625000010308258,0.0722222259796579,-0.0891863256692886,-0.000916297896765172,0.0736092627048492
5,1.03194452980806,-0.0680555564078778,0.0611111152255539,-0.0812450796365738,0.0192422550171614,0.0610865242779255
5,1.03194452980806,-0.0652777787193518,0.0722222259796579,-0.0794124826788902,0.0253509078174829,0.0546724386513233
5,1.02777785415829,-0.0694444482911319,0.0777777813567098,-0.0913243517279625,0.0207694191485643,0.0268780700862408
5,1.02638896227504,-0.0708333340964038,0.0902777839940679,-0.0867428630590439,0.0229074470698834,0.0125227374956012
5,1.02500007039179,-0.0652777787193518,0.0777777813567098,-0.0934623852372169,0.0134390350431204,0.0027488935738802
5,1.02361117850853,-0.0597222233422998,0.0791666671619817,-0.0888808965682983,-0.00244346098043024,-0.00885754637420177
5,1.02916674604155,-0.0611111152255539,0.0680555564078778,-0.0775798857212067,-0.00580321997404099,-0.0192422550171614
5,1.02500007039179,-0.0722222259796579,0.0708333340964038,-0.0482583530247212,-0.0265726372599602,-0.0177150927484035
5,1.02638896227504,-0.0638888929140799,0.0750000036681839,-0.0332921557128429,-0.000305432622553781,-0.0152716310694814
5,1.02222228662528,-0.0652777787193518,0.0833333367337618,-0.0134390350431204,-0.0021380283869803,-0.0244346093386412
5,1.02916674604155,-0.0652777787193518,0.0791666671619817,0.0045814891345799,0.0177150927484035,-0.0131336031481624
5,1.02222228662528,-0.0625000010308258,0.0819444448505077,0.0161879286170006,-0.000305432622553781,-0.0232128798961639
5,1.02638896227504,-0.055555559848502,0.0805555590452358,0.0229074470698834,0.00977384392172098,-0.0164933614432812
5,1.02500007039179,-0.055555559848502,0.100000002864918,0.0290160998702049,-0.029626963660121,-0.00305432616733015
5,1.02222228662528,-0.0486111125881959,0.0916666697993398,0.0369573459029198,-0.0247400421649218,0.0021380283869803
5,1.01944450285877,-0.0486111125881959,0.0722222259796579,0.0265726372599602,-0.0241291765123606,0.00305432616733015
5,1.02222228662528,-0.0486111125881959,0.0666666706026059,0.0363464802503586,-0.0561996027827263,0.0033597587607801
5,1.02222228662528,-0.0513888902767219,0.0597222233422998,0.0253509078174829,-0.0488692186772823,-0.0033597587607801
5,1.02083339474202,-0.055555559848502,0.0513888902767219,0.021685715764761,-0.0491746515035629,-0.0100792767480016
5,1.02222228662528,-0.0472222237439329,0.0500000014324589,0.0167987942695618,-0.0696386396884918,-0.000916297896765172
5,1.02500007039179,-0.0486111125881959,0.0388888906783549,0.0113010071218014,-0.0714712366461754,-0.0140499006956816
5,1.03472221632685,-0.0513888902767219,0.0416666683668809,0.0177150927484035,-0.0308486949652433,-0.0268780700862408
5,1.03888889197661,-0.0486111125881959,0.0430555572111439,0.0271835029125214,-0.0131336031481624,-0.0409279726445675
5,1.0361111082101,-0.0472222237439329,0.0361111129898289,0.0302378293126821,0.00397062394768,-0.0479529201984406
5,1.03472221632685,-0.0486111125881959,0.0388888906783549,0.0387899428606033,0.0186313893646002,-0.0623082555830479
5,1.03194452980806,-0.0486111125881959,0.0388888906783549,0.0427605658769607,0.0436768643558025,-0.0766635909676552
5,1.0361111082101,-0.0486111125881959,0.0402777795226179,0.0519235469400883,0.0574213340878487,-0.0849102661013603
5,1.03194452980806,-0.0416666683668809,0.0444444460554069,0.0577267669141293,0.0678060427308083,-0.0794124826788902
5,1.02777785415829,-0.0361111129898289,0.0625000010308258,0.0583376325666905,0.0809396430850029,-0.08460483700037
5,1.02361117850853,-0.03194444645704,0.0583333375370279,0.0687223374843597,0.0910189226269722,-0.0778853222727776
5,1.02500007039179,-0.0250000007162294,0.0694444482911319,0.0681114718317986,0.0885754600167274,-0.0815505087375641
5,1.02361117850853,-0.0194444453391775,0.0847222225390337,0.070249505341053,0.0946841165423393,-0.0742201283574104
5,1.01944450285877,-0.0125000003581147,0.0861111144222878,0.0568104684352875,0.0943786799907684,-0.0620028227567673
5,1.00972225967599,-0.00972222266958873,0.0888888921108138,0.0522289797663689,0.0940732508897781,-0.0448985956609249
5,1.0125000434425,-0.0125000003581147,0.0916666697993398,0.0326812900602817,0.0833831056952477,-0.0342084541916847
5,1.01666671909226,-0.00972222266958873,0.0833333367337618,0.0241291765123606,0.0769690200686455,-0.019547687843442
5,1.01666671909226,-0.0125000003581147,0.0861111144222878,0.0167987942695618,0.0339030213654041,-0.00519235478714108
5,1.01666671909226,-0.0194444453391775,0.0847222225390337,0.0113010071218014,0.0149661982432008,0.0103847095742822
5,1.01527782720901,-0.0250000007162294,0.0833333367337618,0.021685715764761,0.00397062394768,0.0171042270958424
5,1.01805561097552,-0.029166668768514,0.0777777813567098,0.027488935738802,-0.013744467869401,0.0131336031481624
5,1.01805561097552,-0.0361111129898289,0.0736111117849297,0.0473420582711697,-0.0171042270958424,0.00519235478714108
5,1.01944450285877,-0.033333335301303,0.0777777813567098,0.0613919571042061,-0.00671951752156019,-0.00794124789535999
5,1.02222228662528,-0.033333335301303,0.0750000036681839,0.0681114718317986,-0.0189368221908808,-0.017409659922123
5,1.02361117850853,-0.0361111129898289,0.0791666671619817,0.0824668109416962,-0.00824668072164059,-0.0329867228865623
5,1.02083339474202,-0.029166668768514,0.0805555590452358,0.0937678143382072,0.00488692196086049,-0.0623082555830479
5,1.02500007039179,-0.0222222230277034,0.0750000036681839,0.090408056974411,0.0265726372599602,-0.0635299831628799
5,1.03194452980806,-0.0152777788063885,0.0861111144222878,0.0641408488154411,0.0452040284872055,-0.0983493030071259
5,1.02916674604155,-0.00833333382532574,0.0819444448505077,0.0387899428606033,0.0717766657471657,-0.120340451598167
5,1.01805561097552,-0.00277777787846293,0.0805555590452358,0.0259617734700441,0.0632245540618896,-0.132557764649391
5,1.02222228662528,-0.00277777787846293,0.0750000036681839,0.000916297896765172,0.0699440687894821,-0.130725160241127
5,1.02222228662528,-0.00138888893923146,0.0736111117849297,-0.0244346093386412,0.058643065392971,-0.148134827613831
5,1.0125000434425,-0.00138888893923146,0.0777777813567098,-0.0458148941397667,0.0571159012615681,-0.160046696662903
5,1.01388893532575,-0.00277777787846293,0.0750000036681839,-0.0620028227567673,0.0623082555830479,-0.163406446576118
5,1.02222228662528,-0.00277777787846293,0.0777777813567098,-0.0757472887635231,0.05283984541893,-0.166155353188515
5,1.02222228662528,-0.00833333382532574,0.0722222259796579,-0.0986547395586967,0.0659734457731247,-0.171347707509995
5,1.02361117850853,-0.00694444498106275,0.0625000010308258,-0.101709060370922,0.0729983970522881,-0.166155353188515
5,1.02222228662528,-0.0125000003581147,0.0625000010308258,-0.103236228227615,0.0616973899304867,-0.159435823559761
5,1.01805561097552,-0.0222222230277034,0.0625000010308258,-0.0901026204228401,0.0519235469400883,-0.15851953625679
5,1.02083339474202,-0.0416666683668809,0.0569444456537738,-0.0592539273202419,0.0775798857212067,-0.165849909186363
5,1.0125000434425,-0.0458333348996699,0.0541666679652478,-0.029626963660121,0.117286130785942,-0.184175878763199
5,0.991666665193688,-0.0486111125881959,0.0722222259796579,0.0103847095742822,0.0641408488154411,-0.183259576559067
5,0.993055557076942,-0.0458333348996699,0.0625000010308258,0.029626963660121,0.0226020142436027,-0.19578230381012
5,0.976388951725609,-0.0583333375370279,0.0486111125881959,0.0781907513737679,0.0250454749912024,-0.23273965716362
5,0.922222265526414,-0.0430555572111439,0.0611111152255539,0.143247902393341,-0.0610865242779255,-0.285274058580399
5,0.848611190209378,-0.029166668768514,0.101388894748172,0.175318330526352,-0.279165416955948,-0.274278491735458
5,0.869444471210474,-0.0152777788063885,0.150000007336368,0.201585531234741,-0.350636661052704,-0.184175878763199
5,0.975000059842355,0.00694444498106275,0.14722222356986,0.212275668978691,-0.30757063627243,-0.114842668175697
5,1.10138892947533,0.0402777795226179,0.111111119697004,0.192117124795914,-0.212886542081833,-0.0959058403968811
5,1.17361111290911,0.0486111125881959,0.0916666697993398,0.163101017475128,-0.165849909186363,-0.0830776765942574
5,1.19305559927467,0.0375000018340919,0.0847222225390337,0.156686931848526,-0.101403631269932,-0.0974330082535744
5,1.17500000479237,0.0222222230277034,0.0805555590452358,0.133168622851372,0.00152716308366507,-0.0952949747443199
5,1.13333334554246,0.0208333341834404,0.0972222251763917,0.0830776765942574,0.117286130785942,-0.0678060427308083
5,1.07222229717471,0.0430555572111439,0.118055554801345,0.00671951752156019,0.117591559886932,-0.0513126812875271
5,1.04722224327614,0.0347222241455659,0.12777778582816,-0.0442877300083637,0.0516181141138077,-0.0360410511493683
5,1.04583335139288,0.0250000007162294,0.10972222781375,-0.0812450796365738,0.0271835029125214,-0.021685715764761
5,1.04583335139288,0.0250000007162294,0.10972222781375,-0.0513126812875271,0.029626963660121,-0.000916297896765172
5,1.04444445950963,0.0250000007162294,0.0958333393711199,-0.0461203269660473,0.037568211555481,0.00641408516094089
5,1.01388893532575,0.0152777788063885,0.0944444474878658,-0.0106901414692402,0.0390953756868839,0.037568211555481
5,1.00000001649321,0.00833333382532574,0.101388894748172,0.0442877300083637,0.021685715764761,0.0598647929728031
5,0.991666665193688,0.00972222266958873,0.108333335930496,0.0821613743901253,0.0140499006956816,0.0632245540618896
5,0.99583334084345,0.0138888899621255,0.101388894748172,0.11606439948082,-0.000305432622553781,0.0656680166721344
5,1.00138890837647,0.0125000003581147,0.0944444474878658,0.135306656360626,0.0207694191485643,0.0366519130766392
5,1.00694447590948,0.0208333341834404,0.0847222225390337,0.167377084493637,0.0571159012615681,0.027488935738802
5,1.01527782720901,0.027777779924251,0.0791666671619817,0.178678080439568,0.0635299831628799,0.00824668072164059
5,1.0125000434425,0.0388888906783549,0.0750000036681839,0.181732416152954,0.0607810914516449,-0.0131336031481624
5,1.01805561097552,0.0486111125881959,0.0972222251763917,0.155770644545555,0.0549778714776039,-0.00946841109544039
5,1.01944450285877,0.0500000014324589,0.0944444474878658,0.130725160241127,0.0699440687894821,-0.013744467869401
5,1.01527782720901,0.0611111152255539,0.105555564319952,0.101098194718361,0.0561996027827263,-0.0219911485910416
5,1.0125000434425,0.0583333375370279,0.105555564319952,0.0662788823246956,0.0421497002243996,-0.027488935738802
5,1.01944450285877,0.0569444456537738,0.102777780553444,0.0415388382971287,0.0250454749912024,-0.0329867228865623
5,1.02777785415829,0.0458333348996699,0.0944444474878658,0.0342084541916847,0.0342084541916847,-0.0378736443817616
5,1.0305556379248,0.03194444645704,0.104166672436698,0.0384845100343227,0.0418442711234093,-0.0494800843298435
5,1.0305556379248,0.0375000018340919,0.0986111170596459,0.058643065392971,0.0452040284872055,-0.0455094613134861
5,1.03194452980806,0.0416666683668809,0.108333335930496,0.0613919571042061,0.0540615729987621,-0.0335975885391235
5,1.02916674604155,0.0541666679652478,0.105555564319952,0.0629191175103188,0.0583376325666905,-0.0222965814173222
5,1.01944450285877,0.0513888902767219,0.104166672436698,0.0690277740359306,0.0473420582711697,-0.00366519158706069
5,1.01527782720901,0.052777782159976,0.105555564319952,0.0552833043038845,0.0259617734700441,0.0180205255746841
5,1.01666671909226,0.0569444456537738,0.100000002864918,0.0558941699564457,0.0103847095742822,0.0189368221908808
5,1.01944450285877,0.055555559848502,0.102777780553444,0.0534507073462009,0.0045814891345799,0.0204639863222837
5,1.01805561097552,0.0569444456537738,0.0916666697993398,0.0418442711234093,0.0183259565383196,0.0180205255746841
5,1.01388893532575,0.055555559848502,0.0916666697993398,0.0204639863222837,0.0259617734700441,0.00641408516094089
5,1.01527782720901,0.052777782159976,0.0944444474878658,0.00549778714776039,0.0271835029125214,0.00977384392172098
5,1.00833336779274,0.0513888902767219,0.0972222251763917,0.00397062394768,0.0219911485910416,0.000305432622553781
5,1.00416669214298,0.0513888902767219,0.105555564319952,-0.00916297826915979,-0.0134390350431204,0.00610865233466029
5,1.00416669214298,0.0486111125881959,0.0972222251763917,-0.0247400421649218,-0.0360410511493683,0.0210748501121998
5,1.0125000434425,0.0486111125881959,0.0986111170596459,-0.0308486949652433,-0.0284052342176437,0.0259617734700441
5,1.02222228662528,0.0388888906783549,0.0944444474878658,-0.0201585534960032,-0.0250454749912024,0.0290160998702049
5,1.01805561097552,0.0361111129898289,0.0944444474878658,-0.00977384392172098,-0.0265726372599602,0.0372627787292004
5,1.01944450285877,0.0361111129898289,0.0888888921108138,-0.00885754637420177,-0.03176499158144,0.0357356183230877
5,1.02500007039179,0.0444444460554069,0.0944444474878658,-0.00946841109544039,-0.0326812900602817,0.0464257597923279
5,1.02361117850853,0.0458333348996699,0.0916666697993398,-0.0204639863222837,-0.0045814891345799,0.0470366254448891
5,1.02222228662528,0.0416666683668809,0.0875000002275597,-0.0213802829384804,0.0045814891345799,0.0345138870179653
5,1.02500007039179,0.0458333348996699,0.0958333393711199,-0.0280998013913631,-0.00549778714776039,0.0366519130766392
5,1.01944450285877,0.0500000014324589,0.0916666697993398,-0.0384845100343227,-0.0177150927484035,0.0293215326964855
5,1.02222228662528,0.0486111125881959,0.0916666697993398,-0.0574213340878487,-0.00916297826915979,0.0311541277915239
5,1.01944450285877,0.055555559848502,0.0847222225390337,-0.0665843114256859,-0.00763581553474069,0.0363464802503586
5,1.01944450285877,0.0583333375370279,0.0916666697993398,-0.0791070461273193,-0.0167987942695618,0.0354301854968071
5,1.02361117850853,0.0513888902767219,0.0930555616825939,-0.0922406539320946,-0.0302378293126821,0.0299323964864016
5,1.02222228662528,0.0486111125881959,0.0875000002275597,-0.0968221426010132,-0.0207694191485643,0.0277943685650826
5,1.02500007039179,0.0486111125881959,0.0833333367337618,-0.104457959532738,-0.0180205255746841,0.0247400421649218
5,1.0305556379248,0.0430555572111439,0.0777777813567098,-0.11636982858181,-0.00855211354792118,0.0247400421649218
5,1.02916674604155,0.0472222237439329,0.0861111144222878,-0.118202425539494,-0.00610865233466029,0.0152716310694814
5,1.0305556379248,0.0486111125881959,0.0805555590452358,-0.108428582549095,-0.00977384392172098,0.0027488935738802
5,1.02916674604155,0.0388888906783549,0.0791666671619817,-0.104763388633728,-0.0235183127224445,-0.00580321997404099
5,1.01388893532575,0.0208333341834404,0.0750000036681839,-0.096211276948452,-0.05283984541893,-0.0308486949652433
5,1.00972225967599,0.0138888899621255,0.0750000036681839,-0.0754418596625328,-0.0595593601465225,-0.0613919571042061
5,1.00138890837647,0.0152777788063885,0.0833333367337618,-0.0613919571042061,-0.0366519130766392,-0.0833831056952477
5,0.994444448960196,0.0125000003581147,0.0722222259796579,-0.0733038261532784,-0.0470366254448891,-0.0910189226269722
5,1.00555558402623,0.0208333341834404,0.0847222225390337,-0.0742201283574104,-0.0302378293126821,-0.0940732508897781
5,1.00277780025972,0.0222222230277034,0.108333335930496,-0.0452040284872055,0.00733038317412138,-0.096211276948452
5,0.99583334084345,0.0236111118719664,0.118055554801345,-0.0259617734700441,0.0027488935738802,-0.0916297882795334
5,0.99583334084345,0.0250000007162294,0.115277783190802,0.0253509078174829,-0.0571159012615681,-0.0809396430850029
5,1.03194452980806,0.0402777795226179,0.108333335930496,0.0568104684352875,-0.0436768643558025,-0.0708603709936142
5,1.04166667574312,0.0444444460554069,0.104166672436698,0.0653625801205635,-0.0222965814173222,-0.0497855171561241
5,1.05277781080915,0.0472222237439329,0.0958333393711199,0.0531452745199203,-0.00488692196086049,-0.0152716310694814
5,1.05277781080915,0.0472222237439329,0.0958333393711199,0.03176499158144,0.000610865245107561,0.0113010071218014
5,1.05694448645892,0.0472222237439329,0.0861111144222878,0.0128281703218818,0.0164933614432812,0.0378736443817616
5,1.05694448645892,0.0472222237439329,0.0861111144222878,0.00244346098043024,0.0293215326964855,0.0491746515035629
5,1.04861113515939,0.0375000018340919,0.0833333367337618,-0.011606439948082,0.0403171069920063,0.0427605658769607
5,1.03194452980806,0.026388891079988,0.0944444474878658,-0.00855211354792118,0.0369573459029198,0.037568211555481
5,1.02361117850853,0.0222222230277034,0.0944444474878658,-0.00794124789535999,0.0513126812875271,0.019547687843442
5,1.02500007039179,0.0138888899621255,0.0875000002275597,0.0033597587607801,0.0662788823246956,0.00733038317412138
5,1.02361117850853,0.0194444453391775,0.0833333367337618,0.0229074470698834,0.0635299831628799,0.00916297826915979
5,1.02222228662528,0.0250000007162294,0.0847222225390337,0.0372627787292004,0.0400116741657257,0.00580321997404099
5,1.01805561097552,0.029166668768514,0.0833333367337618,0.0519235469400883,0.0415388382971287,0.0021380283869803
5,1.01944450285877,0.029166668768514,0.0847222225390337,0.0659734457731247,0.0436768643558025,-0.00916297826915979
5,1.01805561097552,0.030555557612777,0.0944444474878658,0.0794124826788902,0.0439822971820831,-0.0253509078174829
5,1.0125000434425,0.033333335301303,0.0902777839940679,0.0784961804747581,0.03176499158144,-0.0271835029125214
5,1.00694447590948,0.0388888906783549,0.0916666697993398,0.0696386396884918,0.0329867228865623,-0.0259617734700441
5,1.0125000434425,0.0402777795226179,0.101388894748172,0.0766635909676552,0.0183259565383196,-0.0360410511493683
5,1.01527782720901,0.0402777795226179,0.101388894748172,0.0772744566202164,0.021685715764761,-0.0299323964864016
5,1.02083339474202,0.0458333348996699,0.0972222251763917,0.064446285367012,0.0232128798961639,-0.0415388382971287
5,1.01944450285877,0.0472222237439329,0.0902777839940679,0.0558941699564457,0.0186313893646002,-0.0342084541916847
5,1.01944450285877,0.0458333348996699,0.0847222225390337,0.0540615729987621,0.0247400421649218,-0.0397062413394451
5,1.01666671909226,0.0416666683668809,0.0861111144222878,0.0598647929728031,0.0293215326964855,-0.0290160998702049
5,1.01527782720901,0.0402777795226179,0.0875000002275597,0.0531452745199203,0.0271835029125214,-0.0339030213654041
5,1.01527782720901,0.0416666683668809,0.0944444474878658,0.0638354197144508,0.0143553335219622,-0.0277943685650826
5,1.01527782720901,0.0472222237439329,0.0888888921108138,0.0513126812875271,0.0125227374956012,-0.01588249579072
5,1.01527782720901,0.0513888902767219,0.0930555616825939,0.0558941699564457,-0.000305432622553781,-0.00580321997404099
5,1.01527782720901,0.0513888902767219,0.0930555616825939,0.0555887371301651,-0.00366519158706069,0.0149661982432008
5,1.02083339474202,0.0472222237439329,0.0847222225390337,0.0635299831628799,-0.00641408516094089,0.0235183127224445
5,1.01944450285877,0.0472222237439329,0.100000002864918,0.0595593601465225,-0.0125227374956012,0.0458148941397667
5,1.01666671909226,0.0416666683668809,0.0986111170596459,0.0638354197144508,-0.0287106670439243,0.0522289797663689
5,1.01666671909226,0.0388888906783549,0.0958333393711199,0.0577267669141293,-0.0277943685650826,0.0433714315295219
5,1.01527782720901,0.0430555572111439,0.0944444474878658,0.0620028227567673,-0.0271835029125214,0.0473420582711697
5,1.01527782720901,0.0430555572111439,0.104166672436698,0.0598647929728031,-0.0302378293126821,0.0568104684352875
5,1.02222228662528,0.0486111125881959,0.0972222251763917,0.0522289797663689,-0.0339030213654041,0.0412334054708481
5,1.0305556379248,0.0500000014324589,0.0861111144222878,0.04764748737216,-0.0247400421649218,0.03176499158144
5,1.0333333244436,0.0500000014324589,0.0916666697993398,0.0513126812875271,-0.00183259579353034,0.0256563406437635
5,1.02222228662528,0.0458333348996699,0.101388894748172,0.0500909499824047,0.0103847095742822,0.0235183127224445
5,1.01805561097552,0.0486111125881959,0.0930555616825939,0.0335975885391235,-0.00794124789535999,0.00122173049021512
5,1.01944450285877,0.0486111125881959,0.0986111170596459,0.0335975885391235,0.0021380283869803,0.00152716308366507
5,1.02222228662528,0.0513888902767219,0.100000002864918,0.02382374368608,0.00610865233466029,-0.0106901414692402
5,1.02083339474202,0.0583333375370279,0.102777780553444,0.0229074470698834,-0.0125227374956012,-0.0201585534960032
5,1.01944450285877,0.0583333375370279,0.0986111170596459,0.017409659922123,-0.0045814891345799,-0.0201585534960032
5,1.02361117850853,0.0625000010308258,0.101388894748172,0.013744467869401,0.00183259579353034,-0.0189368221908808
5,1.01944450285877,0.0625000010308258,0.0986111170596459,0.00580321997404099,-0.000610865245107561,-0.0204639863222837
5,1.02222228662528,0.0625000010308258,0.0986111170596459,-0.00488692196086049,0.00946841109544039,-0.0146607663482428
5,1.02361117850853,0.0666666706026059,0.0958333393711199,-0.00549778714776039,-0.00122173049021512,-0.00610865233466029
5,1.01944450285877,0.0680555564078778,0.100000002864918,-0.00824668072164059,0.0027488935738802,-0.0021380283869803
5,1.01944450285877,0.0583333375370279,0.0986111170596459,-0.00916297826915979,-0.00610865233466029,0.0134390350431204
5,1.02222228662528,0.0569444456537738,0.100000002864918,-0.00183259579353034,-0.00519235478714108,0.0109955742955208
5,1.02222228662528,0.0583333375370279,0.106944444047242,0.0143553335219622,-0.0122173046693206,0.013744467869401
5,1.02222228662528,0.055555559848502,0.102777780553444,0.00885754637420177,-0.0177150927484035,0.0161879286170006
5,1.01666671909226,0.0583333375370279,0.0902777839940679,-0.00183259579353034,-0.0100792767480016,0.01191187184304
5,1.02222228662528,0.0569444456537738,0.0916666697993398,-0.00427605677396059,-0.00580321997404099,0.00977384392172098
5,1.02222228662528,0.0583333375370279,0.0986111170596459,-0.00855211354792118,-0.00794124789535999,0.00488692196086049
5,1.02361117850853,0.0500000014324589,0.0916666697993398,-0.00610865233466029,0.00488692196086049,0.00916297826915979
5,1.02916674604155,0.0486111125881959,0.0986111170596459,-0.0100792767480016,0.00641408516094089,0.0183259565383196
5,1.02500007039179,0.0486111125881959,0.0805555590452358,-0.0198531206697226,0.00122173049021512,0.01588249579072
5,1.02361117850853,0.0430555572111439,0.0847222225390337,-0.0146607663482428,0.00152716308366507,0.00305432616733015
5,1.02083339474202,0.0361111129898289,0.0750000036681839,-0.0109955742955208,0.01191187184304,0.00305432616733015
5,1.02083339474202,0.033333335301303,0.0819444448505077,-0.00794124789535999,0.00549778714776039,-0.00366519158706069
5,1.02083339474202,0.03194444645704,0.0777777813567098,-0.00702495034784079,0.00733038317412138,-0.00855211354792118
5,1.02083339474202,0.030555557612777,0.0847222225390337,0.00488692196086049,0.00305432616733015,-0.0146607663482428
5,1.01805561097552,0.0347222241455659,0.0819444448505077,-0.000610865245107561,-0.00183259579353034,-0.0189368221908808
5,1.01527782720901,0.0388888906783549,0.0708333340964038,0.00946841109544039,0.00702495034784079,-0.01588249579072
5,1.01944450285877,0.0402777795226179,0.0750000036681839,0.0244346093386412,0.00763581553474069,-0.0186313893646002
5,1.02222228662528,0.0402777795226179,0.0750000036681839,0.027488935738802,0.0131336031481624,-0.011606439948082
5,1.02361117850853,0.0375000018340919,0.0819444448505077,0.0378736443817616,0.00702495034784079,-0.00397062394768
5,1.02083339474202,0.0375000018340919,0.0847222225390337,0.0430659987032413,-0.000610865245107561,-0.0021380283869803
5,1.02083339474202,0.0444444460554069,0.0861111144222878,0.0427605658769607,0.00305432616733015,0.00397062394768
5,1.01944450285877,0.0416666683668809,0.0875000002275597,0.0415388382971287,0.0113010071218014,0.0033597587607801
5,1.02083339474202,0.033333335301303,0.0819444448505077,0.0461203269660473,0.00488692196086049,0.00855211354792118
5,1.02500007039179,0.03194444645704,0.0847222225390337,0.04764748737216,-0.00122173049021512,0.00152716308366507
5,1.02638896227504,0.03194444645704,0.0819444448505077,0.0384845100343227,-0.00488692196086049,-0.0021380283869803
5,1.02777785415829,0.027777779924251,0.0930555616825939,0.0400116741657257,0.00916297826915979,-0.015577063895762
5,1.02777785415829,0.0361111129898289,0.0805555590452358,0.0394008085131645,0.00885754637420177,-0.00977384392172098
5,1.02777785415829,0.030555557612777,0.0819444448505077,0.0421497002243996,0.00916297826915979,-0.00946841109544039
5,1.02500007039179,0.033333335301303,0.0861111144222878,0.0519235469400883,0.00916297826915979,-0.0180205255746841
5,1.02083339474202,0.0388888906783549,0.0902777839940679,0.0525344125926495,0.0171042270958424,-0.00977384392172098
5,1.02083339474202,0.0416666683668809,0.0833333367337618,0.0516181141138077,0.00397062394768,-0.015577063895762
5,1.02222228662528,0.0402777795226179,0.0888888921108138,0.0516181141138077,0.0128281703218818,-0.0100792767480016
5,1.02222228662528,0.0416666683668809,0.0916666697993398,0.05283984541893,0.0125227374956012,-0.000305432622553781
5,1.02500007039179,0.0541666679652478,0.0888888921108138,0.0445931628346443,0.0125227374956012,0.00488692196086049
5,1.02500007039179,0.0541666679652478,0.0888888921108138,0.0445931628346443,0.0106901414692402,0.0027488935738802
5,1.02222228662528,0.0486111125881959,0.0875000002275597,0.0348193198442459,0.00824668072164059,0.00397062394768
5,1.02083339474202,0.0541666679652478,0.0888888921108138,0.0326812900602817,0.0143553335219622,0.00977384392172098
5,1.01527782720901,0.052777782159976,0.0944444474878658,0.0253509078174829,0.021685715764761,0.0125227374956012
5,1.01944450285877,0.0416666683668809,0.0875000002275597,0.0244346093386412,0.00977384392172098,0.00641408516094089
5,1.01944450285877,0.0416666683668809,0.0875000002275597,0.0186313893646002,0.0103847095742822,0.00977384392172098
5,1.01805561097552,0.0472222237439329,0.0958333393711199,0.0210748501121998,0.00916297826915979,0.0106901414692402
5,1.01944450285877,0.0486111125881959,0.0958333393711199,0.0109955742955208,0.0106901414692402,0.0125227374956012
5,1.01944450285877,0.0513888902767219,0.0875000002275597,0.011606439948082,0.00885754637420177,0.0027488935738802
5,1.01944450285877,0.0513888902767219,0.0833333367337618,0.0134390350431204,0.00824668072164059,0.0113010071218014
5,1.01944450285877,0.0458333348996699,0.0902777839940679,0.00488692196086049,0.0027488935738802,0.00916297826915979
5,1.02500007039179,0.0486111125881959,0.0888888921108138,0.00488692196086049,0.00183259579353034,0.0033597587607801
5,1.02361117850853,0.055555559848502,0.101388894748172,-0.00580321997404099,0.00549778714776039,0.00946841109544039
5,1.02361117850853,0.0569444456537738,0.0875000002275597,-0.00916297826915979,0.000916297896765172,0.00946841109544039
5,1.02361117850853,0.0541666679652478,0.0875000002275597,-0.0134390350431204,-0.00977384392172098,0.00641408516094089
5,1.02222228662528,0.0472222237439329,0.106944444047242,-0.01191187184304,-0.00244346098043024,0.00549778714776039
5,1.01805561097552,0.0472222237439329,0.0986111170596459,-0.0167987942695618,-0.00427605677396059,0.0113010071218014
5,1.02361117850853,0.0486111125881959,0.0986111170596459,-0.01191187184304,-0.0033597587607801,0.00977384392172098
5,1.02083339474202,0.0444444460554069,0.101388894748172,-0.0244346093386412,-0.00641408516094089,0.00794124789535999
5,1.01805561097552,0.0444444460554069,0.0944444474878658,-0.0229074470698834,-0.00824668072164059,0.01191187184304
5,1.01527782720901,0.0458333348996699,0.0958333393711199,-0.0259617734700441,-0.00733038317412138,0.00763581553474069
5,1.01527782720901,0.0444444460554069,0.0972222251763917,-0.0186313893646002,0.0027488935738802,0.0033597587607801
5,1.0125000434425,0.0430555572111439,0.104166672436698,-0.0204639863222837,-0.00855211354792118,0.00244346098043024
5,1.01388893532575,0.0486111125881959,0.100000002864918,-0.0271835029125214,0.000305432622553781,0.0021380283869803
5,1.02222228662528,0.0486111125881959,0.0944444474878658,-0.0366519130766392,-0.0033597587607801,-0.0027488935738802
5,1.0305556379248,0.0402777795226179,0.0916666697993398,-0.037568211555481,0.00794124789535999,0.00122173049021512
5,1.0305556379248,0.0458333348996699,0.0861111144222878,-0.0415388382971287,0.00977384392172098,-0.000916297896765172
5,1.0305556379248,0.0361111129898289,0.0875000002275597,-0.0421497002243996,0.0045814891345799,-0.00305432616733015
5,1.02222228662528,0.0361111129898289,0.0833333367337618,-0.0436768643558025,0.00794124789535999,-0.00397062394768
5,1.02083339474202,0.0347222241455659,0.0833333367337618,-0.0332921557128429,0.0033597587607801,-0.00946841109544039
5,1.01944450285877,0.03194444645704,0.0902777839940679,-0.0308486949652433,0.00610865233466029,-0.00641408516094089
5,1.01944450285877,0.03194444645704,0.0916666697993398,-0.0131336031481624,0.00580321997404099,-0.00763581553474069
5,1.01944450285877,0.029166668768514,0.0902777839940679,-0.01191187184304,0.000916297896765172,-0.00946841109544039
5,1.01805561097552,0.0375000018340919,0.0930555616825939,0.00366519158706069,0.00244346098043024,-0.00244346098043024
5,1.01805561097552,0.0416666683668809,0.0930555616825939,0.0027488935738802,0.00488692196086049,-0.00519235478714108
5,1.02638896227504,0.0375000018340919,0.0750000036681839,0.01191187184304,-0.000610865245107561,-0.00305432616733015
5,1.02222228662528,0.0416666683668809,0.0875000002275597,0.00763581553474069,0.000305432622553781,-0.000916297896765172
5,1.02222228662528,0.0388888906783549,0.0986111170596459,0.0189368221908808,0.00427605677396059,-0.000305432622553781
5,1.01944450285877,0.0388888906783549,0.0958333393711199,0.00977384392172098,0.00427605677396059,-0.011606439948082
5,1.01944450285877,0.0402777795226179,0.0944444474878658,0.01588249579072,0.0045814891345799,-0.000916297896765172
5,1.01944450285877,0.0416666683668809,0.0916666697993398,0.0204639863222837,0.00152716308366507,0.00152716308366507
5,1.01944450285877,0.0388888906783549,0.0861111144222878,0.019547687843442,-0.0021380283869803,0.00519235478714108
5,1.02222228662528,0.0430555572111439,0.0750000036681839,0.0204639863222837,0.0027488935738802,0.00244346098043024
5,1.02222228662528,0.0375000018340919,0.0750000036681839,0.0219911485910416,0.0027488935738802,0.0186313893646002
5,1.02222228662528,0.0361111129898289,0.0847222225390337,0.0167987942695618,-0.00183259579353034,0.015577063895762
5,1.02361117850853,0.0388888906783549,0.0888888921108138,0.0210748501121998,0.00580321997404099,0.00671951752156019
5,1.02361117850853,0.0388888906783549,0.0847222225390337,0.0222965814173222,0.00671951752156019,0.000305432622553781
5,1.02222228662528,0.0388888906783549,0.0875000002275597,0.0290160998702049,0.00122173049021512,0.00946841109544039
5,1.01666671909226,0.0416666683668809,0.0819444448505077,0.0299323964864016,0.00244346098043024,0.00702495034784079
5,1.02500007039179,0.0388888906783549,0.0916666697993398,0.0384845100343227,-0.00122173049021512,0.0109955742955208
5,1.01944450285877,0.0347222241455659,0.0888888921108138,0.03176499158144,-0.00610865233466029,0.0109955742955208
5,1.02222228662528,0.0375000018340919,0.0833333367337618,0.027488935738802,-0.00580321997404099,0.00549778714776039
5,1.02222228662528,0.0458333348996699,0.0944444474878658,0.0262672062963247,-0.000916297896765172,0.0192422550171614
5,1.02500007039179,0.0458333348996699,0.0861111144222878,0.0268780700862408,-0.00397062394768,0.00152716308366507
5,1.02638896227504,0.0416666683668809,0.0916666697993398,0.0226020142436027,0.00519235478714108,0.00885754637420177
5,1.02500007039179,0.0388888906783549,0.0847222225390337,0.0167987942695618,0.00366519158706069,0.0027488935738802
5,1.01944450285877,0.0458333348996699,0.0819444448505077,0.0204639863222837,0.00549778714776039,0.00519235478714108
5,1.01527782720901,0.0375000018340919,0.0916666697993398,0.011606439948082,0.00855211354792118,-0.000916297896765172
5,1.02500007039179,0.0361111129898289,0.0986111170596459,0.0140499006956816,0.0125227374956012,-0.0021380283869803
5,1.02083339474202,0.0361111129898289,0.0875000002275597,0.0122173046693206,0.00244346098043024,-0.011606439948082
5,1.02361117850853,0.0416666683668809,0.0861111144222878,0.019547687843442,0.00824668072164059,-0.00519235478714108
5,1.02222228662528,0.0416666683668809,0.0847222225390337,0.021685715764761,0.00946841109544039,0.0033597587607801
5,1.02361117850853,0.0361111129898289,0.0916666697993398,0.0167987942695618,0.00702495034784079,-0.00610865233466029
5,1.02222228662528,0.0388888906783549,0.0930555616825939,0.0171042270958424,0.00824668072164059,-0.00244346098043024
5,1.02083339474202,0.033333335301303,0.0861111144222878,0.00671951752156019,0.00794124789535999,-0.00977384392172098
5,1.02083339474202,0.030555557612777,0.0888888921108138,0.0109955742955208,0.00641408516094089,-0.00946841109544039
5,1.02222228662528,0.03194444645704,0.0888888921108138,0.0143553335219622,0.00641408516094089,-0.0134390350431204
5,1.01944450285877,0.030555557612777,0.0958333393711199,0.00885754637420177,0.0033597587607801,-0.0128281703218818
5,1.02222228662528,0.029166668768514,0.0958333393711199,0.0128281703218818,0.00488692196086049,-0.0152716310694814
5,1.02500007039179,0.0361111129898289,0.0916666697993398,0.0103847095742822,0.00641408516094089,-0.0171042270958424
5,1.01944450285877,0.0416666683668809,0.0819444448505077,0.0140499006956816,0.0122173046693206,-0.00641408516094089
5,1.01666671909226,0.0402777795226179,0.0833333367337618,0.0146607663482428,0.00733038317412138,-0.0100792767480016
5,1.01666671909226,0.0388888906783549,0.0847222225390337,0.00794124789535999,0.00763581553474069,-0.00427605677396059
5,1.01944450285877,0.0416666683668809,0.0944444474878658,0.00702495034784079,0.00397062394768,0.00244346098043024
5,1.02083339474202,0.0416666683668809,0.0916666697993398,0.0177150927484035,0.00244346098043024,-0.00152716308366507
5,1.02222228662528,0.029166668768514,0.104166672436698,0.0164933614432812,0.00305432616733015,0.00794124789535999
5,1.02222228662528,0.0222222230277034,0.100000002864918,0.0372627787292004,0.00122173049021512,0.000305432622553781
5,1.01944450285877,0.029166668768514,0.0930555616825939,0.0574213340878487,0.0122173046693206,0.000610865245107561
5,1.01527782720901,0.0416666683668809,0.0916666697993398,0.0791070461273193,0.0161879286170006,0.0125227374956012
5,1.01527782720901,0.0416666683668809,0.0916666697993398,0.0729983970522881,0.00794124789535999,0.02382374368608
5,1.02222228662528,0.0513888902767219,0.0805555590452358,0.0836885422468185,0.0152716310694814,0.0436768643558025
5,1.02500007039179,0.0500000014324589,0.0916666697993398,0.0794124826788902,0.00824668072164059,0.0430659987032413
5,1.02500007039179,0.0500000014324589,0.0916666697993398,0.0623082555830479,0.00733038317412138,0.0436768643558025
5,1.02222228662528,0.0750000036681839,0.0916666697993398,0.00702495034784079,-0.0109955742955208,0.0470366254448891
5,1.02361117850853,0.0750000036681839,0.101388894748172,-0.058643065392971,-0.0033597587607801,0.0378736443817616
5,1.02361117850853,0.0750000036681839,0.101388894748172,-0.102930791676045,0.0027488935738802,0.0125227374956012
5,1.01527782720901,0.0736111117849297,0.0875000002275597,-0.145996794104576,-0.015577063895762,0.00855211354792118
5,1.01944450285877,0.0513888902767219,0.0791666671619817,-0.168598800897598,0.00305432616733015,-0.0021380283869803
5,1.01944450285877,0.0513888902767219,0.0791666671619817,-0.176234617829323,-0.0045814891345799,-0.02382374368608
5,1.01527782720901,0.0375000018340919,0.0847222225390337,-0.206472456455231,0.0027488935738802,-0.0351247526705265
5,1.01805561097552,0.030555557612777,0.0875000002275597,-0.195171445608139,0.00763581553474069,-0.0348193198442459
5,1.01805561097552,0.030555557612777,0.0875000002275597,-0.173791155219078,-0.00733038317412138,-0.0323758572340012
5,1.02222228662528,0.0388888906783549,0.0916666697993398,-0.156381502747536,-0.00580321997404099,-0.0226020142436027
5,1.02083339474202,0.033333335301303,0.0847222225390337,-0.142942473292351,-0.0113010071218014,-0.0125227374956012
5,1.02361117850853,0.027777779924251,0.0930555616825939,-0.122173048555851,-0.01191187184304,0.000610865245107561
5,1.01666671909226,0.030555557612777,0.0916666697993398,-0.0986547395586967,-0.0171042270958424,0.00152716308366507
5,1.02222228662528,0.029166668768514,0.0833333367337618,-0.0729983970522881,-0.0149661982432008,0.0177150927484035
5,1.02222228662528,0.029166668768514,0.0819444448505077,-0.0711658000946045,-0.00488692196086049,0.01588249579072
5,1.01944450285877,0.027777779924251,0.0875000002275597,-0.0601702257990837,0.000305432622553781,0.00488692196086049
5,1.02500007039179,0.03194444645704,0.0847222225390337,-0.0693332031369209,0.0033597587607801,0.00244346098043024
5,1.02500007039179,0.027777779924251,0.0944444474878658,-0.0775798857212067,0.0146607663482428,-0.00702495034784079
5,1.02361117850853,0.03194444645704,0.100000002864918,-0.0849102661013603,0.0201585534960032,-0.0106901414692402
5,1.02638896227504,0.0222222230277034,0.102777780553444,-0.0800233483314514,0.0235183127224445,-0.0198531206697226
5,1.02500007039179,0.0250000007162294,0.106944444047242,-0.08460483700037,0.02382374368608,-0.0241291765123606
5,1.02777785415829,0.0194444453391775,0.118055554801345,-0.0720821022987366,0.0284052342176437,-0.0146607663482428
5,1.02916674604155,0.0138888899621255,0.116666675074056,-0.0568104684352875,0.0326812900602817,-0.0332921557128429
5,1.02916674604155,0.00555555575692586,0.113888891307548,-0.0235183127224445,0.0268780700862408,-0.0421497002243996
5,1.02777785415829,0.00972222266958873,0.106944444047242,0.00244346098043024,0.0378736443817616,-0.0326812900602817
5,1.01944450285877,0.00972222266958873,0.100000002864918,0.0394008085131645,0.0222965814173222,-0.0378736443817616
5,1.02222228662528,-0.00277777787846293,0.0986111170596459,0.0784961804747581,0.0229074470698834,-0.0384845100343227
5,1.02222228662528,0.00277777787846293,0.0916666697993398,0.118202425539494,0.02382374368608,-0.0378736443817616
5,1.02500007039179,0.00555555575692586,0.0875000002275597,0.145385921001434,0.029626963660121,-0.0335975885391235
5,1.02083339474202,0.0152777788063885,0.0875000002275597,0.170736834406853,0.0299323964864016,-0.0277943685650826
5,1.01805561097552,0.0222222230277034,0.0944444474878658,0.193338856101036,0.0345138870179653,-0.0323758572340012
5,1.01944450285877,0.026388891079988,0.111111119697004,0.212886542081833,0.0348193198442459,-0.0302378293126821
5,1.01944450285877,0.0250000007162294,0.0944444474878658,0.221438646316528,0.0305432621389627,-0.0222965814173222
5,1.01944450285877,0.0361111129898289,0.10972222781375,0.218384325504303,0.0302378293126821,-0.0280998013913631
5,1.01944450285877,0.0569444456537738,0.101388894748172,0.205250725150108,0.03176499158144,-0.0198531206697226
5,1.01944450285877,0.055555559848502,0.0958333393711199,0.186313897371292,0.0183259565383196,-0.0235183127224445
5,1.02222228662528,0.0611111152255539,0.108333335930496,0.164933621883392,0.0152716310694814,-0.0210748501121998
5,1.01944450285877,0.0625000010308258,0.105555564319952,0.135001212358475,0.0113010071218014,-0.0250454749912024
5,1.01944450285877,0.0652777787193518,0.104166672436698,0.110261179506779,0.0131336031481624,-0.0271835029125214
5,1.01944450285877,0.0666666706026059,0.0986111170596459,0.0888808965682983,0.0109955742955208,-0.0192422550171614
5,1.01527782720901,0.0736111117849297,0.10972222781375,0.0580321997404099,-0.00488692196086049,-0.0149661982432008
5,1.01666671909226,0.0750000036681839,0.0986111170596459,0.0302378293126821,-0.00244346098043024,-0.0143553335219622
5,1.01944450285877,0.0750000036681839,0.104166672436698,0.0131336031481624,-0.0109955742955208,0.00244346098043024
5,1.01944450285877,0.0750000036681839,0.111111119697004,-0.0128281703218818,-0.0186313893646002,0.0109955742955208
5,1.01944450285877,0.0750000036681839,0.102777780553444,-0.0412334054708481,-0.0186313893646002,0.0219911485910416
5,1.01944450285877,0.0736111117849297,0.10972222781375,-0.0546724386513233,-0.000916297896765172,0.0448985956609249
5,1.00972225967599,0.0680555564078778,0.113888891307548,-0.0558941699564457,-0.0491746515035629,0.0510072484612465
5,1.01944450285877,0.0666666706026059,0.0819444448505077,-0.0372627787292004,-0.0271835029125214,0.0589484944939613
5,1.01111115155925,0.0513888902767219,0.0972222251763917,-0.0180205255746841,-0.0262672062963247,0.0589484944939613
5,1.01527782720901,0.0430555572111439,0.0805555590452358,-0.00488692196086049,-0.0458148941397667,0.0543670058250427
5,1.01388893532575,0.0444444460554069,0.0791666671619817,0.0106901414692402,-0.0491746515035629,0.0345138870179653
5,1.01944450285877,0.033333335301303,0.0791666671619817,0.0201585534960032,-0.0360410511493683,0.0204639863222837
5,1.01805561097552,0.033333335301303,0.0819444448505077,0.0320704244077206,-0.0290160998702049,0.011606439948082
5,1.02361117850853,0.0361111129898289,0.0722222259796579,0.0485637858510017,-0.015577063895762,-0.015577063895762
5,1.03194452980806,0.0430555572111439,0.0722222259796579,0.0546724386513233,-0.00488692196086049,-0.0302378293126821
5,1.02500007039179,0.0444444460554069,0.0736111117849297,0.03176499158144,0.00183259579353034,-0.0452040284872055
5,1.01527782720901,0.0500000014324589,0.0722222259796579,0.0152716310694814,0.00549778714776039,-0.0555887371301651
5,1.0125000434425,0.0486111125881959,0.0833333367337618,-0.0113010071218014,0.0027488935738802,-0.0546724386513233
5,1.01388893532575,0.052777782159976,0.0861111144222878,-0.0241291765123606,0.00519235478714108,-0.0369573459029198
5,1.01527782720901,0.0569444456537738,0.0930555616825939,-0.0183259565383196,0.0134390350431204,-0.0409279726445675
5,1.02222228662528,0.052777782159976,0.0944444474878658,-0.02382374368608,0.00916297826915979,-0.0467311926186085
5,1.02777785415829,0.0625000010308258,0.0986111170596459,-0.0271835029125214,0.00641408516094089,-0.0415388382971287
5,1.02222228662528,0.0583333375370279,0.104166672436698,-0.027488935738802,0.00946841109544039,-0.0284052342176437
5,1.02361117850853,0.0541666679652478,0.0888888921108138,-0.0140499006956816,0.0204639863222837,-0.0164933614432812
5,1.01805561097552,0.052777782159976,0.0944444474878658,-0.0256563406437635,0.0222965814173222,-0.0189368221908808
5,1.01944450285877,0.052777782159976,0.0972222251763917,-0.0198531206697226,0.0164933614432812,-0.0125227374956012
5,1.02500007039179,0.0500000014324589,0.102777780553444,-0.0125227374956012,0.0103847095742822,-0.00427605677396059
5,1.01527782720901,0.0513888902767219,0.105555564319952,-0.0045814891345799,0.0140499006956816,0.00488692196086049
5,1.01944450285877,0.0472222237439329,0.0944444474878658,-0.00183259579353034,0.0033597587607801,0.0033597587607801
5,1.01944450285877,0.0472222237439329,0.0944444474878658,-0.000305432622553781,0.011606439948082,-0.00916297826915979
5,1.01944450285877,0.0458333348996699,0.0861111144222878,0.00488692196086049,0.0164933614432812,-0.0201585534960032
5,1.01944450285877,0.0416666683668809,0.0875000002275597,0.0103847095742822,0.013744467869401,-0.02382374368608
5,1.01944450285877,0.0416666683668809,0.0875000002275597,0.00702495034784079,0.011606439948082,-0.0299323964864016
5,1.02083339474202,0.0416666683668809,0.0944444474878658,0.0226020142436027,0.0146607663482428,-0.0302378293126821
5,1.02500007039179,0.0444444460554069,0.0986111170596459,0.0262672062963247,0.0201585534960032,-0.0354301854968071
5,1.02500007039179,0.0444444460554069,0.0986111170596459,0.0293215326964855,0.0204639863222837,-0.0326812900602817
5,1.02361117850853,0.0500000014324589,0.0930555616825939,0.0384845100343227,0.0180205255746841,-0.0210748501121998
5,1.02083339474202,0.0513888902767219,0.0916666697993398,0.0351247526705265,0.0204639863222837,-0.0320704244077206
5,1.02222228662528,0.0486111125881959,0.0930555616825939,0.0351247526705265,0.0235183127224445,-0.0241291765123606
5,1.02361117850853,0.0513888902767219,0.0944444474878658,0.0247400421649218,0.0210748501121998,-0.0259617734700441
5,1.02361117850853,0.0513888902767219,0.0944444474878658,0.0268780700862408,0.0143553335219622,-0.0253509078174829
5,1.02083339474202,0.0486111125881959,0.0958333393711199,0.027488935738802,0.01191187184304,-0.0342084541916847
5,1.01666671909226,0.0444444460554069,0.0958333393711199,0.02382374368608,0.0131336031481624,-0.0360410511493683
5,1.01944450285877,0.0486111125881959,0.100000002864918,0.0305432621389627,0.0134390350431204,-0.0430659987032413
5,1.01805561097552,0.0486111125881959,0.0916666697993398,0.0387899428606033,0.0164933614432812,-0.0406225398182869
5,1.02083339474202,0.0458333348996699,0.106944444047242,0.037568211555481,0.0134390350431204,-0.0378736443817616
5,1.01944450285877,0.0458333348996699,0.105555564319952,0.0555887371301651,0.0109955742955208,-0.0299323964864016
5,1.02222228662528,0.0472222237439329,0.0916666697993398,0.0751364231109619,0.0164933614432812,-0.0253509078174829
5,1.02500007039179,0.0486111125881959,0.0916666697993398,0.0888808965682983,0.00305432616733015,-0.0125227374956012
5,1.02500007039179,0.0444444460554069,0.0958333393711199,0.103847093880177,-0.000916297896765172,-0.00610865233466029
5,1.01666671909226,0.0430555572111439,0.104166672436698,0.120951317250729,-0.0177150927484035,-0.00152716308366507
5,1.00972225967599,0.0458333348996699,0.105555564319952,0.133779495954514,-0.0293215326964855,0.0103847095742822
5,1.00833336779274,0.0458333348996699,0.0986111170596459,0.139582708477974,-0.0284052342176437,0.0103847095742822
5,1.00972225967599,0.0458333348996699,0.100000002864918,0.143858760595322,-0.0302378293126821,0.00733038317412138
5,1.01805561097552,0.0486111125881959,0.100000002864918,0.154548913240433,-0.0244346093386412,0.00733038317412138
5,1.02638896227504,0.0486111125881959,0.0972222251763917,0.159741267561913,-0.0146607663482428,0.00183259579353034
5,1.02777785415829,0.052777782159976,0.0972222251763917,0.170431405305862,-0.000916297896765172,0.000916297896765172
5,1.02638896227504,0.0597222233422998,0.104166672436698,0.166460782289505,0.0109955742955208,-0.00549778714776039
5,1.02638896227504,0.0652777787193518,0.111111119697004,0.16401731967926,0.00702495034784079,0.00397062394768
5,1.01944450285877,0.0680555564078778,0.106944444047242,0.157603234052658,0.00366519158706069,0.00488692196086049
5,1.02361117850853,0.0722222259796579,0.101388894748172,0.149661988019943,-0.00855211354792118,0.0106901414692402
5,1.02222228662528,0.0666666706026059,0.0958333393711199,0.137750118970871,0.00855211354792118,0.0189368221908808
5,1.02083339474202,0.0680555564078778,0.0972222251763917,0.117286130785942,0.0128281703218818,0.00855211354792118
5,1.00833336779274,0.0736111117849297,0.0944444474878658,0.0959058403968811,0.00702495034784079,0.011606439948082
5,1.00694447590948,0.0777777813567098,0.101388894748172,0.0693332031369209,-0.0103847095742822,0.00763581553474069
5,1.01388893532575,0.0708333340964038,0.100000002864918,0.0616973899304867,-0.0045814891345799,0.00824668072164059
5,1.01527782720901,0.0750000036681839,0.0916666697993398,0.0574213340878487,0.00366519158706069,-0.000610865245107561
