Activity,acc_x,acc_y,acc_z,gyro_x,gyro_y,gyro_z
0,0.469444484062732,0.120833338567854,0.865277795560711,0.0262672062963247,-0.218384325504303,0.0027488935738802
0,0.458333348996699,0.112499999424294,0.861111119910949,0.0372627787292004,-0.215635433793068,-0.0262672062963247
0,0.455555565230191,0.113888891307548,0.862500011794203,0.0326812900602817,-0.244956970214844,-0.0592539273202419
0,0.459722240879953,0.125000002061652,0.870833363093728,-0.00122173049021512,-0.132557764649391,-0.0488692186772823
0,0.456944457113445,0.113888891307548,0.877777822509998,-0.0335975885391235,-0.124311074614525,-0.0623082555830479
0,0.459722240879953,0.0972222251763917,0.880555606276507,-0.0180205255746841,-0.130114302039146,-0.0907134860754013
0,0.459722240879953,0.0736111117849297,0.877777822509998,0.0384845100343227,-0.159130394458771,-0.142026171088219
0,0.479166678621653,0.0819444448505077,0.899999995394348,0.0452040284872055,-0.102014496922493,-0.146302223205566
0,0.473611111088636,0.113888891307548,0.92083337364316,0.058643065392971,-0.120340451598167,-0.152716308832169
0,0.495833332596844,0.163888889701015,0.970833384192592,0.0516181141138077,-0.308486938476563,-0.1750128865242
0,0.500000008246606,0.176388892338373,0.962500032893068,-0.129808858036995,-0.372322380542755,-0.135917514562607
0,0.505555575779623,0.172222228844576,0.929166724942685,-0.282525181770325,-0.282219737768173,-0.0995710343122482
0,0.479166678621653,0.151388899219622,0.858333336144441,-0.288939267396927,-0.26419922709465,-0.153632611036301
0,0.480555570504907,0.143055560076062,0.838888947026599,-0.110261179506779,-0.258395999670029,-0.173791155219078
0,0.488888921804431,0.134722233088466,0.820833352544296,-0.0299323964864016,-0.279165416955948,-0.171042263507843
0,0.488888921804431,0.136111112815755,0.82222224442755,0.0100792767480016,-0.382707089185715,-0.135306656360626
0,0.486111138037923,0.140277788465518,0.793055563503071,-0.0418442711234093,-0.293826192617416,-0.132557764649391
0,0.476388894855144,0.113888891307548,0.762500039319197,-0.0415388382971287,-0.22724187374115,-0.201585531234741
0,0.481944462388161,0.111111119697004,0.752777796136418,0.00305432616733015,-0.156686931848526,-0.229990765452385
0,0.495833332596844,0.111111119697004,0.752777796136418,0.0766635909676552,-0.146302223205566,-0.246484130620956
0,0.505555575779623,0.108333335930496,0.761111147435943,0.1795943826437,-0.153021737933159,-0.28496864438057
0,0.52083333787156,0.122222230451108,0.78333336894415,0.241902634501457,-0.211970239877701,-0.300240278244019
0,0.544444451263022,0.140277788465518,0.779166693294388,0.225714713335037,-0.0971275717020035,-0.256563395261765
0,0.544444451263022,0.159722226207217,0.784722260827405,0.0839939713478088,0.229074463248253,-0.226020142436027
0,0.558333370095563,0.166666673467524,0.834722271376837,0.0583376325666905,0.252898216247559,-0.200974673032761
0,0.572222240304247,0.187500003092477,0.86805557932722,0.0384845100343227,0.0867428630590439,-0.164933621883392
0,0.559722261978817,0.20972223675665,0.847222298326124,0.0681114718317986,-0.0629191175103188,-0.124616511166096
0,0.559722261978817,0.20972223675665,0.847222298326124,0.0956004112958908,-0.0332921557128429,-0.037568211555481
0,0.543055559379768,0.193055558469529,0.849999984844916,0.105068825185299,0.266031801700592,0.015577063895762
0,0.536111148587356,0.187500003092477,0.870833363093728,0.0919352173805237,0.27458393573761,0.0125227374956012
0,0.530555581054339,0.188888894975731,0.879166714393253,0.00916297826915979,0.236404851078987,0.0183259565383196
0,0.522222229754814,0.19166667874224,0.877777822509998,-0.0784961804747581,0.297185927629471,-0.0113010071218014
0,0.516666662221798,0.193055558469529,0.862500011794203,-0.122173048555851,0.253814518451691,-0.0329867228865623
0,0.502777792013115,0.186111123365188,0.863888903677457,-0.0888808965682983,0.222965821623802,0.0577267669141293
0,0.502777792013115,0.186111123365188,0.863888903677457,-0.127976268529892,0.457232624292374,0.0326812900602817
0,0.469444484062732,0.198611113846581,0.820833352544296,-0.133779495954514,0.64996063709259,-0.0558941699564457
0,0.525000013521323,0.151388899219622,0.826388920077312,0.310624986886978,-0.339641064405441,0.0937678143382072
0,0.525000013521323,0.151388899219622,0.826388920077312,0.44348818063736,0.0430659987032413,0.0378736443817616
0,0.488888921804431,0.18333333959868,0.86805557932722,0.358577907085419,0.141415297985077,-0.148440256714821
0,0.484722246154669,0.216666671860991,0.858333336144441,0.183259576559067,0.206777885556221,-0.109650313854218
0,0.486111138037923,0.206944452990142,0.854166660494678,0.109650313854218,0.153632611036301,-0.0937678143382072
0,0.486111138037923,0.206944452990142,0.854166660494678,0.160657554864883,0.115758962929249,-0.00916297826915979
0,0.354166676560001,0.156944454596674,0.89722221162784,0.518930017948151,-0.12675453722477,-0.0192422550171614
0,0.525000013521323,0.272222225631511,0.752777796136418,0.251371055841446,0.276721954345703,-0.0109955742955208
0,0.525000013521323,0.272222225631511,0.752777796136418,-0.142331600189209,0.775493443012238,-0.34330627322197
0,0.516666662221798,0.206944452990142,0.804166698569104,-0.493884563446045,0.424551337957382,0.220522359013557
0,0.380555573717971,0.148611115453114,0.779166693294388,-0.574213325977325,-0.288939267396927,0.488081336021423
0,0.526388905404577,0.204166669223633,0.933333400592447,-0.238848313689232,-0.015577063895762,0.142331600189209
0,0.447222262554524,0.212499996211229,0.976388951725609,0.0308486949652433,0.218384325504303,0.242513507604599
0,0.390277792588821,0.206944452990142,0.930555616825939,0.132557764649391,0.241291776299477,0.271529614925385
0,0.462500024646461,0.197222234119292,0.890277849459286,0.148440256714821,0.294131606817245,0.208305045962334
0,0.469444484062732,0.187500003092477,0.887500065692777,0.128892570734024,0.0769690200686455,0.260228604078293
0,0.466666700296224,0.158333334323963,0.877777822509998,0.203723564743996,-0.392175495624542,0.398894995450974
0,0.452777781463682,0.170833336961321,0.890277849459286,0.237626582384109,-0.436463207006455,0.384845107793808
0,0.447222262554524,0.181944447715425,0.880555606276507,0.212886542081833,-0.215330004692078,0.258395999670029
0,0.493055597454194,0.176388892338373,0.879166714393253,0.166766211390495,-0.119729585945606,0.183565005660057
0,0.495833332596844,0.169444445078067,0.877777822509998,0.135917514562607,-0.195476874709129,0.195171445608139
0,0.481944462388161,0.16527778158427,0.881944498159761,0.172874867916107,-0.356134444475174,0.280692577362061
0,0.469444484062732,0.163888889701015,0.890277849459286,0.213191971182823,-0.363159388303757,0.328340083360672
0,0.455555565230191,0.190277786858986,0.854166660494678,0.0781907513737679,-0.00702495034784079,0.291382730007172
0,0.46527780841297,0.208333344873396,0.827777811960566,-0.0650571510195732,0.359188765287399,0.106901414692402
0,0.519444445988306,0.195833342236038,0.806944482335612,-0.11636982858181,0.313679307699203,0.081855945289135
0,0.509722251429385,0.154166670830166,0.837500055143345,-0.102319926023483,0.00244346098043024,0.149356558918953
0,0.525000013521323,0.138888896582264,0.831944487610329,-0.0949895456433296,-0.175929188728332,0.122478485107422
0,0.538888932353864,0.134722233088466,0.848611190209378,-0.0131336031481624,-0.363770246505737,0.165239050984383
0,0.488888921804431,0.144444451959316,0.840277838909853,-0.0601702257990837,-0.204945296049118,0.157908663153648
0,0.529166689171085,0.180555567988136,0.82916670384382,-0.0907134860754013,0.18020524084568,-0.00519235478714108
0,0.515277818962402,0.161111118090472,0.840277838909853,-0.0241291765123606,0.268780708312988,-0.0949895456433296
0,0.506944467662877,0.133333341205212,0.858333336144441,-0.00641408516094089,0.152105450630188,-0.0879645943641663
0,0.50138890012986,0.113888891307548,0.856944444261187,-0.0595593601465225,-0.273362189531326,0.0632245540618896
0,0.487500029921177,0.12777778582816,0.883333390043015,-0.0442877300083637,-0.406836241483688,0.134695783257484
0,0.518055554105052,0.161111118090472,0.916666697993398,-0.0180205255746841,-0.142026171088219,0.0360410511493683
0,0.529166689171085,0.169444445078067,0.936111184358955,-0.0253509078174829,0.171347707509995,-0.0595593601465225
0,0.506944467662877,0.154166670830166,0.893055633225794,-0.0561996027827263,0.0897971913218498,-0.021685715764761
0,0.49444444071359,0.14722222356986,0.872222254976982,-0.0931569486856461,-0.037568211555481,0.00763581553474069
0,0.487500029921177,0.13750000469901,0.866666687443965,-0.15851953625679,-0.162184715270996,0.0653625801205635
0,0.509722251429385,0.136111112815755,0.854166660494678,-0.152105450630188,-0.202807262539864,0.0415388382971287
0,0.505555575779623,0.130555557438704,0.863888903677457,-0.0824668109416962,-0.0882700309157372,-0.0250454749912024
0,0.526388905404577,0.151388899219622,0.838888947026599,-0.108734011650086,0.171042263507843,-0.146302223205566
0,0.526388905404577,0.144444451959316,0.844444514559616,-0.124921940267086,0.141720741987228,-0.145691365003586
0,0.502777792013115,0.113888891307548,0.840277838909853,-0.0647517144680023,-0.23273965716362,-0.0192422550171614
0,0.497222224480098,0.115277783190802,0.861111119910949,0.0253509078174829,-0.45998153090477,-0.0247400421649218
0,0.512500035195893,0.140277788465518,0.854166660494678,0.0470366254448891,-0.397673279047012,-0.0571159012615681
0,0.522222229754814,0.141666668192807,0.858333336144441,0.0109955742955208,-0.233655959367752,-0.135001212358475
0,0.548611126912784,0.150000007336368,0.840277838909853,-0.08460483700037,-0.193338856101036,-0.195171445608139
0,0.544444451263022,0.150000007336368,0.838888947026599,-0.204028993844986,-0.27458393573761,-0.15332718193531
0,0.543055559379768,0.163888889701015,0.819444460661041,-0.382096201181412,-0.199447497725487,-0.167987942695618
0,0.512500035195893,0.175000000455119,0.794444455386325,-0.467922776937485,0.0326812900602817,-0.253814518451691
0,0.283333336385615,0.205555561106887,0.77638890952788,-0.24862214922905,-0.357356160879135,0.415999233722687
0,0.344444457689151,0.234722242031366,0.75000001236991,-0.344527989625931,-0.348193198442459,0.32192599773407
0,0.538888932353864,0.169444445078067,0.840277838909853,-0.104152522981167,0.0293215326964855,0.0412334054708481
0,0.594444461812454,0.120833338567854,0.908333346693873,-0.148440256714821,-0.244956970214844,0.0433714315295219
0,0.6125000076709,0.113888891307548,0.922222265526414,-0.186008468270302,-0.235793977975845,0.0332921557128429
0,0.576388915954009,0.113888891307548,0.87500003874349,-0.18020524084568,0.152105450630188,-0.029626963660121
0,0.484722246154669,0.134722233088466,0.848611190209378,-0.122783914208412,0.176845490932465,0.00122173049021512
0,0.548611126912784,0.0402777795226179,0.780555585177642,-0.145996794104576,0.0897971913218498,-0.0745255574584007
0,0.600000029345471,0.00277777787846293,0.800000022919342,-0.167377084493637,-0.109955742955208,-0.0861319974064827
0,0.581944483487025,0.0152777788063885,0.816666676894533,-0.159130394458771,-0.104152522981167,-0.0919352173805237
0,0.534722256704101,0.055555559848502,0.848611190209378,-0.102930791676045,0.0131336031481624,-0.070249505341053
0,0.511111143312639,0.0736111117849297,0.841666730793107,-0.102625362575054,0.0665843114256859,-0.0879645943641663
0,0.536111148587356,0.0486111125881959,0.831944487610329,-0.104152522981167,0.109955742955208,-0.122783914208412
0,0.550000018796039,0.0500000014324589,0.837500055143345,-0.128892570734024,0.0739146918058395,-0.173791155219078
0,0.555555586329055,0.0458333348996699,0.831944487610329,-0.149661988019943,-0.108734011650086,-0.163101017475128
0,0.52083333787156,0.10972222781375,0.855555552377932,-0.0659734457731247,-0.162795588374138,-0.113010071218014
0,0.483333354271415,0.111111119697004,0.863888903677457,0.0794124826788902,-0.360715925693512,-0.0384845100343227
0,0.548611126912784,0.0819444448505077,0.827777811960566,0.127670839428902,-0.403781920671463,-0.150578290224075
0,0.580555591603771,0.0777777813567098,0.819444460661041,0.0708603709936142,-0.255341678857803,-0.207083314657211
0,0.602777813111979,0.0513888902767219,0.790277828360421,-0.103541657328606,-0.0901026204228401,-0.25411993265152
0,0.630555602153203,0.00972222266958873,0.762500039319197,-0.303600013256073,0.0971275717020035,-0.377514719963074
0,0.620833358970425,0.0402777795226179,0.808333374218867,-0.330172657966614,0.175623759627342,-0.482583552598953
0,0.6125000076709,0.0666666706026059,0.877777822509998,-0.241902634501457,0.162184715270996,-0.541837453842163
0,0.577777807837263,0.0680555564078778,0.890277849459286,-0.164322748780251,0.119729585945606,-0.54428094625473
0,0.575000024070755,0.0583333375370279,0.877777822509998,-0.119729585945606,-0.184786736965179,-0.518930017948151
0,0.575000024070755,0.0583333375370279,0.877777822509998,-0.154854342341423,-0.302378296852112,-0.588568687438965
0,0.6125000076709,0.0222222230277034,0.791666671619817,-0.258090555667877,-0.22693644464016,-0.712879717350006
0,0.338888890156135,0.0222222230277034,0.736111142161226,-0.462119549512863,0.180816113948822,-0.959669291973114
0,0.318055560531181,0.0458333348996699,0.661111126337078,-0.749226212501526,-0.831082165241241,-0.237321153283119
0,0.415277797863537,0.00416666691266287,0.544444451263022,-1.63620257377624,-0.611476123332977,-0.0824668109416962
0,0.493055597454194,-0.0430555572111439,0.650000039894903,-2.16246294975281,-0.510072469711304,-0.076052725315094
0,0.506944467662877,-0.0583333375370279,0.723611115211939,-1.92269837856293,-0.556803643703461,-0.169820532202721
0,0.506944467662877,-0.0583333375370279,0.723611115211939,-1.26449108123779,-0.332310706377029,-0.426383942365646
0,0.508333359546131,-0.0388888906783549,0.86805557932722,-1.13620936870575,-0.344833433628082,-0.419969856739044
0,0.531944472937593,-0.0250000007162294,0.870833363093728,-0.984409332275391,-0.269391566514969,-0.471587955951691
0,0.601388921228725,-0.055555559848502,0.866666687443965,-0.590095818042755,-0.465784758329391,-0.427605658769607
0,0.637500012945616,-0.0597222233422998,0.808333374218867,-0.466701060533524,-0.723569869995117,-0.433408886194229
0,0.637500012945616,-0.0597222233422998,0.808333374218867,-1.3946053981781,-0.743422985076904,-0.158824965357781
0,0.581944483487025,-0.055555559848502,0.686111131611794,-1.5778648853302,-1.01189827919006,-0.0684169083833694
0,0.688888915378302,-0.104166672436698,0.791666671619817,-1.4456125497818,-0.748004496097565,-0.222965821623802
0,0.75000001236991,-0.130555557438704,0.836111163260091,-1.20157194137573,-0.558941721916199,-0.355523586273193
0,0.75000001236991,-0.130555557438704,0.836111163260091,-1.21592724323273,-0.484416127204895,-0.353385537862778
0,0.650000039894903,-0.161111118090472,0.861111119910949,-0.994488596916199,-0.456316351890564,-0.203723564743996
0,0.838888947026599,-0.18333333959868,0.786111152710659,-0.573602437973022,-0.164933621883392,-0.320704251527786
0,0.92083337364316,-0.25555557165632,0.743055601577497,-0.588874101638794,0.385150551795959,-0.914159834384918
0,0.890277849459286,-0.269444466176932,0.670833369519857,-0.763276100158691,0.518930017948151,-0.804204106330872
0,0.872222254976982,-0.331944455051793,0.700000001820477,-0.909578323364258,0.800233483314514,-0.684169054031372
0,0.812500049868629,-0.327777779402031,0.656944450687316,-1.19821214675903,0.434936046600342,-0.306654363870621
0,0.743055601577497,-0.226388890731841,0.576388915954009,-1.08550751209259,0.886365473270416,0.0894917547702789
0,0.804166698569104,-0.254166679773066,0.484722246154669,-1.19485247135162,0.0855211317539215,0.450818538665771
0,0.883333390043015,-0.250000004123303,0.462500024646461,-1.31274938583374,-0.859487414360046,0.770301103591919
0,0.905555562927365,-0.284722228268869,0.447222262554524,-1.58733332157135,-1.78250479698181,1.26479649543762
0,0.827777811960566,-0.325000019947452,0.443055586904762,-2.07144403457642,-2.68383646011352,1.57817041873932
0,0.815277785011279,-0.365277787314105,0.462500024646461,-2.67956042289734,-4.04789876937866,1.77609074115753
0,0.747222228603401,-0.459722240879953,0.449999997697174,-3.26079869270325,-4.98007869720459,1.01586890220642
0,0.747222228603401,-0.459722240879953,0.449999997697174,-3.45658087730408,-4.38479089736938,0.295353353023529
0,0.702777785586986,-0.481944462388161,0.331944455051793,-3.50025796890259,-4.00116729736328,-0.497549742460251
0,0.726388898978447,-0.522222229754814,0.350000000910239,-3.52102732658386,-3.92694711685181,-0.645990014076233
0,0.726388898978447,-0.522222229754814,0.350000000910239,-2.71163082122803,-1.80205249786377,0.346360594034195
0,0.777777801411134,-0.555555586329055,0.347222241455659,-1.38635861873627,0.55527651309967,0.962112784385681
0,0.777777801411134,-0.555555586329055,0.347222241455659,-0.759000062942505,-0.23243422806263,0.715628623962402
0,0.744444493460751,-0.455555565230191,0.177777784221628,-0.316428184509277,-1.48165369033813,-0.03176499158144
0,0.733333358394718,-0.375000006184955,0.14722222356986,-0.0928515195846558,-2.03754091262817,-0.826195240020752
0,0.718055596302781,-0.262500006760661,0.17361112072783,-0.347582310438156,-2.22965812683106,-1.08398032188416
0,0.748611120486655,-0.236111109602691,0.215277779977737,-1.00090265274048,-1.73210835456848,-1.17469382286072
0,0.82916670384382,-0.179166676104882,0.233333350148112,-1.65361225605011,-0.0128281703218818,-0.770606517791748
0,1.00555558402623,-0.169444445078067,0.20138889761309,-1.60535383224487,0.819781184196472,-0.340862810611725
0,1.18750003174166,-0.229166674498349,0.144444451959316,-0.979827880859375,0.130114302039146,-0.421191573143005
0,1.18750003174166,-0.404166687109433,0.140277788465518,-0.0855211317539215,-0.85673850774765,-0.71318519115448
0,1.17638889667562,-0.441666695021508,0.134722233088466,0.361326783895493,-0.783740103244781,-0.692110300064087
0,1.19861116680769,-0.411111122213775,0.0763888894734557,-0.102319926023483,-0.482888966798782,-0.423024177551269
0,1.19583338304118,-0.384722225055805,0.0763888894734557,-0.701273322105408,-0.134084925055504,-0.434936046600342
0,1.08611111875954,-0.359722244093018,-0.0750000036681839,-0.920268476009369,-0.0397062413394451,-0.632245540618896
0,0.962500032893068,-0.394444468238583,-0.055555559848502,-0.631329238414764,0.207999616861343,-0.694859206676483
0,0.947222222177272,-0.449999997697174,-0.055555559848502,-0.310014098882675,0.431881725788117,-0.529314756393433
0,1.08472222687628,-0.486111138037923,-0.134722233088466,-0.593761026859283,-0.109344877302647,-1.37963914871216
0,1.31250000949138,-0.42916666807222,-0.113888891307548,-1.33412969112396,-0.81428337097168,-0.60750550031662
0,1.08472222687628,-0.329166671285285,-0.029166668768514,-0.389732033014297,0.13744467496872,-0.742506682872772
0,0.911111130460381,-0.420833365396554,-0.1194444466846,-0.139888137578964,-0.644462823867798,-1.0723739862442
0,0.906944454810619,-0.325000019947452,-0.12777778582816,-0.508545339107513,-0.340862810611725,-1.16369831562042
0,0.92083337364316,-0.252777787889811,-0.122222230451108,-0.377209275960922,-0.0348193198442459,-0.23823744058609
0,1.21666666404227,-0.238888893369199,-0.362500003547597,1.01098203659058,0.585208892822266,0.848797261714935
0,1.0125000434425,-0.026388891079988,-0.223611131277262,0.0595593601465225,0.956004083156586,0.704022169113159
0,1.40277778740746,-0.258333331110899,-0.25555557165632,-0.380874484777451,-0.150883719325066,0.893695831298828
0,1.16388896697405,-0.284722228268869,-0.134722233088466,-0.159741267561913,0.948979139328003,0.0656680166721344
0,1.16388896697405,-0.284722228268869,-0.134722233088466,0.231517925858498,0.760832667350769,-0.0726929605007172
0,1.16388896697405,-0.284722228268869,-0.134722233088466,0.106595985591412,0.318871647119522,-0.0690277740359306
0,1.16388896697405,-0.284722228268869,-0.134722233088466,0.081855945289135,0.162490159273148,-0.459676086902618
0,1.07361118905796,-0.279166685047782,-0.100000002864918,-0.112399205565453,-0.103541657328606,-0.699440717697144
0,1.00000001649321,-0.169444445078067,-0.0708333340964038,-0.565050363540649,0.279470860958099,-1.90131807327271
0,0.565277780887976,0.170833336961321,-0.0652777787193518,-0.0791070461273193,-1.08581292629242,-4.61691951751709
0,0.61944446708717,0.233333350148112,-0.104166672436698,0.376598417758942,-0.703105926513672,-5.11752367019653
0,0.926388941176177,-0.030555557612777,-0.0138888899621255,-0.126143679022789,0.177150920033455,-5.26443672180176
0,1.26249999894194,-0.388888900705567,-0.0819444448505077,0.0348193198442459,-0.848491847515106,-2.36465930938721
0,1.57500008918783,-0.438888911254999,-0.0402777795226179,0.268169850111008,0.292909890413284,1.52197074890137
0,1.54027779210647,-0.101388894748172,-0.141666668192807,0.660345315933228,0.112093769013882,2.93123698234558
0,1.66388897522066,0.0888888921108138,-0.301388906555989,0.249538451433182,0.338113903999329,3.89976382255554
0,1.6208334240875,0.0250000007162294,-0.322222236180943,0.645684540271759,-0.450207680463791,3.54301834106445
0,1.22361112345855,-0.113888891307548,-0.275000009398019,0.826806128025055,-0.947757422924042,2.18048357963562
0,0.718055596302781,-0.222222239394008,-0.20138889761309,0.359188765287399,-1.06809782981873,0.959363877773285
0,0.608333332021137,-0.244444460902216,-0.14722222356986,-0.484110713005066,-0.800233483314514,0.25870144367218
0,0.440277803138253,-0.231944458264858,-0.111111119697004,-1.11055302619934,-0.394924372434616,-1.03022420406342
0,0.555555586329055,-0.0972222251763917,-0.12777778582816,-1.47096347808838,-0.435852348804474,-2.2189679145813
0,0.666666693870094,-0.0750000036681839,-0.130555557438704,-1.84634017944336,-0.653625786304474,-2.83899617195129
0,0.818055568777787,-0.055555559848502,-0.327777779402031,-0.0412334054708481,-0.74006325006485,-1.7379115819931
0,0.969444492309338,-0.0569444456537738,-0.24583335278547,0.626442313194275,0.0736092627048492,-0.120951317250729
0,1.09444447005906,-0.161111118090472,-0.0819444448505077,0.517097413539886,1.36589467525482,1.44713973999023
0,1.15694450755778,-0.252777787889811,-0.12777778582816,1.03816545009613,2.24767875671387,2.28677415847778
0,1.07222229717471,-0.195833342236038,-0.305555557893823,0.602007687091827,0.423940479755402,1.85641944408417
0,0.947222222177272,0.200000005729836,-0.298611122789481,-0.12705996632576,-1.13651478290558,0.332310706377029
0,1.13194445365921,0.122222230451108,-0.293055555256465,0.1795943826437,-0.359494209289551,0.291688144207001
0,1.10416671324184,0.125000002061652,-0.275000009398019,-0.171042263507843,-0.215024560689926,0.478612929582596
0,1.11666674019113,0.00694444498106275,-0.2194444556275,-0.00397062394768,0.0403171069920063,0.536034226417542
0,0.941666654644256,-0.0541666679652478,-0.140277788465518,-0.0907134860754013,-0.178983509540558,-0.00244346098043024
0,0.798611131036088,-0.213888888094483,-0.138888896582264,-0.19028452038765,-0.526260435581207,-1.0989465713501
0,0.927777833059431,-0.29166668768514,-0.193055558469529,-0.114231802523136,-0.948673725128174,-1.3912456035614
0,0.959722249126559,-0.241666677135707,-0.312500017310094,0.0332921557128429,-1.11543989181519,-1.39765965938568
0,1.13472223742571,-0.143055560076062,-0.383333357484479,-0.064446285367012,-1.07023596763611,-1.32924282550812
0,1.09166668629255,-0.108333335930496,-0.375000006184955,0.133779495954514,-0.289855569601059,-1.10139000415802
0,1.09166668629255,-0.108333335930496,-0.375000006184955,-0.0705549344420433,0.546113550662994,-0.567493796348572
0,0.98888888142718,0.00138888893923146,-0.340277782039389,-0.201280102133751,0.916908740997314,-0.233655959367752
0,0.98888888142718,0.00138888893923146,-0.340277782039389,-0.309708684682846,1.22447943687439,0.0861319974064827
0,1.00694447590948,0.0194444453391775,-0.320833344297689,-0.393091797828674,1.16156029701233,0.339946508407593
0,1.05000002704265,-0.0250000007162294,-0.233333350148112,-0.411417752504349,1.11605083942413,0.328950941562653
0,1.06805562152495,-0.0625000010308258,-0.154166670830166,-0.207083314657211,1.13071155548096,0.363464832305908
0,1.06805562152495,-0.0625000010308258,-0.154166670830166,-0.205556154251099,0.4758640229702,0.301767438650131
0,1.06666672964169,-0.0486111125881959,-0.115277783190802,0.00641408516094089,0.281303435564041,0.299629390239716
0,0.94305554652751,-0.318055560531181,-0.0250000007162294,0.271224170923233,0.287412106990814,-0.228463605046272
0,0.969444492309338,-0.0750000036681839,-0.105555564319952,0.466090172529221,0.337197601795196,-0.184175878763199
0,0.980555627375371,-0.163888889701015,-0.159722226207217,0.53969943523407,0.616668462753296,-0.313373863697052
0,1.00277780025972,0.0638888929140799,-0.0777777813567098,0.366824567317963,0.155770644545555,-0.259312301874161
0,1.07916665934326,0.0513888902767219,-0.154166670830166,0.0901026204228401,-0.212886542081833,-0.129503428936005
0,0.956944465360051,-0.0194444453391775,0.0388888906783549,0.11087204515934,-1.56839656829834,-0.0836885422468185
0,1.01527782720901,-0.0722222259796579,-0.03194444645704,0.325591176748276,-1.92147660255432,-0.0613919571042061
0,1.00972225967599,-0.0722222259796579,-0.141666668192807,0.250149309635162,-1.23180973529816,-0.0766635909676552
0,1.02222228662528,0.0861111144222878,-0.352777784676747,-0.0348193198442459,-0.843604922294617,0.208915919065475
0,0.956944465360051,0.0708333340964038,-0.343055565805897,-0.235793977975845,0.638354182243347,0.128892570734024
0,1.00555558402623,-0.0888888921108138,-0.288888903918631,-0.131336033344269,0.86162543296814,0.117286130785942
0,0.973611167959101,-0.0513888902767219,-0.206944452990142,-0.141720741987228,0.602923989295959,0.160046696662903
0,1.01805561097552,-0.0666666706026059,-0.233333350148112,-0.252287358045578,0.995099484920502,-0.241291776299477
0,0.951388897827035,-0.0194444453391775,-0.133333341205212,-0.146302223205566,0.760832667350769,-0.0635299831628799
0,0.968055600426084,-0.0208333341834404,-0.108333335930496,-0.120035022497177,0.664010524749756,-0.0940732508897781
0,0.940277860008718,-0.0583333375370279,-0.141666668192807,-0.292909890413284,0.818253993988037,-0.527482151985168
0,1.11944452395763,-0.0111111115138517,-0.262500006760661,-0.437074095010758,0.966388821601868,-0.442571878433227
0,1.02500007039179,-0.00972222266958873,-0.138888896582264,-0.427605658769607,0.831998467445374,-0.03176499158144
0,0.909722238577127,-0.206944452990142,0.00972222266958873,-0.03176499158144,0.583376288414001,0.226325571537018
0,0.984722303025134,-0.126388893944906,-0.0680555564078778,-0.00519235478714108,0.570548117160797,0.345444291830063
0,1.12777777800944,-0.00416666691266287,-0.122222230451108,-0.0409279726445675,0.298713117837906,0.226020142436027
0,1.13750002119222,0.0597222233422998,-0.0986111170596459,-0.123394779860973,0.238542884588242,0.112704634666443
0,1.07916665934326,-0.0416666683668809,-0.0513888902767219,-0.0610865242779255,0.170431405305862,0.04764748737216
0,1.01527782720901,-0.0680555564078778,-0.0250000007162294,0.170125976204872,0.037568211555481,-0.0519235469400883
0,1.01527782720901,-0.0708333340964038,-0.029166668768514,0.288022965192795,-0.187230199575424,-0.0351247526705265
0,1.00277780025972,-0.0583333375370279,-0.0611111152255539,0.34330627322197,-0.171347707509995,-0.0623082555830479
0,1.00416669214298,-0.0513888902767219,-0.0736111117849297,0.334448724985123,-0.0931569486856461,-0.0772744566202164
0,0.962500032893068,-0.029166668768514,-0.10972222781375,0.199447497725487,-0.130114302039146,-0.0952949747443199
0,0.998611124609959,0.00138888893923146,-0.104166672436698,0.102319926023483,0.0253509078174829,0.128281697630882
0,1.06250005399193,0.00277777787846293,-0.0847222225390337,0.217773467302322,0.170125976204872,0.118813291192055
0,1.05972227022542,-0.0361111129898289,-0.0430555572111439,0.0855211317539215,-0.120645888149738,-0.00580321997404099
0,1.06250005399193,-0.00277777787846293,-0.151388899219622,0.0311541277915239,-0.0109955742955208,-0.0867428630590439
0,0.98888888142718,-0.0125000003581147,-0.0972222251763917,-0.147829383611679,0.0791070461273193,-0.0445931628346443
0,0.981944519258625,-0.0513888902767219,-0.0819444448505077,-0.214413702487946,0.145996794104576,0.0287106670439243
0,0.95000000594378,-0.0125000003581147,-0.0583333375370279,-0.125838235020638,0.110261179506779,0.142942473292351
0,0.95000000594378,-0.0125000003581147,-0.0583333375370279,-0.230907067656517,0.00366519158706069,0.158214092254639
0,1.04166667574312,-0.0208333341834404,-0.0652777787193518,-0.306043475866318,-0.133779495954514,0.120035022497177
0,1.0361111082101,-0.0402777795226179,-0.0750000036681839,-0.121256753802299,-0.0699440687894821,-0.0323758572340012
0,1.0361111082101,-0.0402777795226179,-0.0750000036681839,-0.0384845100343227,-0.0571159012615681,-0.107817716896534
0,1.05694448645892,-0.0541666679652478,-0.104166672436698,0.0546724386513233,0.134084925055504,-0.0733038261532784
0,1.07083340529146,-0.0444444460554069,-0.101388894748172,0.111788339912891,0.302683740854263,-0.00397062394768
0,1.07083340529146,-0.0444444460554069,-0.101388894748172,-0.00488692196086049,0.395535260438919,0.0739146918058395
0,1.07500008094122,-0.0375000018340919,-0.105555564319952,-0.04764748737216,0.563523173332214,0.0855211317539215
0,1.01111115155925,-0.0152777788063885,-0.0694444482911319,-0.0870482996106148,0.578489363193512,0.240986332297325
0,1.01111115155925,-0.0152777788063885,-0.0694444482911319,-0.0253509078174829,0.226020142436027,1.20279371738434
0,1.13055556177595,-0.0250000007162294,-0.0513888902767219,0.0714712366461754,0.0222965814173222,1.25716066360474
0,1.00555558402623,-0.0750000036681839,-0.0458333348996699,0.0824668109416962,-0.158214092254639,0.941343367099762
0,1.00555558402623,-0.0750000036681839,-0.0458333348996699,0.116675265133381,-0.0757472887635231,0.4914411008358
0,0.886111173809523,-0.100000002864918,-0.0486111125881959,0.0852157026529312,-0.0290160998702049,0.399505883455276
0,0.884722281926269,-0.0875000002275597,-0.055555559848502,0.0549778714776039,-0.0326812900602817,0.400727599859238
0,0.884722281926269,-0.0875000002275597,-0.055555559848502,0.240986332297325,0.0189368221908808,0.383623361587524
0,0.919444481759906,-0.144444451959316,-0.00694444498106275,0.258090555667877,-0.129503428936005,0.574518740177155
0,0.951388897827035,-0.14722222356986,-0.027777779924251,0.166155353188515,-0.273667633533478,0.712879717350006
0,0.93750007624221,-0.184722231481934,-0.0180555564949145,0.395840674638748,-0.350942075252533,1.45202672481537
0,0.905555562927365,-0.1194444466846,-0.0875000002275597,-0.0977384373545647,-0.581849157810211,1.62306892871857
0,1.10694449700835,-0.112499999424294,-0.152777778946911,-0.127670839428902,-0.423024177551269,0.99418318271637
0,1.147222264375,-0.220833347510754,-0.108333335930496,-0.0424551330506802,-0.356745302677154,0.734260022640228
0,1.16388896697405,-0.269444466176932,-0.154166670830166,-0.0620028227567673,-0.115148097276688,0.363159388303757
0,1.16388896697405,-0.33750002258481,-0.166666673467524,-0.0616973899304867,0.27000242471695,0.222660377621651
0,1.04861113515939,-0.284722228268869,-0.13750000469901,-0.220522359013557,0.318871647119522,0.163101017475128
0,1.0361111082101,-0.295833339022973,-0.0986111170596459,0.0149661982432008,-0.05283984541893,0.295658767223358
0,0.979166735492117,-0.334722238818301,-0.0777777813567098,0.253814518451691,0.143858760595322,0.151494577527046
0,0.887500065692777,-0.258333331110899,0.0166666676506515,0.263588339090347,-0.336281329393387,0.393397212028503
0,0.977777843608863,-0.262500006760661,-0.0847222225390337,-0.100181899964809,-0.193644285202026,0.301767438650131
0,1.18055557232538,-0.306944449777077,-0.198611113846581,-0.331394404172897,0.229379892349243,0.0400116741657257
0,1.05555559457566,-0.265277790527169,-0.122222230451108,-0.473115146160126,0.193033412098885,0.0348193198442459
0,0.984722303025134,-0.286111120152123,-0.0625000010308258,-0.272445887327194,0.128587126731873,0.0152716310694814
0,0.98888888142718,-0.311111125426839,-0.0583333375370279,-0.102625362575054,0.187535628676414,-0.0534507073462009
0,0.972222276075846,-0.308333341660331,-0.0486111125881959,0.0791070461273193,-0.0537561401724815,0.0335975885391235
0,1.00277780025972,-0.286111120152123,-0.0819444448505077,-0.00977384392172098,-0.176845490932465,0.0167987942695618
0,1.07916665934326,-0.359722244093018,-0.10972222781375,-0.0891863256692886,-0.0418442711234093,0.00733038317412138
0,0.973611167959101,-0.297222230906227,-0.101388894748172,-0.0161879286170006,-0.0656680166721344,0.0027488935738802
0,0.925000049292922,-0.263888898643915,-0.0375000018340919,0.0867428630590439,-0.461814135313034,0.1750128865242
0,0.926388941176177,-0.300000014672736,-0.0611111152255539,0.336892187595367,-0.208305045962334,0.00427605677396059
0,0.936111184358955,-0.318055560531181,-0.0694444482911319,0.415693789720535,0.0769690200686455,-0.081855945289135
0,0.969444492309338,-0.298611122789481,-0.14722222356986,0.205556154251099,0.572686195373535,-0.439822971820831
0,1.01388893532575,-0.287500012035377,-0.176388892338373,0.0766635909676552,0.919046759605408,-0.609948933124542
0,0.863888903677457,-0.273611117514765,-0.0722222259796579,0.128892570734024,0.840550601482391,-0.0830776765942574
0,0.940277860008718,-0.222222239394008,-0.00138888893923146,0.0555887371301651,0.621249973773956,0.354607284069061
0,0.915277806110144,-0.240277785252453,-0.030555557612777,0.0204639863222837,0.609643518924713,0.326507478952408
0,1.06250005399193,-0.334722238818301,-0.030555557612777,-0.0430659987032413,0.729373097419739,0.442877292633057
0,1.13750002119222,-0.281944444502361,0.0375000018340919,0.10567969083786,0.780074894428253,0.200363799929619
0,0.983333411141879,-0.272222225631511,0.0569444456537738,0.247400417923927,0.529925584793091,0.298102229833603
0,0.98888888142718,-0.272222225631511,0.0569444456537738,0.0577267669141293,0.39125919342041,0.11636982858181
0,0.870833363093728,-0.283333336385615,0.0847222225390337,-0.0363464802503586,0.297796815633774,0.0806342139840126
0,0.962500032893068,-0.345833349572405,0.0694444482911319,0.000305432622553781,-0.44959682226181,0.0503963828086853
0,1.03888889197661,-0.363888895430851,0.0513888902767219,0.076052725315094,-0.589179515838623,-0.0928515195846558
0,1.03888889197661,-0.363888895430851,0.0513888902767219,0.110566608607769,-0.548862397670746,-0.0913243517279625
0,1.06250005399193,-0.262500006760661,0.113888891307548,-0.00397062394768,-0.21135938167572,-0.294437050819397
0,1.09305557817581,-0.327777779402031,-0.0250000007162294,-0.064446285367012,0.107206851243973,-0.272445887327194
0,1.09305557817581,-0.327777779402031,-0.0250000007162294,0.124311074614525,0.361632227897644,-0.326507478952408
0,1.02916674604155,-0.313888909193348,0.030555557612777,0.321620553731918,0.266337245702743,-0.237015709280968
0,0.973611167959101,-0.259722222994153,-0.0250000007162294,0.360715925693512,0.144469633698463,-0.142637029290199
0,0.973611167959101,-0.259722222994153,-0.0250000007162294,0.153021737933159,0.105068825185299,-0.145080491900444
0,1.03194452980806,-0.241666677135707,-0.0125000003581147,-0.0308486949652433,0.117286130785942,-0.204639852046967
0,0.955555573476797,-0.241666677135707,0.0402777795226179,-0.0690277740359306,-0.0433714315295219,-0.212275668978691
0,0.979166735492117,-0.25555557165632,0.0375000018340919,-0.0583376325666905,-0.01191187184304,-0.253203630447388
0,1.01527782720901,-0.25555557165632,-0.00138888893923146,-0.128892570734024,-0.145691365003586,-0.256257981061935
0,0.944444438410764,-0.233333350148112,0.0222222230277034,-0.161879286170006,-0.529925584793091,-0.147523954510689
0,0.972222276075846,-0.240277785252453,0.0652777787193518,-0.139277279376984,-0.418748140335083,-0.126143679022789
0,1.04166667574312,-0.254166679773066,0.00277777787846293,-0.0552833043038845,-0.284052342176437,-0.129197999835014
0,1.02222228662528,-0.25555557165632,-0.0208333341834404,-0.0668897479772568,-0.0815505087375641,-0.146913096308708
0,1.04166667574312,-0.243055569018962,-0.0458333348996699,-0.131641462445259,-0.0467311926186085,-0.0943786799907684
0,1.00555558402623,-0.248611112240049,-0.0180555564949145,-0.0635299831628799,-0.340557366609573,-0.00733038317412138
0,0.948611114060526,-0.24583335278547,0.00277777787846293,-0.058643065392971,-0.276721954345703,-0.0824668109416962
0,1.01944450285877,-0.251388896006557,-0.0180555564949145,-0.0681114718317986,-0.260228604078293,-0.167682513594627
0,1.00833336779274,-0.24583335278547,-0.030555557612777,-0.0668897479772568,0.0290160998702049,-0.170431405305862
0,1.03472221632685,-0.248611112240049,-0.0472222237439329,0.0177150927484035,0.0103847095742822,-0.189062789082527
0,1.00277780025972,-0.251388896006557,-0.0222222230277034,0.0925460830330849,-0.182343274354935,-0.187230199575424
0,1.02361117850853,-0.233333350148112,-0.0222222230277034,0.0946841165423393,-0.145385921001434,-0.098960168659687
0,1.0125000434425,-0.250000004123303,-0.0375000018340919,0.0830776765942574,0.214413702487946,-0.0177150927484035
0,1.01527782720901,-0.252777787889811,-0.0444444460554069,0.125532805919647,0.251371055841446,-0.000305432622553781
0,1.00555558402623,-0.236111109602691,-0.0180555564949145,0.0763581544160843,0.000610865245107561,-0.0342084541916847
0,1.01805561097552,-0.208333344873396,-0.0236111118719664,0.0635299831628799,-0.027488935738802,-0.0580321997404099
0,1.01527782720901,-0.226388890731841,-0.0222222230277034,0.138971850275993,0.136833816766739,-0.0427605658769607
0,1.01944450285877,-0.19166667874224,-0.0444444460554069,0.106595985591412,0.186924770474434,-0.0213802829384804
0,1.02361117850853,-0.175000000455119,-0.0388888906783549,-0.0552833043038845,0.102930791676045,-0.0308486949652433
0,0.993055557076942,-0.202777789496344,-0.00555555575692586,-0.129808858036995,-0.181121543049812,-0.0442877300083637
0,0.956944465360051,-0.186111123365188,0.0152777788063885,-0.0665843114256859,-0.303600013256073,-0.087659165263176
0,1.04583335139288,-0.177777784221628,-0.0458333348996699,-0.0842994004487991,-0.15851953625679,-0.107512280344963
0,1.05277781080915,-0.202777789496344,-0.0652777787193518,-0.135612085461616,-0.0965167060494423,-0.0931569486856461
0,1.02777785415829,-0.194444450352783,-0.0597222233422998,-0.135001212358475,-0.0210748501121998,-0.0931569486856461
0,1.01944450285877,-0.204166669223633,-0.0361111129898289,-0.0824668109416962,-0.192117124795914,-0.0513126812875271
0,0.969444492309338,-0.224999998848587,-0.00972222266958873,0.0390953756868839,-0.235488548874855,-0.058643065392971
0,1.04027778385987,-0.20972223675665,-0.0541666679652478,0.0335975885391235,-0.078801617026329,-0.0397062413394451
0,1.02500007039179,-0.20138889761309,-0.101388894748172,-0.0204639863222837,0.0271835029125214,-0.0830776765942574
0,1.00972225967599,-0.197222234119292,-0.0541666679652478,-0.0171042270958424,0.164628177881241,-0.136833816766739
0,0.979166735492117,-0.218055563744246,-0.0583333375370279,0.017409659922123,0.225409269332886,-0.155770644545555
0,1.0125000434425,-0.222222239394008,-0.0583333375370279,0.0879645943641663,0.289550125598908,-0.136833816766739
0,1.0125000434425,-0.222222239394008,-0.0583333375370279,0.134695783257484,0.565050363540649,-0.168293371796608
0,1.0125000434425,-0.222222239394008,-0.0583333375370279,0.277332812547684,0.663705110549927,-0.090408056974411
0,1.09444447005906,-0.212499996211229,-0.0486111125881959,0.55527651309967,1.39368903636932,0.238848313689232
0,1.00555558402623,-0.198611113846581,0.0347222241455659,0.120035022497177,0.888808906078339,0.124921940267086
0,0.96666670854283,-0.205555561106887,0.029166668768514,-0.267253547906876,0.467617332935333,-0.0360410511493683
0,0.990277773310434,-0.231944458264858,0.0458333348996699,-0.414166629314423,0.477696627378464,-0.00763581553474069
0,0.959722249126559,-0.259722222994153,0.0777777813567098,-0.456927210092545,0.430965423583984,0.0403171069920063
0,0.959722249126559,-0.259722222994153,0.0777777813567098,-0.418748140335083,-0.0113010071218014,0.231823354959488
0,1.01111115155925,-0.24583335278547,0.0958333393711199,-0.263588339090347,-0.186313897371292,0.183870434761047
0,1.01527782720901,-0.194444450352783,0.0819444448505077,-0.224187538027763,-0.410501450300217,0.200974673032761
0,0.983333411141879,-0.20972223675665,0.0666666706026059,-0.188451930880547,-0.506407260894775,0.157297804951668
0,0.980555627375371,-0.230555566381603,0.0513888902767219,-0.139888137578964,-0.573297023773193,0.131030589342117
0,1.02083339474202,-0.244444460902216,0.029166668768514,-0.000916297896765172,-0.385150551795959,0.0613919571042061
0,0.962500032893068,-0.226388890731841,0.029166668768514,0.13225232064724,-0.255647093057633,0.01191187184304
0,0.962500032893068,-0.226388890731841,0.029166668768514,0.442571878433227,0.298102229833603,0.0280998013913631
0,1.01527782720901,-0.220833347510754,0.00555555575692586,0.126449108123779,-0.0494800843298435,0.0424551330506802
0,1.02638896227504,-0.218055563744246,0.0180555564949145,-0.0164933614432812,-0.156686931848526,0.0455094613134861
0,1.02638896227504,-0.218055563744246,0.0180555564949145,0.0439822971820831,0.00580321997404099,0.0769690200686455
0,1.00972225967599,-0.213888888094483,0.0180555564949145,0.0113010071218014,-0.0128281703218818,0.0589484944939613
0,1.01388893532575,-0.220833347510754,0.0180555564949145,0.0100792767480016,0.0678060427308083,0.0271835029125214
0,1.01388893532575,-0.220833347510754,0.0180555564949145,0.0464257597923279,0.283441483974457,-0.0027488935738802
0,0.98888888142718,-0.202777789496344,-0.0111111115138517,0.0250454749912024,0.383623361587524,0.0109955742955208
0,1.00416669214298,-0.206944452990142,0.0208333341834404,-0.00244346098043024,0.293826192617416,0.00244346098043024
0,1.01388893532575,-0.230555566381603,0.033333335301303,-0.272445887327194,0.493579119443893,-0.070249505341053
5,0.958333357243305,-0.208333344873396,0.111111119697004,-0.00152716308366507,0.0616973899304867,-0.0412334054708481
5,1.04861113515939,-0.238888893369199,-0.0111111115138517,0.0503963828086853,0.439822971820831,-0.0552833043038845
5,1.00416669214298,-0.215277779977737,0.0416666683668809,-0.0323758572340012,0.116675265133381,0.02382374368608
5,1.00694447590948,-0.205555561106887,0.0347222241455659,-0.134084925055504,0.0219911485910416,0.0824668109416962
5,0.99583334084345,-0.197222234119292,0.0208333341834404,-0.169820532202721,0.129503428936005,0.0394008085131645
5,1.00277780025972,-0.241666677135707,0.00694444498106275,-0.0488692186772823,0.199752941727638,-0.0021380283869803
5,1.01527782720901,-0.269444466176932,0.0597222233422998,-0.0430659987032413,0.142026171088219,-0.0241291765123606
5,0.99583334084345,-0.279166685047782,0.03194444645704,0.0418442711234093,-0.200974673032761,-0.11117747426033
5,1.00277780025972,-0.259722222994153,0.0958333393711199,0.11117747426033,-0.0977384373545647,-0.137139245867729
5,1.02222228662528,-0.229166674498349,0.029166668768514,0.109650313854218,0.220216915011406,0.00366519158706069
5,1.00972225967599,-0.190277786858986,0.033333335301303,-0.0293215326964855,-0.0152716310694814,0.0131336031481624
5,0.991666665193688,-0.202777789496344,0.0500000014324589,-0.0568104684352875,-0.029626963660121,0.0485637858510017
5,0.997222232726705,-0.211111128639904,0.0416666683668809,-0.207694187760353,-0.0280998013913631,0.0464257597923279
5,1.00416669214298,-0.233333350148112,0.0541666679652478,-0.16371189057827,-0.157297804951668,-0.102319926023483
5,1.01527782720901,-0.244444460902216,0.052777782159976,-0.127976268529892,-0.110566608607769,-0.136833816766739
5,1.02500007039179,-0.234722242031366,0.033333335301303,-0.164933621883392,-0.0739146918058395,-0.087659165263176
5,0.991666665193688,-0.205555561106887,0.0444444460554069,-0.15332718193531,-0.125838235020638,0.0424551330506802
5,1.02222228662528,-0.220833347510754,0.033333335301303,0.0140499006956816,0.0339030213654041,0.145996794104576
5,1.02638896227504,-0.229166674498349,0.0250000007162294,-0.0045814891345799,-0.00244346098043024,0.114231802523136
5,0.99583334084345,-0.238888893369199,0.0388888906783549,0.0021380283869803,0.0210748501121998,0.00824668072164059
5,0.991666665193688,-0.248611112240049,0.052777782159976,0.0919352173805237,0.0769690200686455,-0.0021380283869803
5,0.954166681593543,-0.218055563744246,0.0666666706026059,0.0992656052112579,-0.0940732508897781,-0.0128281703218818
5,1.04027778385987,-0.20972223675665,0.0375000018340919,0.122783914208412,0.0470366254448891,0.0534507073462009
5,1.05833337834217,-0.215277779977737,0.027777779924251,0.0256563406437635,0.0180205255746841,0.0479529201984406
5,1.00694447590948,-0.156944454596674,0.0138888899621255,-0.0665843114256859,0.058643065392971,0.0427605658769607
5,0.969444492309338,-0.188888894975731,0.0236111118719664,-0.159435823559761,-0.124005645513535,0.0259617734700441
5,1.04027778385987,-0.248611112240049,0.0611111152255539,-0.0522289797663689,-0.215330004692078,-0.0513126812875271
5,1.01666671909226,-0.195833342236038,0.0222222230277034,0.0366519130766392,0.00397062394768,0.113620936870575
5,1.01805561097552,-0.231944458264858,0.0250000007162294,0.0369573459029198,0.223882108926773,-0.0635299831628799
5,0.990277773310434,-0.261111114877407,0.0888888921108138,0.0870482996106148,-0.113620936870575,-0.0983493030071259
5,0.975000059842355,-0.208333344873396,0.055555559848502,0.147523954510689,-0.176234617829323,-0.130114302039146
5,1.00694447590948,-0.18333333959868,-0.055555559848502,-0.218078896403313,0.180816113948822,0.0650571510195732
5,1.0513889189259,-0.187500003092477,-0.00972222266958873,-0.111788339912891,0.28496864438057,-0.00183259579353034
5,1.0513889189259,-0.187500003092477,-0.00972222266958873,-0.111788339912891,0.28496864438057,-0.00183259579353034
5,1.0513889189259,-0.187500003092477,-0.00972222266958873,-0.0708603709936142,-0.310319542884827,-0.20616702735424
5,0.972222276075846,-0.188888894975731,0.0208333341834404,0.0519235469400883,-0.0397062413394451,-0.070249505341053
5,0.972222276075846,-0.188888894975731,0.0208333341834404,-0.17470745742321,-0.0167987942695618,0.0213802829384804
5,1.04027778385987,-0.212499996211229,0.0361111129898289,0.0180205255746841,0.175929188728332,-0.0250454749912024
5,1.02222228662528,-0.218055563744246,0.03194444645704,0.19058994948864,0.175623759627342,-0.0384845100343227
5,1.02222228662528,-0.218055563744246,0.03194444645704,0.131030589342117,0.171958565711975,-0.0360410511493683
5,1.01527782720901,-0.236111109602691,0.0194444453391775,0.148134827613831,0.20616702735424,-0.0647517144680023
5,1.147222264375,-0.305555557893823,0.055555559848502,0.248011291027069,0.178983509540558,-0.131336033344269
5,0.977777843608863,-0.212499996211229,0.0138888899621255,0.0580321997404099,-0.0311541277915239,-0.0455094613134861
5,0.998611124609959,-0.212499996211229,0.03194444645704,-0.0433714315295219,-0.105068825185299,-0.000916297896765172
5,1.00277780025972,-0.166666673467524,0.00972222266958873,-0.159435823559761,-0.0412334054708481,0.000305432622553781
5,1.01805561097552,-0.180555567988136,0.0388888906783549,-0.338113903999329,0.00946841109544039,-0.0265726372599602
5,1.0125000434425,-0.229166674498349,0.0250000007162294,-0.0549778714776039,0.0687223374843597,0.0675006061792374
5,0.991666665193688,-0.212499996211229,0.0513888902767219,-0.0314595587551594,-0.0662788823246956,0.110566608607769
5,1.01805561097552,-0.222222239394008,0.0388888906783549,-0.0580321997404099,0.127976268529892,0.0510072484612465
5,1.04583335139288,-0.220833347510754,0.0458333348996699,0.0360410511493683,0.0852157026529312,-0.0772744566202164
5,1.0125000434425,-0.193055558469529,0.0736111117849297,0.308792382478714,0.192117124795914,-0.120951317250729
5,1.02777785415829,-0.190277786858986,0.115277783190802,0.0888808965682983,-0.0387899428606033,0.0717766657471657
5,0.95000000594378,-0.187500003092477,-0.0166666676506515,-0.0577267669141293,-0.0106901414692402,0.00946841109544039
5,1.05555559457566,-0.226388890731841,0.0166666676506515,-0.0488692186772823,0.0952949747443199,-0.0311541277915239
5,1.0125000434425,-0.223611131277262,0.0513888902767219,-0.0329867228865623,0.0632245540618896,-0.0366519130766392
5,1.03472221632685,-0.2194444556275,0.052777782159976,0.000916297896765172,0.0965167060494423,-0.0210748501121998
5,1.0333333244436,-0.216666671860991,0.0777777813567098,0.0968221426010132,0.0491746515035629,-0.00977384392172098
5,1.01944450285877,-0.226388890731841,0.0791666671619817,0.186008468270302,0.0513126812875271,-0.00152716308366507
5,1.01111115155925,-0.223611131277262,0.0583333375370279,0.0901026204228401,0.0280998013913631,0.0433714315295219
5,1.00000001649321,-0.187500003092477,0.0486111125881959,-0.00916297826915979,0.0503963828086853,-0.0397062413394451
5,0.991666665193688,-0.218055563744246,0.0416666683668809,-0.0592539273202419,0.0134390350431204,-0.100181899964809
5,1.01388893532575,-0.216666671860991,0.0472222237439329,0.0552833043038845,0.144469633698463,-0.0858265683054924
5,0.994444448960196,-0.18333333959868,0.0458333348996699,0.106595985591412,0.154243469238281,-0.0335975885391235
5,1.02916674604155,-0.204166669223633,0.0625000010308258,0.0681114718317986,0.187230199575424,0.0247400421649218
5,1.02916674604155,-0.195833342236038,0.0500000014324589,-0.121256753802299,0.125227376818657,-0.0418442711234093
5,1.03472221632685,-0.193055558469529,0.0513888902767219,-0.0907134860754013,0.189673662185669,-0.0415388382971287
5,0.984722303025134,-0.19166667874224,0.0722222259796579,-0.0244346093386412,0.0045814891345799,-0.0436768643558025
5,0.994444448960196,-0.180555567988136,0.0611111152255539,0.0925460830330849,-0.0671951770782471,-0.127670839428902
5,0.981944519258625,-0.176388892338373,0.0694444482911319,0.116675265133381,-0.101709060370922,-0.0778853222727776
5,1.00138890837647,-0.212499996211229,0.0875000002275597,0.0815505087375641,-0.165239050984383,-0.0632245540618896
5,1.00972225967599,-0.226388890731841,0.0736111117849297,0.076052725315094,-0.096211276948452,-0.0473420582711697
5,1.01527782720901,-0.223611131277262,0.055555559848502,0.0696386396884918,-0.0549778714776039,-0.0745255574584007
5,1.01944450285877,-0.180555567988136,0.0486111125881959,0.0027488935738802,-0.0287106670439243,-0.0748309940099716
5,1.02638896227504,-0.163888889701015,0.0638888929140799,0.00488692196086049,-0.0045814891345799,0.00733038317412138
5,1.0125000434425,-0.170833336961321,0.0458333348996699,0.0122173046693206,-0.0574213340878487,0.0363464802503586
5,1.00833336779274,-0.177777784221628,0.0583333375370279,-0.0433714315295219,-0.113315500319004,0.0668897479772568
5,1.00000001649321,-0.187500003092477,0.0611111152255539,-0.113620936870575,-0.175623759627342,0.0824668109416962
5,1.01388893532575,-0.211111128639904,0.0805555590452358,-0.0891863256692886,-0.163101017475128,0.0726929605007172
5,0.998611124609959,-0.220833347510754,0.055555559848502,0.113620936870575,-0.128281697630882,0.123700208961964
5,1.02916674604155,-0.206944452990142,0.0236111118719664,0.00702495034784079,-0.0907134860754013,0.0671951770782471
5,1.00416669214298,-0.186111123365188,0.0625000010308258,-0.0378736443817616,0.150883719325066,-0.0143553335219622
5,1.00416669214298,-0.206944452990142,0.0513888902767219,0.0210748501121998,-0.0268780700862408,0.0134390350431204
5,1.00555558402623,-0.202777789496344,0.0583333375370279,0.0455094613134861,0.0326812900602817,-0.0250454749912024
5,0.98888888142718,-0.204166669223633,0.0583333375370279,0.0372627787292004,-0.0222965814173222,0.000916297896765172
5,0.99583334084345,-0.216666671860991,0.105555564319952,0.208610475063324,-0.0403171069920063,0.011606439948082
5,1.02638896227504,-0.24583335278547,0.0541666679652478,0.256868839263916,0.0940732508897781,0.00183259579353034
5,1.08611111875954,-0.206944452990142,0.00555555575692586,-0.0244346093386412,0.201280102133751,-0.0348193198442459
5,1.0305556379248,-0.184722231481934,0.0486111125881959,-0.170431405305862,0.206777885556221,-0.02382374368608
5,0.994444448960196,-0.177777784221628,0.0611111152255539,-0.249233022332191,0.140804439783096,0.0494800843298435
5,0.962500032893068,-0.16527778158427,0.0972222251763917,-0.262061178684235,0.0473420582711697,0.136833816766739
5,0.954166681593543,-0.172222228844576,0.116666675074056,-0.163406446576118,-0.0497855171561241,0.164628177881241
5,0.96666670854283,-0.190277786858986,0.112499999424294,0.0247400421649218,-0.10048733651638,0.0940732508897781
5,0.980555627375371,-0.205555561106887,0.0847222225390337,0.0473420582711697,-0.287412106990814,0.0757472887635231
5,0.980555627375371,-0.205555561106887,0.0847222225390337,-0.00916297826915979,-0.000305432622553781,0.0299323964864016
5,1.03750000009336,-0.218055563744246,0.0458333348996699,0.00519235478714108,0.17409659922123,-0.037568211555481
5,0.984722303025134,-0.200000005729836,0.0625000010308258,-0.0152716310694814,0.0345138870179653,0.000610865245107561
5,0.984722303025134,-0.200000005729836,0.0625000010308258,-0.0125227374956012,0.00885754637420177,0.00733038317412138
5,1.00972225967599,-0.211111128639904,0.0625000010308258,-0.00794124789535999,0.0226020142436027,0.00397062394768
5,1.00694447590948,-0.216666671860991,0.0638888929140799,0.00519235478714108,0.01588249579072,-0.0021380283869803
5,1.00694447590948,-0.216666671860991,0.0638888929140799,0.0268780700862408,0.00519235478714108,-0.00855211354792118
5,1.0125000434425,-0.213888888094483,0.0638888929140799,0.0311541277915239,0.0183259565383196,0.00488692196086049
5,1.00972225967599,-0.20972223675665,0.0513888902767219,0.0302378293126821,0.019547687843442,-0.00580321997404099
5,1.00972225967599,-0.20972223675665,0.0513888902767219,0.0161879286170006,0.00152716308366507,0.00519235478714108
5,1.00416669214298,-0.205555561106887,0.0611111152255539,0.0244346093386412,-0.00794124789535999,0.0106901414692402
5,1.00972225967599,-0.216666671860991,0.0625000010308258,0.0259617734700441,-0.00916297826915979,0.00641408516094089
5,1.00972225967599,-0.212499996211229,0.0625000010308258,0.0247400421649218,-0.00946841109544039,0.0045814891345799
5,1.0125000434425,-0.205555561106887,0.0625000010308258,0.0192422550171614,-0.013744467869401,0.00702495034784079
5,1.01111115155925,-0.206944452990142,0.0694444482911319,0.00733038317412138,-0.0027488935738802,0.00977384392172098
5,1.01111115155925,-0.202777789496344,0.0652777787193518,0.00794124789535999,0.000305432622553781,0.00946841109544039
5,1.00972225967599,-0.20972223675665,0.0583333375370279,-0.00702495034784079,-0.00152716308366507,0.00671951752156019
5,1.0125000434425,-0.212499996211229,0.0694444482911319,-0.00671951752156019,0.00671951752156019,0.00794124789535999
5,1.00972225967599,-0.218055563744246,0.0680555564078778,-0.00183259579353034,0.0027488935738802,0.00763581553474069
5,1.01388893532575,-0.215277779977737,0.0694444482911319,0.0152716310694814,-0.00702495034784079,0.00916297826915979
5,1.01111115155925,-0.216666671860991,0.0652777787193518,0.00916297826915979,-0.00427605677396059,0.00397062394768
5,1.01111115155925,-0.216666671860991,0.0652777787193518,0.0180205255746841,-0.00824668072164059,0.00549778714776039
5,1.00416669214298,-0.211111128639904,0.0722222259796579,0.0201585534960032,-0.0177150927484035,0.0167987942695618
5,1.00555558402623,-0.2194444556275,0.0652777787193518,0.0287106670439243,-0.0109955742955208,0.0183259565383196
5,1.00555558402623,-0.2194444556275,0.0652777787193518,0.0271835029125214,-0.0103847095742822,0.0256563406437635
5,1.00972225967599,-0.2194444556275,0.0611111152255539,0.0323758572340012,-0.0134390350431204,0.00641408516094089
5,1.00138890837647,-0.215277779977737,0.0541666679652478,0.0256563406437635,-0.0189368221908808,0.00641408516094089
5,1.00138890837647,-0.215277779977737,0.0541666679652478,0.0256563406437635,-0.0284052342176437,0.0161879286170006
5,1.00277780025972,-0.222222239394008,0.0652777787193518,0.0418442711234093,-0.0381790772080422,0.0210748501121998
5,1.00555558402623,-0.226388890731841,0.0541666679652478,0.0739146918058395,-0.0574213340878487,0.021685715764761
5,1.00555558402623,-0.226388890731841,0.0541666679652478,0.0965167060494423,-0.0546724386513233,0.0177150927484035
5,1.01666671909226,-0.229166674498349,0.0458333348996699,0.121256753802299,-0.0467311926186085,0.0152716310694814
5,1.00555558402623,-0.222222239394008,0.0458333348996699,0.139582708477974,-0.0558941699564457,0.019547687843442
5,1.00555558402623,-0.222222239394008,0.0458333348996699,0.129197999835014,-0.0629191175103188,0.000305432622553781
5,1.00833336779274,-0.212499996211229,0.0458333348996699,0.128587126731873,-0.0473420582711697,0.000916297896765172
5,1.00833336779274,-0.218055563744246,0.0361111129898289,0.128587126731873,-0.0503963828086853,-0.00488692196086049
5,1.00555558402623,-0.236111109602691,0.0458333348996699,0.149356558918953,-0.0739146918058395,-0.0262672062963247
5,1.00694447590948,-0.227777782615095,0.0472222237439329,0.17470745742321,-0.090408056974411,-0.0122173046693206
5,1.00555558402623,-0.2194444556275,0.0486111125881959,0.17470745742321,-0.0980438739061356,-0.0027488935738802
5,1.01527782720901,-0.211111128639904,0.055555559848502,0.176234617829323,-0.0589484944939613,0.019547687843442
5,1.01527782720901,-0.211111128639904,0.0472222237439329,0.146607652306557,-0.0797179117798805,0.0189368221908808
5,1.00972225967599,-0.216666671860991,0.0444444460554069,0.155159771442413,-0.114231802523136,0.0186313893646002
5,0.997222232726705,-0.226388890731841,0.0416666683668809,0.202196389436722,-0.142026171088219,0.0122173046693206
5,0.99583334084345,-0.24583335278547,0.0444444460554069,0.237015709280968,-0.146302223205566,0.0256563406437635
5,1.00555558402623,-0.25555557165632,0.0500000014324589,0.29107728600502,-0.155465200543404,0.0589484944939613
5,1.00000001649321,-0.259722222994153,0.0375000018340919,0.332616120576859,-0.188757359981537,0.0616973899304867
5,0.99583334084345,-0.258333331110899,0.0402777795226179,0.375987559556961,-0.246178686618805,0.0690277740359306
5,0.987499989543926,-0.265277790527169,0.0513888902767219,0.438295811414719,-0.271835029125214,0.100181899964809
5,0.99583334084345,-0.270833333748257,0.0430555572111439,0.475558578968048,-0.267253547906876,0.107512280344963
5,1.0125000434425,-0.276388901281273,0.0194444453391775,0.524122357368469,-0.2379320114851,0.0937678143382072
5,0.99583334084345,-0.272222225631511,0.0416666683668809,0.557109117507935,-0.255036234855652,0.0956004112958908
5,0.997222232726705,-0.265277790527169,0.0361111129898289,0.589790403842926,-0.25961771607399,0.111788339912891
5,1.00277780025972,-0.254166679773066,0.0416666683668809,0.569937288761139,-0.261755764484406,0.119424156844616
5,1.00000001649321,-0.243055569018962,0.0388888906783549,0.572686195373535,-0.236404851078987,0.111788339912891
5,1.00972225967599,-0.227777782615095,0.0541666679652478,0.558025419712067,-0.203418120741844,0.104152522981167
5,1.02222228662528,-0.206944452990142,0.0486111125881959,0.502436637878418,-0.166766211390495,0.115758962929249
5,1.03194452980806,-0.195833342236038,0.0347222241455659,0.408057987689972,-0.128587126731873,0.105374254286289
5,1.03194452980806,-0.176388892338373,0.0194444453391775,0.321620553731918,-0.112093769013882,0.08460483700037
5,1.02916674604155,-0.16527778158427,0.0194444453391775,0.168293371796608,-0.0598647929728031,0.0513126812875271
5,1.02083339474202,-0.152777778946911,0.0180555564949145,0.0537561401724815,-0.0351247526705265,0.0479529201984406
5,1.0125000434425,-0.154166670830166,0.0222222230277034,-0.0439822971820831,-0.0360410511493683,0.0415388382971287
5,1.01388893532575,-0.159722226207217,0.0222222230277034,-0.0919352173805237,-0.0381790772080422,0.0280998013913631
5,1.00833336779274,-0.172222228844576,0.0222222230277034,-0.200058370828629,-0.0439822971820831,0.00427605677396059
5,1.00694447590948,-0.177777784221628,0.0138888899621255,-0.26419922709465,-0.0494800843298435,-0.00763581553474069
5,1.01111115155925,-0.186111123365188,0.0111111115138517,-0.305127203464508,-0.0638354197144508,-0.0140499006956816
5,1.01666671909226,-0.193055558469529,-0.00555555575692586,-0.362853944301605,-0.0772744566202164,-0.00519235478714108
5,1.01111115155925,-0.211111128639904,-0.00555555575692586,-0.368351757526398,-0.0754418596625328,0.00916297826915979
5,0.994444448960196,-0.233333350148112,-0.00833333382532574,-0.363770246505737,-0.0864374339580536,0.0201585534960032
5,1.00000001649321,-0.233333350148112,-0.00833333382532574,-0.388815730810165,-0.115453533828259,0.0140499006956816
5,1.00555558402623,-0.231944458264858,-0.0222222230277034,-0.394618958234787,-0.106901414692402,0.00366519158706069
5,1.00833336779274,-0.240277785252453,-0.03194444645704,-0.394313514232635,-0.121256753802299,-0.000305432622553781
5,1.01805561097552,-0.238888893369199,-0.03194444645704,-0.393702656030655,-0.0885754600167274,-0.00916297826915979
5,1.01805561097552,-0.238888893369199,-0.03194444645704,-0.396451532840729,-0.0500909499824047,-0.021685715764761
5,1.00833336779274,-0.247222220356795,-0.0500000014324589,-0.387288570404053,-0.0342084541916847,-0.0452040284872055
5,1.01944450285877,-0.259722222994153,-0.052777782159976,-0.39064833521843,-0.0189368221908808,-0.0439822971820831
5,1.01944450285877,-0.259722222994153,-0.052777782159976,-0.35979962348938,0.0262672062963247,-0.0629191175103188
5,1.02222228662528,-0.275000009398019,-0.0513888902767219,-0.303294599056244,0.0394008085131645,-0.0549778714776039
5,1.02083339474202,-0.280555576931036,-0.052777782159976,-0.230601623654366,0.0653625801205635,-0.0736092627048492
5,1.01388893532575,-0.284722228268869,-0.0486111125881959,-0.160657554864883,0.0723875313997269,-0.096211276948452
5,1.00277780025972,-0.286111120152123,-0.0458333348996699,-0.0791070461273193,0.0589484944939613,-0.101403631269932
5,0.99583334084345,-0.286111120152123,-0.0388888906783549,-0.00519235478714108,0.0638354197144508,-0.0913243517279625
5,0.994444448960196,-0.275000009398019,-0.0458333348996699,0.0543670058250427,0.0384845100343227,-0.0849102661013603
5,1.00138890837647,-0.265277790527169,-0.03194444645704,0.104152522981167,-0.0027488935738802,-0.0607810914516449
5,0.998611124609959,-0.261111114877407,-0.0208333341834404,0.15332718193531,-0.00427605677396059,-0.0433714315295219
5,1.00138890837647,-0.25555557165632,-0.0138888899621255,0.202501833438873,-0.0183259565383196,-0.0235183127224445
5,1.0125000434425,-0.244444460902216,-0.0194444453391775,0.229990765452385,-0.0113010071218014,-0.02382374368608
5,1.01111115155925,-0.24583335278547,-0.00138888893923146,0.282830595970154,-0.0210748501121998,-0.0287106670439243
5,1.00000001649321,-0.236111109602691,-0.00138888893923146,0.279165416955948,-0.0458148941397667,-0.0213802829384804
5,0.998611124609959,-0.220833347510754,-0.0194444453391775,0.214413702487946,-0.0381790772080422,-0.0201585534960032
5,1.00833336779274,-0.20972223675665,-0.0222222230277034,0.168293371796608,-0.0201585534960032,-0.015577063895762
5,1.01666671909226,-0.202777789496344,-0.0208333341834404,0.143553331494331,-0.00427605677396059,-0.0122173046693206
5,1.02222228662528,-0.206944452990142,-0.0166666676506515,0.118813291192055,-0.0253509078174829,-0.0149661982432008
5,1.01527782720901,-0.206944452990142,-0.0222222230277034,0.0855211317539215,-0.0381790772080422,-0.021685715764761
5,1.01111115155925,-0.204166669223633,-0.0152777788063885,0.0751364231109619,-0.0339030213654041,-0.0198531206697226
5,1.0125000434425,-0.215277779977737,-0.00694444498106275,0.0998764708638191,-0.0430659987032413,-0.0183259565383196
5,1.01527782720901,-0.223611131277262,-0.00416666691266287,0.107512280344963,-0.0400116741657257,-0.0106901414692402
5,1.01527782720901,-0.223611131277262,0.00277777787846293,0.12675453722477,-0.021685715764761,-0.00916297826915979
5,1.00555558402623,-0.229166674498349,-0.00277777787846293,0.148134827613831,-0.0290160998702049,-0.00519235478714108
5,1.00000001649321,-0.223611131277262,-0.00555555575692586,0.16951510310173,-0.0210748501121998,-0.000916297896765172
5,1.00416669214298,-0.2194444556275,-0.00972222266958873,0.194255143404007,-0.00916297826915979,0.00977384392172098
5,1.01111115155925,-0.223611131277262,-0.00277777787846293,0.231517925858498,-0.00794124789535999,0.0448985956609249
5,1.01944450285877,-0.212499996211229,-0.0125000003581147,0.22235494852066,0.00427605677396059,0.0607810914516449
5,1.00972225967599,-0.20972223675665,-0.0152777788063885,0.218384325504303,0.00397062394768,0.0662788823246956
5,1.00277780025972,-0.206944452990142,-0.0236111118719664,0.210443079471588,0.00488692196086049,0.0778853222727776
5,1.00555558402623,-0.213888888094483,-0.026388891079988,0.156686931848526,0.0100792767480016,0.0754418596625328
5,1.0125000434425,-0.211111128639904,-0.0402777795226179,0.0827722400426865,0.0149661982432008,0.0705549344420433
5,1.02222228662528,-0.218055563744246,-0.052777782159976,0.0033597587607801,0.0204639863222837,0.0503963828086853
5,1.02916674604155,-0.220833347510754,-0.0486111125881959,-0.0833831056952477,0.00702495034784079,0.0250454749912024
5,1.01944450285877,-0.227777782615095,-0.0388888906783549,-0.0986547395586967,-0.00305432616733015,-0.00855211354792118
5,1.00694447590948,-0.222222239394008,-0.033333335301303,-0.112093769013882,-0.0262672062963247,-0.0280998013913631
5,1.00138890837647,-0.229166674498349,-0.029166668768514,-0.11636982858181,-0.0400116741657257,-0.0308486949652433
5,1.00277780025972,-0.234722242031366,-0.0236111118719664,-0.0928515195846558,-0.0152716310694814,-0.0430659987032413
5,1.00694447590948,-0.229166674498349,-0.0236111118719664,-0.0653625801205635,-0.0113010071218014,-0.0461203269660473
5,1.00972225967599,-0.2194444556275,-0.0166666676506515,-0.0571159012615681,0.0021380283869803,-0.0455094613134861
5,1.0125000434425,-0.230555566381603,-0.00833333382532574,-0.00152716308366507,0.0100792767480016,-0.0332921557128429
5,1.01527782720901,-0.247222220356795,-0.00416666691266287,0.0620028227567673,0.0140499006956816,-0.015577063895762
5,1.01388893532575,-0.269444466176932,-0.00277777787846293,0.13225232064724,0.029626963660121,-0.00855211354792118
5,1.01527782720901,-0.263888898643915,-0.00277777787846293,0.197309479117393,0.0394008085131645,0.00733038317412138
5,1.01666671909226,-0.240277785252453,-0.00277777787846293,0.217468023300171,0.0519235469400883,0.0363464802503586
5,1.00694447590948,-0.20972223675665,-0.00277777787846293,0.207388743758202,0.0268780700862408,0.0497855171561241
5,1.00555558402623,-0.202777789496344,-0.00277777787846293,0.175318330526352,0.0210748501121998,0.0390953756868839
5,1.01388893532575,-0.19166667874224,-0.0125000003581147,0.0986547395586967,0.0797179117798805,0.0183259565383196
5,1.01527782720901,-0.188888894975731,-0.0125000003581147,0.027488935738802,0.11606439948082,-0.00305432616733015
5,1.0125000434425,-0.187500003092477,-0.0152777788063885,-0.0265726372599602,0.0980438739061356,-0.0143553335219622
5,1.00555558402623,-0.195833342236038,-0.0236111118719664,-0.160046696662903,0.0397062413394451,-0.0384845100343227
5,1.00972225967599,-0.216666671860991,-0.0152777788063885,-0.176845490932465,0.0189368221908808,-0.0369573459029198
5,1.01527782720901,-0.243055569018962,-0.0152777788063885,-0.177761793136597,0.0271835029125214,-0.029626963660121
5,1.01944450285877,-0.247222220356795,-0.0138888899621255,-0.138360977172852,0.0204639863222837,-0.0219911485910416
5,1.02222228662528,-0.252777787889811,-0.00277777787846293,-0.0678060427308083,0.064446285367012,-0.0311541277915239
5,1.01388893532575,-0.248611112240049,-0.00555555575692586,-0.0256563406437635,0.0849102661013603,-0.029626963660121
5,1.01388893532575,-0.248611112240049,-0.00555555575692586,0.00244346098043024,0.0901026204228401,-0.0326812900602817
5,1.00416669214298,-0.237500001485945,-0.00555555575692586,0.0177150927484035,0.0977384373545647,-0.0250454749912024
5,1.00416669214298,-0.237500001485945,-0.00555555575692586,0.0507018156349659,0.122173048555851,-0.00610865233466029
5,1.01111115155925,-0.240277785252453,0.0125000003581147,0.078801617026329,0.127365410327911,0.0122173046693206
5,0.986111194908388,-0.238888893369199,0.0111111115138517,0.124616511166096,0.0772744566202164,0.0397062413394451
5,0.986111194908388,-0.238888893369199,0.0111111115138517,0.134695783257484,0.04764748737216,0.0479529201984406
5,0.99583334084345,-0.231944458264858,0.00555555575692586,0.135001212358475,0.0241291765123606,0.0665843114256859
5,1.00833336779274,-0.223611131277262,-0.0125000003581147,0.103236228227615,0.0113010071218014,0.0604756586253643
5,1.00833336779274,-0.223611131277262,-0.0125000003581147,0.0775798857212067,0.0021380283869803,0.0531452745199203
5,1.01805561097552,-0.227777782615095,-0.0236111118719664,0.0488692186772823,-0.0146607663482428,0.0171042270958424
5,1.01805561097552,-0.233333350148112,-0.00277777787846293,0.0390953756868839,-0.0342084541916847,-0.00641408516094089
5,1.00833336779274,-0.233333350148112,-0.00138888893923146,0.0412334054708481,-0.0354301854968071,-0.0235183127224445
5,1.00555558402623,-0.229166674498349,-0.00277777787846293,0.0445931628346443,-0.0394008085131645,-0.0299323964864016
5,1.00555558402623,-0.226388890731841,0.00972222266958873,0.0565050356090069,-0.0180205255746841,-0.0290160998702049
5,1.01527782720901,-0.226388890731841,0.0138888899621255,0.0726929605007172,0.0189368221908808,-0.0421497002243996
5,1.01111115155925,-0.223611131277262,0.00416666691266287,0.0839939713478088,0.0253509078174829,-0.0406225398182869
5,1.00555558402623,-0.223611131277262,0.0194444453391775,0.0995710343122482,0.0229074470698834,-0.0516181141138077
5,1.00555558402623,-0.216666671860991,0.0250000007162294,0.114231802523136,0.0189368221908808,-0.0332921557128429
5,1.00555558402623,-0.20972223675665,0.0416666683668809,0.117591559886932,0.00763581553474069,-0.0287106670439243
5,1.00000001649321,-0.204166669223633,0.0361111129898289,0.112399205565453,-0.00397062394768,0.00366519158706069
5,0.994444448960196,-0.20972223675665,0.029166668768514,0.0861319974064827,-0.0210748501121998,0.0247400421649218
5,1.00000001649321,-0.211111128639904,0.0194444453391775,0.0769690200686455,-0.0342084541916847,0.0357356183230877
5,1.00277780025972,-0.222222239394008,0.0208333341834404,0.0690277740359306,0.00946841109544039,0.0326812900602817
5,1.00277780025972,-0.222222239394008,0.0208333341834404,0.0693332031369209,0.0253509078174829,0.0357356183230877
5,1.0125000434425,-0.226388890731841,0.0152777788063885,0.027488935738802,0.0394008085131645,0.0106901414692402
5,1.01944450285877,-0.229166674498349,-0.00277777787846293,-0.0439822971820831,0.0458148941397667,-0.0125227374956012
5,1.02638896227504,-0.236111109602691,-0.00833333382532574,-0.0974330082535744,0.0604756586253643,-0.0467311926186085
5,1.02361117850853,-0.243055569018962,-0.00277777787846293,-0.0977384373545647,0.0757472887635231,-0.0647517144680023
5,1.02222228662528,-0.262500006760661,0.00416666691266287,-0.0503963828086853,0.0937678143382072,-0.0977384373545647
5,1.01527782720901,-0.259722222994153,0.0361111129898289,0.01191187184304,0.0965167060494423,-0.106901414692402
5,1.00138890837647,-0.238888893369199,0.0444444460554069,0.0323758572340012,0.0922406539320946,-0.0965167060494423
5,1.00138890837647,-0.20972223675665,0.0347222241455659,0.0302378293126821,0.0821613743901253,-0.0433714315295219
5,1.00972225967599,-0.20138889761309,0.0513888902767219,0.0378736443817616,0.0821613743901253,-0.0207694191485643
5,1.01666671909226,-0.195833342236038,0.0513888902767219,0.0394008085131645,0.0907134860754013,-0.0143553335219622
5,1.01111115155925,-0.193055558469529,0.0486111125881959,0.0497855171561241,0.0971275717020035,-0.0201585534960032
5,1.00000001649321,-0.187500003092477,0.0583333375370279,0.0577267669141293,0.106901414692402,-0.021685715764761
5,1.00000001649321,-0.187500003092477,0.0569444456537738,0.0384845100343227,0.120951317250729,-0.00946841109544039
5,1.00555558402623,-0.179166676104882,0.0513888902767219,0.01191187184304,0.134390354156494,0.00946841109544039
5,1.01527782720901,-0.175000000455119,0.0486111125881959,-0.0177150927484035,0.116980694234371,0.0372627787292004
5,1.01527782720901,-0.18333333959868,0.0361111129898289,-0.0342084541916847,0.0861319974064827,0.0287106670439243
5,1.00277780025972,-0.190277786858986,0.03194444645704,-0.0821613743901253,0.0461203269660473,0.0290160998702049
5,1.00000001649321,-0.205555561106887,0.0166666676506515,-0.142026171088219,0.00641408516094089,0.0186313893646002
5,1.00972225967599,-0.220833347510754,-0.00416666691266287,-0.195476874709129,-0.0247400421649218,0.00152716308366507
5,1.01388893532575,-0.236111109602691,0.00138888893923146,-0.191506251692772,-0.0348193198442459,-0.00855211354792118
5,1.01666671909226,-0.256944463539574,0.00555555575692586,-0.109955742955208,-0.0442877300083637,-0.0186313893646002
5,1.01666671909226,-0.266666682410424,0.0125000003581147,-0.0106901414692402,-0.0381790772080422,-0.0152716310694814
5,1.0125000434425,-0.265277790527169,0.0222222230277034,0.0516181141138077,-0.0326812900602817,-0.017409659922123
5,1.00833336779274,-0.244444460902216,0.0180555564949145,0.138971850275993,-0.0189368221908808,-0.0033597587607801
5,1.00138890837647,-0.223611131277262,0.0194444453391775,0.137750118970871,-0.0210748501121998,0.00183259579353034
5,1.00277780025972,-0.212499996211229,0.0236111118719664,0.098960168659687,-0.0265726372599602,0.00763581553474069
5,1.00277780025972,-0.213888888094483,0.00694444498106275,0.0494800843298435,-0.0659734457731247,0.0171042270958424
5,1.00555558402623,-0.20972223675665,0.0125000003581147,0.0177150927484035,-0.0974330082535744,0.0308486949652433
5,1.00694447590948,-0.212499996211229,0.0125000003581147,-0.0146607663482428,-0.102625362575054,0.0403171069920063
5,1.0125000434425,-0.216666671860991,0.0125000003581147,-0.0357356183230877,-0.100792765617371,0.0342084541916847
5,1.02222228662528,-0.220833347510754,0.00555555575692586,-0.058643065392971,-0.0656680166721344,0.0183259565383196
5,1.02083339474202,-0.224999998848587,0.00972222266958873,-0.0662788823246956,-0.0500909499824047,0.00519235478714108
5,1.01944450285877,-0.229166674498349,0.0125000003581147,-0.0769690200686455,-0.0256563406437635,-0.0021380283869803
5,1.01944450285877,-0.226388890731841,0.00555555575692586,-0.0809396430850029,0.000305432622553781,-0.00855211354792118
5,1.01388893532575,-0.233333350148112,0.00833333382532574,-0.0778853222727776,0.0207694191485643,-0.0235183127224445
5,1.0125000434425,-0.236111109602691,0.0111111115138517,-0.0613919571042061,0.0161879286170006,-0.0189368221908808
5,1.00972225967599,-0.229166674498349,0.0222222230277034,-0.0580321997404099,0.01191187184304,-0.0113010071218014
5,1.00972225967599,-0.229166674498349,0.0222222230277034,-0.0604756586253643,0.00977384392172098,0.00794124789535999
5,1.0125000434425,-0.229166674498349,0.0208333341834404,-0.0589484944939613,0.00580321997404099,0.0149661982432008
5,1.00555558402623,-0.230555566381603,0.0194444453391775,-0.0647517144680023,0.00641408516094089,0.0167987942695618
5,1.00000001649321,-0.233333350148112,0.0180555564949145,-0.0445931628346443,-0.0033597587607801,0.00580321997404099
5,1.00555558402623,-0.236111109602691,0.0194444453391775,-0.0332921557128429,-0.00946841109544039,0.0021380283869803
5,1.01111115155925,-0.224999998848587,0.0222222230277034,-0.0305432621389627,-0.00763581553474069,-0.00763581553474069
5,1.01805561097552,-0.224999998848587,0.0138888899621255,-0.0439822971820831,-0.00397062394768,0.00183259579353034
5,1.00972225967599,-0.229166674498349,0.0180555564949145,-0.0378736443817616,-0.00397062394768,0.0201585534960032
5,1.01111115155925,-0.223611131277262,0.0152777788063885,-0.0470366254448891,-0.000916297896765172,0.01191187184304
5,1.01527782720901,-0.223611131277262,0.0222222230277034,-0.0598647929728031,0.0161879286170006,-0.00519235478714108
5,1.01527782720901,-0.230555566381603,0.00833333382532574,-0.0717766657471657,0.0247400421649218,-0.00244346098043024
5,1.01388893532575,-0.227777782615095,0.00555555575692586,-0.0812450796365738,0.0219911485910416,-0.00580321997404099
5,1.0125000434425,-0.240277785252453,0.0180555564949145,-0.0745255574584007,0.0280998013913631,0.021685715764761
5,1.00972225967599,-0.247222220356795,0.0180555564949145,-0.0824668109416962,0.0284052342176437,0.0213802829384804
5,1.01527782720901,-0.243055569018962,0.00833333382532574,-0.119424156844616,0.0360410511493683,0.00977384392172098
5,1.01527782720901,-0.234722242031366,-0.00555555575692586,-0.128892570734024,0.0772744566202164,0.0033597587607801
5,1.01388893532575,-0.243055569018962,-0.00555555575692586,-0.12675453722477,0.090408056974411,-0.0021380283869803
5,1.00833336779274,-0.262500006760661,-0.00972222266958873,-0.128281697630882,0.0995710343122482,-0.00519235478714108
5,0.997222232726705,-0.269444466176932,0.00694444498106275,-0.106290549039841,0.0901026204228401,-0.00885754637420177
5,0.997222232726705,-0.269444466176932,0.00694444498106275,-0.070249505341053,0.0684169083833694,-0.00977384392172098
5,1.00555558402623,-0.25555557165632,0.0194444453391775,-0.0543670058250427,0.0827722400426865,-0.00763581553474069
5,1.00555558402623,-0.258333331110899,0.0194444453391775,-0.00519235478714108,0.08460483700037,-0.0152716310694814
5,1.00555558402623,-0.24583335278547,0.0194444453391775,-0.0109955742955208,0.0650571510195732,0.0021380283869803
5,1.00694447590948,-0.227777782615095,0.026388891079988,-0.0161879286170006,0.0537561401724815,-0.0149661982432008
5,1.00000001649321,-0.220833347510754,0.0513888902767219,-0.0421497002243996,0.0424551330506802,-0.0131336031481624
5,1.00000001649321,-0.220833347510754,0.0513888902767219,-0.0620028227567673,0.0931569486856461,-0.0186313893646002
5,1.0333333244436,-0.205555561106887,0.0652777787193518,-0.148745685815811,0.197004035115242,-0.0134390350431204
5,0.952777789710289,-0.170833336961321,0.055555559848502,-0.113926365971565,0.0271835029125214,-0.00855211354792118
5,0.952777789710289,-0.170833336961321,0.055555559848502,-0.138666406273842,-0.0928515195846558,0.0311541277915239
5,0.979166735492117,-0.175000000455119,0.0472222237439329,-0.204639852046967,-0.112093769013882,0.0668897479772568
5,0.99583334084345,-0.188888894975731,0.0361111129898289,-0.192117124795914,-0.15332718193531,0.0687223374843597
5,1.01527782720901,-0.211111128639904,0.0250000007162294,-0.176845490932465,-0.1795943826437,0.0656680166721344
5,1.02777785415829,-0.220833347510754,0.00972222266958873,-0.136528387665749,-0.162490159273148,0.0723875313997269
5,1.02222228662528,-0.230555566381603,0.0125000003581147,-0.0855211317539215,-0.157297804951668,0.0794124826788902
5,1.01527782720901,-0.227777782615095,0.0166666676506515,-0.0607810914516449,-0.135612085461616,0.0555887371301651
5,1.01944450285877,-0.213888888094483,0.00694444498106275,-0.0650571510195732,-0.104457959532738,0.0467311926186085
5,1.02222228662528,-0.213888888094483,-0.00833333382532574,-0.0329867228865623,-0.0650571510195732,0.0332921557128429
5,1.01944450285877,-0.216666671860991,-0.00416666691266287,-0.0250454749912024,-0.0394008085131645,0.0256563406437635
5,1.01527782720901,-0.218055563744246,0.00277777787846293,-0.015577063895762,-0.0262672062963247,0.0171042270958424
5,1.01111115155925,-0.216666671860991,-0.0125000003581147,-0.0534507073462009,-0.0207694191485643,0.017409659922123
5,1.00972225967599,-0.193055558469529,-0.0166666676506515,-0.0736092627048492,-0.037568211555481,0.0427605658769607
5,1.01666671909226,-0.181944447715425,-0.0222222230277034,-0.0885754600167274,-0.0360410511493683,0.0516181141138077
5,1.02222228662528,-0.187500003092477,-0.0180555564949145,-0.118813291192055,-0.0339030213654041,0.0681114718317986
5,1.02222228662528,-0.200000005729836,-0.00555555575692586,-0.104763388633728,-0.0461203269660473,0.0678060427308083
5,1.00972225967599,-0.197222234119292,-0.00555555575692586,-0.098960168659687,-0.0558941699564457,0.0638354197144508
5,1.01388893532575,-0.223611131277262,-0.0180555564949145,-0.0852157026529312,-0.0403171069920063,0.0415388382971287
5,1.01944450285877,-0.241666677135707,-0.026388891079988,-0.0571159012615681,-0.00824668072164059,0.0192422550171614
5,1.02083339474202,-0.247222220356795,-0.03194444645704,-0.0479529201984406,0.0210748501121998,0.00977384392172098
5,1.00972225967599,-0.254166679773066,-0.0208333341834404,-0.00488692196086049,0.0485637858510017,-0.019547687843442
5,1.00972225967599,-0.252777787889811,-0.0222222230277034,0.0305432621389627,0.0244346093386412,-0.0262672062963247
5,1.00555558402623,-0.24583335278547,-0.0208333341834404,0.0366519130766392,0.0027488935738802,-0.01191187184304
5,1.0125000434425,-0.230555566381603,-0.026388891079988,0.0390953756868839,-0.0021380283869803,0.027488935738802
5,1.00972225967599,-0.227777782615095,-0.00833333382532574,0.0561996027827263,-0.0045814891345799,0.0522289797663689
5,1.00972225967599,-0.2194444556275,-0.00833333382532574,0.0659734457731247,-0.0106901414692402,0.0513126812875271
5,1.00972225967599,-0.226388890731841,0.00694444498106275,0.0714712366461754,-0.0186313893646002,0.0400116741657257
5,1.00555558402623,-0.233333350148112,0.00694444498106275,0.0891863256692886,-0.0128281703218818,0.029626963660121
5,1.00277780025972,-0.227777782615095,-0.00555555575692586,0.0736092627048492,0.0106901414692402,0.0302378293126821
5,1.00416669214298,-0.238888893369199,-0.00555555575692586,0.078801617026329,0.00946841109544039,0.0400116741657257
5,1.00138890837647,-0.243055569018962,-0.0125000003581147,0.0729983970522881,-0.0106901414692402,0.0491746515035629
5,0.998611124609959,-0.237500001485945,0.00277777787846293,0.081855945289135,-0.0284052342176437,0.0616973899304867
5,1.00833336779274,-0.243055569018962,0.00138888893923146,0.0971275717020035,-0.0366519130766392,0.076052725315094
5,1.00972225967599,-0.244444460902216,0.0222222230277034,0.106595985591412,-0.0412334054708481,0.0583376325666905
5,1.01527782720901,-0.24583335278547,0.0152777788063885,0.0809396430850029,-0.0369573459029198,0.0360410511493683
5,1.02500007039179,-0.248611112240049,0.00277777787846293,0.0604756586253643,0.013744467869401,0.0171042270958424
5,1.02083339474202,-0.265277790527169,-0.00138888893923146,0.0598647929728031,0.0629191175103188,0.0109955742955208
5,1.01527782720901,-0.261111114877407,-0.00138888893923146,0.0662788823246956,0.0937678143382072,-0.0186313893646002
5,0.98888888142718,-0.265277790527169,-0.0125000003581147,0.0720821022987366,0.0839939713478088,-0.0323758572340012
5,0.98888888142718,-0.261111114877407,-0.0125000003581147,0.0849102661013603,0.0604756586253643,-0.0387899428606033
5,0.993055557076942,-0.256944463539574,0.0111111115138517,0.0766635909676552,0.0384845100343227,-0.0488692186772823
5,1.00138890837647,-0.251388896006557,0.0111111115138517,0.0620028227567673,0.0433714315295219,-0.058643065392971
5,1.01388893532575,-0.24583335278547,0.00277777787846293,0.0467311926186085,0.0479529201984406,-0.064446285367012
5,1.00555558402623,-0.243055569018962,0.0125000003581147,0.0357356183230877,0.0406225398182869,-0.0708603709936142
5,0.993055557076942,-0.251388896006557,0.0152777788063885,0.0235183127224445,0.0326812900602817,-0.0470366254448891
5,0.993055557076942,-0.24583335278547,0.0250000007162294,0.013744467869401,0.0372627787292004,-0.0494800843298435
5,0.998611124609959,-0.241666677135707,0.0125000003581147,-0.00366519158706069,0.0256563406437635,-0.0314595587551594
5,1.00555558402623,-0.243055569018962,0.0194444453391775,-0.0305432621389627,0.0268780700862408,-0.0302378293126821
5,1.00555558402623,-0.243055569018962,0.0194444453391775,-0.0299323964864016,0.021685715764761,-0.0290160998702049
5,1.00138890837647,-0.25555557165632,0.0222222230277034,-0.0326812900602817,0.0213802829384804,-0.0348193198442459
5,0.993055557076942,-0.259722222994153,0.030555557612777,-0.0409279726445675,0.00580321997404099,-0.0235183127224445
5,1.00000001649321,-0.263888898643915,0.0194444453391775,-0.0262672062963247,0.00671951752156019,-0.0253509078174829
5,1.0125000434425,-0.265277790527169,0.0194444453391775,-0.00885754637420177,0.00671951752156019,-0.0171042270958424
5,1.01388893532575,-0.262500006760661,0.00555555575692586,-0.00733038317412138,0.0262672062963247,-0.0210748501121998
5,1.00972225967599,-0.258333331110899,0.00833333382532574,-0.0161879286170006,0.0372627787292004,-0.0222965814173222
5,1.00972225967599,-0.258333331110899,0.00833333382532574,-0.0125227374956012,0.0183259565383196,-0.0161879286170006
5,0.99583334084345,-0.258333331110899,0.00972222266958873,0.00152716308366507,0.00427605677396059,-0.0293215326964855
5,1.00555558402623,-0.252777787889811,0.0166666676506515,0.0131336031481624,0.00855211354792118,-0.0339030213654041
5,1.00555558402623,-0.252777787889811,0.0166666676506515,0.0045814891345799,0.0201585534960032,-0.0271835029125214
5,1.00694447590948,-0.240277785252453,0.0208333341834404,-0.0106901414692402,0.00916297826915979,-0.0027488935738802
5,1.00694447590948,-0.241666677135707,0.0180555564949145,-0.0146607663482428,-0.00427605677396059,0.017409659922123
5,1.00694447590948,-0.241666677135707,0.0180555564949145,-0.0128281703218818,-0.00702495034784079,0.0131336031481624
5,0.997222232726705,-0.244444460902216,0.0222222230277034,-0.0183259565383196,0.0027488935738802,-0.00824668072164059
5,1.00138890837647,-0.238888893369199,0.029166668768514,-0.0284052342176437,-0.0045814891345799,-0.0186313893646002
5,1.00138890837647,-0.238888893369199,0.029166668768514,-0.027488935738802,-0.0106901414692402,0.0021380283869803
5,1.00416669214298,-0.24583335278547,0.0222222230277034,-0.00916297826915979,-0.0204639863222837,-0.00824668072164059
5,1.0125000434425,-0.256944463539574,0.0194444453391775,0.0021380283869803,-0.0177150927484035,-0.0122173046693206
5,1.0125000434425,-0.256944463539574,0.0194444453391775,0.00916297826915979,-0.0201585534960032,-0.0204639863222837
5,1.00555558402623,-0.247222220356795,0.0125000003581147,0.0131336031481624,-0.0250454749912024,-0.0210748501121998
5,1.00000001649321,-0.252777787889811,0.0152777788063885,0.0171042270958424,-0.0222965814173222,-0.00671951752156019
5,1.00555558402623,-0.250000004123303,0.00555555575692586,0.0235183127224445,-0.0293215326964855,-0.0134390350431204
5,1.00555558402623,-0.24583335278547,0.00277777787846293,0.0360410511493683,-0.0213802829384804,-0.00152716308366507
5,1.00972225967599,-0.237500001485945,-0.00138888893923146,0.0448985956609249,-0.00916297826915979,-0.0106901414692402
5,1.0125000434425,-0.236111109602691,-0.00277777787846293,0.0421497002243996,0.000916297896765172,-0.0247400421649218
5,1.01527782720901,-0.231944458264858,0.00277777787846293,0.0253509078174829,0.00641408516094089,-0.0198531206697226
5,1.00555558402623,-0.226388890731841,0.00416666691266287,0.00824668072164059,0.0161879286170006,-0.00977384392172098
5,1.00138890837647,-0.227777782615095,0.00972222266958873,0.000916297896765172,0.0131336031481624,-0.00549778714776039
5,1.00694447590948,-0.233333350148112,0.0180555564949145,-0.00916297826915979,0.0131336031481624,-0.00824668072164059
5,1.00694447590948,-0.231944458264858,0.0125000003581147,-0.0226020142436027,0.00977384392172098,-0.00641408516094089
5,1.01527782720901,-0.237500001485945,0.0166666676506515,-0.01588249579072,0.0100792767480016,-0.00641408516094089
5,1.0125000434425,-0.229166674498349,0.0111111115138517,-0.0256563406437635,0.0232128798961639,0.000610865245107561
5,1.00416669214298,-0.229166674498349,0.0111111115138517,-0.0464257597923279,0.0229074470698834,-0.00366519158706069
5,1.00555558402623,-0.231944458264858,0.00694444498106275,-0.0467311926186085,0.0143553335219622,0.00763581553474069
5,1.00972225967599,-0.236111109602691,0.0222222230277034,-0.0308486949652433,0.0122173046693206,-0.00519235478714108
5,1.0125000434425,-0.236111109602691,0.00555555575692586,-0.0219911485910416,0.0213802829384804,0.00733038317412138
5,1.01527782720901,-0.236111109602691,0.00416666691266287,-0.0207694191485643,0.0229074470698834,-0.00794124789535999
5,1.00972225967599,-0.233333350148112,0.00277777787846293,-0.0265726372599602,0.0198531206697226,-0.0027488935738802
5,1.00694447590948,-0.230555566381603,0.00555555575692586,-0.0369573459029198,0.0244346093386412,-0.0171042270958424
5,1.01111115155925,-0.233333350148112,0.00416666691266287,-0.0342084541916847,0.0332921557128429,-0.017409659922123
5,1.01527782720901,-0.233333350148112,0.00277777787846293,-0.0357356183230877,0.0265726372599602,-0.019547687843442
5,1.0125000434425,-0.231944458264858,0.00555555575692586,-0.0265726372599602,0.0348193198442459,-0.0204639863222837
5,1.00972225967599,-0.226388890731841,0.00555555575692586,-0.0403171069920063,0.0369573459029198,-0.0149661982432008
5,1.00277780025972,-0.222222239394008,0.00555555575692586,-0.0516181141138077,0.0314595587551594,-0.0256563406437635
5,1.00000001649321,-0.223611131277262,0.00138888893923146,-0.0601702257990837,0.01191187184304,-0.0241291765123606
5,1.01111115155925,-0.226388890731841,0.0111111115138517,-0.0384845100343227,0.0131336031481624,-0.0192422550171614
5,1.01527782720901,-0.230555566381603,0.0111111115138517,-0.0390953756868839,0.0329867228865623,-0.0213802829384804
5,1.0125000434425,-0.231944458264858,0.0111111115138517,-0.0390953756868839,0.0351247526705265,-0.0244346093386412
5,1.00833336779274,-0.230555566381603,0.0111111115138517,-0.0229074470698834,0.029626963660121,-0.0177150927484035
5,1.00972225967599,-0.233333350148112,0.00277777787846293,-0.0235183127224445,0.0284052342176437,-0.0277943685650826
5,1.0125000434425,-0.229166674498349,0.00972222266958873,-0.027488935738802,0.021685715764761,-0.0143553335219622
5,1.00972225967599,-0.226388890731841,0.00555555575692586,-0.0357356183230877,0.0149661982432008,-0.0207694191485643
5,1.01111115155925,-0.229166674498349,0.00694444498106275,-0.0455094613134861,0.0226020142436027,-0.0103847095742822
5,1.00972225967599,-0.230555566381603,-0.00416666691266287,-0.0458148941397667,0.0204639863222837,-0.011606439948082
5,1.0125000434425,-0.229166674498349,-0.00416666691266287,-0.0406225398182869,0.0360410511493683,-0.0131336031481624
5,1.00972225967599,-0.231944458264858,-0.00555555575692586,-0.0452040284872055,0.0381790772080422,-0.0229074470698834
5,1.00972225967599,-0.230555566381603,0.00416666691266287,-0.0378736443817616,0.0369573459029198,-0.0167987942695618
5,1.01111115155925,-0.233333350148112,0.00833333382532574,-0.0265726372599602,0.0397062413394451,-0.0180205255746841
5,1.00833336779274,-0.229166674498349,0.0194444453391775,-0.0213802829384804,0.0332921557128429,-0.0180205255746841
5,1.00972225967599,-0.223611131277262,0.0152777788063885,-0.0149661982432008,0.0204639863222837,-0.0152716310694814
5,1.0125000434425,-0.224999998848587,0.0138888899621255,-0.013744467869401,0.0201585534960032,-0.00702495034784079
5,1.00972225967599,-0.224999998848587,0.0125000003581147,-0.01588249579072,0.029626963660121,-0.0143553335219622
5,1.00972225967599,-0.234722242031366,0.00555555575692586,-0.000610865245107561,0.0259617734700441,-0.00977384392172098
5,1.00416669214298,-0.223611131277262,0.00972222266958873,0.00733038317412138,0.0323758572340012,-0.00794124789535999
5,1.00416669214298,-0.222222239394008,0.0138888899621255,0.0128281703218818,0.0226020142436027,-0.0106901414692402
5,1.00972225967599,-0.215277779977737,0.0111111115138517,0.00305432616733015,0.0210748501121998,-0.00671951752156019
5,1.00972225967599,-0.216666671860991,0.00694444498106275,0.000305432622553781,0.0125227374956012,-0.00519235478714108
5,1.0125000434425,-0.2194444556275,0.0166666676506515,0.00305432616733015,0.00885754637420177,-0.011606439948082
5,1.0125000434425,-0.222222239394008,0.0125000003581147,-0.00763581553474069,0.0131336031481624,-0.00794124789535999
5,1.0125000434425,-0.226388890731841,0.00277777787846293,-0.00427605677396059,0.0171042270958424,-0.0134390350431204
5,1.00972225967599,-0.224999998848587,0.00416666691266287,0.00885754637420177,0.015577063895762,-0.00152716308366507
5,1.01111115155925,-0.224999998848587,0.00972222266958873,0.0033597587607801,0.0192422550171614,-0.0171042270958424
5,1.00694447590948,-0.226388890731841,0.00694444498106275,-0.00122173049021512,0.0280998013913631,-0.0192422550171614
5,1.0125000434425,-0.226388890731841,0.00833333382532574,0.0103847095742822,0.0394008085131645,-0.0259617734700441
5,1.01388893532575,-0.229166674498349,0.00694444498106275,0.0207694191485643,0.0390953756868839,-0.0372627787292004
5,1.01527782720901,-0.223611131277262,0.0125000003581147,0.0256563406437635,0.0445931628346443,-0.0412334054708481
5,1.01527782720901,-0.220833347510754,0.0152777788063885,0.0164933614432812,0.0601702257990837,-0.0436768643558025
5,1.01527782720901,-0.229166674498349,0.0125000003581147,0.0186313893646002,0.0601702257990837,-0.0565050356090069
5,1.0125000434425,-0.231944458264858,0.0111111115138517,0.0265726372599602,0.0678060427308083,-0.0516181141138077
5,1.01527782720901,-0.230555566381603,0.00972222266958873,0.0369573459029198,0.0766635909676552,-0.0577267669141293
5,1.00555558402623,-0.2194444556275,0.0152777788063885,0.0332921557128429,0.0678060427308083,-0.0589484944939613
5,1.00277780025972,-0.216666671860991,0.0222222230277034,0.0320704244077206,0.0436768643558025,-0.0390953756868839
5,0.997222232726705,-0.213888888094483,0.027777779924251,0.0311541277915239,0.0146607663482428,-0.0219911485910416
5,0.998611124609959,-0.211111128639904,0.03194444645704,0.0342084541916847,-0.0027488935738802,-0.0161879286170006
5,1.00277780025972,-0.20972223675665,0.0361111129898289,0.0280998013913631,-0.0277943685650826,0.011606439948082
5,1.00277780025972,-0.20972223675665,0.0361111129898289,0.0387899428606033,-0.0354301854968071,0.0207694191485643
5,1.00277780025972,-0.2194444556275,0.0375000018340919,0.0445931628346443,-0.0277943685650826,0.0250454749912024
5,1.0125000434425,-0.2194444556275,0.030555557612777,0.0357356183230877,-0.0226020142436027,0.00885754637420177
5,1.01527782720901,-0.222222239394008,0.0222222230277034,0.04764748737216,-0.0232128798961639,0.0192422550171614
5,1.01527782720901,-0.216666671860991,0.029166668768514,0.0470366254448891,-0.021685715764761,0.01588249579072
5,1.00972225967599,-0.212499996211229,0.0361111129898289,0.0442877300083637,-0.0186313893646002,0.00885754637420177
5,1.00972225967599,-0.20972223675665,0.026388891079988,0.04764748737216,-0.0146607663482428,0.0100792767480016
5,1.0125000434425,-0.20972223675665,0.029166668768514,0.0366519130766392,-0.0106901414692402,-0.00244346098043024
5,1.01944450285877,-0.212499996211229,0.0194444453391775,0.0439822971820831,-0.0177150927484035,0.0033597587607801
5,1.01527782720901,-0.212499996211229,0.027777779924251,0.0415388382971287,-0.00946841109544039,0.00122173049021512
5,1.00972225967599,-0.206944452990142,0.03194444645704,0.0360410511493683,-0.019547687843442,0.00397062394768
5,1.00555558402623,-0.208333344873396,0.0472222237439329,0.0439822971820831,-0.0204639863222837,-0.000610865245107561
5,1.00277780025972,-0.206944452990142,0.0388888906783549,0.0351247526705265,-0.0320704244077206,0.00916297826915979
5,1.00972225967599,-0.205555561106887,0.029166668768514,0.0314595587551594,-0.0464257597923279,0.00519235478714108
5,1.01388893532575,-0.215277779977737,0.029166668768514,0.0332921557128429,-0.0345138870179653,0.00763581553474069
5,1.01527782720901,-0.215277779977737,0.029166668768514,0.0436768643558025,-0.0253509078174829,0.00244346098043024
5,1.00972225967599,-0.2194444556275,0.0250000007162294,0.0491746515035629,-0.0186313893646002,0.0033597587607801
5,1.00972225967599,-0.216666671860991,0.0361111129898289,0.0387899428606033,-0.0033597587607801,-0.01191187184304
5,1.0125000434425,-0.204166669223633,0.029166668768514,0.0287106670439243,0.00397062394768,-0.0125227374956012
5,1.00833336779274,-0.208333344873396,0.0194444453391775,0.02382374368608,-0.01191187184304,-0.011606439948082
5,1.0125000434425,-0.215277779977737,0.0152777788063885,0.0219911485910416,-0.00152716308366507,-0.0192422550171614
5,1.01944450285877,-0.2194444556275,0.00277777787846293,0.0335975885391235,0.0186313893646002,-0.019547687843442
5,1.02083339474202,-0.230555566381603,0.0152777788063885,0.0485637858510017,0.0241291765123606,-0.0335975885391235
5,1.01527782720901,-0.2194444556275,0.0222222230277034,0.0494800843298435,0.0219911485910416,-0.0219911485910416
5,1.00694447590948,-0.212499996211229,0.0194444453391775,0.0326812900602817,0.0183259565383196,-0.0222965814173222
5,1.01388893532575,-0.206944452990142,0.0152777788063885,0.015577063895762,0.015577063895762,-0.01588249579072
5,1.01527782720901,-0.211111128639904,0.0250000007162294,0.0192422550171614,0.0177150927484035,-0.0198531206697226
5,1.0125000434425,-0.220833347510754,0.0152777788063885,0.00549778714776039,0.0229074470698834,-0.0164933614432812
5,1.0125000434425,-0.20972223675665,0.0125000003581147,-0.00305432616733015,0.0198531206697226,-0.0241291765123606
5,1.00833336779274,-0.212499996211229,0.0166666676506515,-0.00366519158706069,0.0186313893646002,-0.015577063895762
5,1.00972225967599,-0.212499996211229,0.0152777788063885,-0.0128281703218818,-0.000610865245107561,-0.00733038317412138
5,1.0125000434425,-0.216666671860991,0.0152777788063885,-0.00763581553474069,0.00580321997404099,-0.0106901414692402
5,1.0125000434425,-0.2194444556275,0.0180555564949145,-0.00519235478714108,0.0146607663482428,-0.0122173046693206
5,1.00972225967599,-0.2194444556275,0.0208333341834404,-0.000916297896765172,0.0201585534960032,-0.0103847095742822
5,1.00694447590948,-0.223611131277262,0.0152777788063885,-0.00122173049021512,0.0171042270958424,-0.0152716310694814
5,1.00694447590948,-0.218055563744246,0.0166666676506515,0.00733038317412138,0.0177150927484035,-0.0143553335219622
5,1.00972225967599,-0.220833347510754,0.0250000007162294,0.0140499006956816,0.00824668072164059,-0.0109955742955208
5,1.0125000434425,-0.212499996211229,0.027777779924251,0.0106901414692402,0.011606439948082,-0.000610865245107561
5,1.0125000434425,-0.202777789496344,0.027777779924251,0.01191187184304,0.00519235478714108,0.00580321997404099
5,1.00972225967599,-0.208333344873396,0.00972222266958873,0.0033597587607801,-0.0106901414692402,0.0125227374956012
5,1.00972225967599,-0.213888888094483,0.0236111118719664,0.00946841109544039,-0.011606439948082,0.011606439948082
5,1.0125000434425,-0.213888888094483,0.0208333341834404,0.017409659922123,-0.0189368221908808,0.00519235478714108
5,1.0125000434425,-0.218055563744246,0.0236111118719664,0.0207694191485643,-0.0152716310694814,0.0164933614432812
5,1.01111115155925,-0.216666671860991,0.0194444453391775,0.0253509078174829,-0.0122173046693206,0.0164933614432812
5,1.01527782720901,-0.216666671860991,0.0222222230277034,0.0381790772080422,-0.00671951752156019,0.0222965814173222
5,1.01111115155925,-0.213888888094483,0.027777779924251,0.0461203269660473,0.00244346098043024,0.00549778714776039
5,1.0125000434425,-0.208333344873396,0.0250000007162294,0.0467311926186085,-0.00366519158706069,0.0125227374956012
5,1.00972225967599,-0.206944452990142,0.0125000003581147,0.0342084541916847,-0.00305432616733015,-0.00397062394768
5,1.0125000434425,-0.20972223675665,0.0222222230277034,0.0348193198442459,-0.0100792767480016,0.011606439948082
5,1.01527782720901,-0.212499996211229,0.029166668768514,0.0424551330506802,0.00152716308366507,0.0143553335219622
5,1.01944450285877,-0.213888888094483,0.029166668768514,0.0479529201984406,0.00427605677396059,0.0161879286170006
5,1.02222228662528,-0.216666671860991,0.027777779924251,0.0485637858510017,0.0140499006956816,-0.00244346098043024
5,1.01666671909226,-0.211111128639904,0.0194444453391775,0.0406225398182869,0.0210748501121998,-0.00488692196086049
5,1.0125000434425,-0.205555561106887,0.0208333341834404,0.0164933614432812,0.0323758572340012,-0.00122173049021512
5,1.00555558402623,-0.20972223675665,0.0347222241455659,0.0164933614432812,0.0247400421649218,0.00641408516094089
5,1.00694447590948,-0.20972223675665,0.03194444645704,0.0134390350431204,0.015577063895762,0.0045814891345799
5,1.00694447590948,-0.20972223675665,0.03194444645704,0.0140499006956816,0.0152716310694814,-0.00397062394768
5,1.01527782720901,-0.213888888094483,0.0208333341834404,0.00824668072164059,0.0207694191485643,0.00152716308366507
5,1.01527782720901,-0.213888888094483,0.0208333341834404,0.0100792767480016,0.0320704244077206,0.00794124789535999
5,1.0125000434425,-0.212499996211229,0.0236111118719664,0.0222965814173222,0.0320704244077206,0.00824668072164059
5,1.00694447590948,-0.216666671860991,0.030555557612777,0.0167987942695618,0.0290160998702049,0.00427605677396059
5,1.00555558402623,-0.212499996211229,0.026388891079988,0.0183259565383196,0.0262672062963247,-0.00610865233466029
5,1.00833336779274,-0.218055563744246,0.0458333348996699,0.011606439948082,0.0256563406437635,0.0045814891345799
5,1.00972225967599,-0.20972223675665,0.0388888906783549,0.0146607663482428,0.0326812900602817,0.00549778714776039
5,1.0125000434425,-0.212499996211229,0.0361111129898289,0.0256563406437635,0.03176499158144,0.01191187184304
5,1.00972225967599,-0.212499996211229,0.0250000007162294,0.0277943685650826,0.0192422550171614,0.015577063895762
5,1.00833336779274,-0.20972223675665,0.027777779924251,0.0323758572340012,0.0213802829384804,0.0106901414692402
5,1.00555558402623,-0.208333344873396,0.026388891079988,0.0311541277915239,0.0177150927484035,0.00671951752156019
5,1.00694447590948,-0.212499996211229,0.029166668768514,0.0345138870179653,0.02382374368608,-0.00183259579353034
5,1.00833336779274,-0.213888888094483,0.029166668768514,0.0369573459029198,0.0332921557128429,0.00824668072164059
5,1.01388893532575,-0.212499996211229,0.0250000007162294,0.0332921557128429,0.0290160998702049,-0.0021380283869803
5,1.01388893532575,-0.204166669223633,0.029166668768514,0.0143553335219622,0.0284052342176437,0.000610865245107561
5,1.01527782720901,-0.202777789496344,0.0361111129898289,0.00885754637420177,0.0268780700862408,-0.0027488935738802
5,1.00972225967599,-0.205555561106887,0.0361111129898289,-0.00305432616733015,0.0335975885391235,-0.00183259579353034
5,1.00833336779274,-0.206944452990142,0.033333335301303,-0.00824668072164059,0.0201585534960032,-0.00305432616733015
5,1.00972225967599,-0.206944452990142,0.0375000018340919,-0.0161879286170006,0.017409659922123,0.00610865233466029
5,1.00555558402623,-0.213888888094483,0.0416666683668809,-0.017409659922123,0.00733038317412138,0.0021380283869803
5,1.00972225967599,-0.213888888094483,0.0375000018340919,-0.015577063895762,0.00366519158706069,0.00519235478714108
5,1.01527782720901,-0.20972223675665,0.0347222241455659,-0.00610865233466029,0.00549778714776039,0.00824668072164059
5,1.01388893532575,-0.218055563744246,0.03194444645704,0.000916297896765172,-0.00244346098043024,0.0113010071218014
5,1.0125000434425,-0.220833347510754,0.0361111129898289,0.000916297896765172,0.0131336031481624,0.00519235478714108
5,1.00972225967599,-0.216666671860991,0.033333335301303,0.0103847095742822,0.0204639863222837,0.0021380283869803
5,1.0125000434425,-0.215277779977737,0.03194444645704,0.021685715764761,0.0167987942695618,0.0021380283869803
5,1.00972225967599,-0.208333344873396,0.029166668768514,0.0189368221908808,0.00977384392172098,0.00152716308366507
5,1.00416669214298,-0.20972223675665,0.0347222241455659,0.00916297826915979,-0.00427605677396059,0.00244346098043024
5,1.00416669214298,-0.218055563744246,0.0416666683668809,0.000610865245107561,-0.00824668072164059,0.00488692196086049
5,1.00972225967599,-0.2194444556275,0.0347222241455659,-0.00152716308366507,-0.00580321997404099,0.00671951752156019
5,1.00972225967599,-0.2194444556275,0.029166668768514,-0.0027488935738802,0.0134390350431204,0.00397062394768
5,1.00972225967599,-0.222222239394008,0.029166668768514,0.01588249579072,0.00305432616733015,0.00152716308366507
5,1.01527782720901,-0.222222239394008,0.0416666683668809,0.0198531206697226,-0.0033597587607801,0.00183259579353034
5,1.0125000434425,-0.222222239394008,0.0402777795226179,0.0311541277915239,0.00916297826915979,0.00671951752156019
5,1.00555558402623,-0.2194444556275,0.0375000018340919,0.0262672062963247,-0.00824668072164059,0.0103847095742822
5,1.00972225967599,-0.218055563744246,0.0388888906783549,0.0222965814173222,-0.0152716310694814,0.01588249579072
5,1.00694447590948,-0.215277779977737,0.0347222241455659,0.0235183127224445,-0.0180205255746841,0.0210748501121998
5,1.00972225967599,-0.216666671860991,0.03194444645704,0.0219911485910416,-0.0259617734700441,0.0305432621389627
5,1.00972225967599,-0.216666671860991,0.03194444645704,0.0305432621389627,-0.0299323964864016,0.0268780700862408
5,1.01111115155925,-0.212499996211229,0.03194444645704,0.0256563406437635,-0.0207694191485643,0.0229074470698834
5,1.0125000434425,-0.216666671860991,0.030555557612777,0.0293215326964855,-0.0250454749912024,0.01191187184304
5,1.00972225967599,-0.212499996211229,0.0347222241455659,0.0299323964864016,-0.0290160998702049,0.02382374368608
5,1.00972225967599,-0.212499996211229,0.0347222241455659,0.0171042270958424,-0.0277943685650826,0.0219911485910416
5,1.00972225967599,-0.211111128639904,0.029166668768514,0.0143553335219622,-0.0308486949652433,0.0122173046693206
5,1.01527782720901,-0.216666671860991,0.0375000018340919,0.01588249579072,-0.0149661982432008,0.00824668072164059
5,1.01805561097552,-0.222222239394008,0.029166668768514,0.015577063895762,-0.00549778714776039,-0.00702495034784079
5,1.01805561097552,-0.216666671860991,0.03194444645704,0.0100792767480016,0.019547687843442,-0.00916297826915979
5,1.01527782720901,-0.218055563744246,0.026388891079988,0.00702495034784079,0.0427605658769607,-0.00855211354792118
5,1.01527782720901,-0.226388890731841,0.0194444453391775,0.00977384392172098,0.0662788823246956,-0.0244346093386412
5,1.00972225967599,-0.236111109602691,0.0166666676506515,0.0323758572340012,0.0717766657471657,-0.0427605658769607
5,1.0125000434425,-0.234722242031366,0.0250000007162294,0.0473420582711697,0.0647517144680023,-0.0326812900602817
5,1.01111115155925,-0.220833347510754,0.03194444645704,0.0479529201984406,0.0403171069920063,-0.0219911485910416
5,1.00277780025972,-0.204166669223633,0.0361111129898289,0.021685715764761,0.00580321997404099,0.0149661982432008
5,1.00277780025972,-0.200000005729836,0.0444444460554069,0.00152716308366507,-0.0027488935738802,0.0299323964864016
5,1.00833336779274,-0.202777789496344,0.0402777795226179,-0.000916297896765172,-0.0106901414692402,0.0311541277915239
5,1.00833336779274,-0.202777789496344,0.0402777795226179,-0.0180205255746841,-0.00183259579353034,0.02382374368608
5,1.00555558402623,-0.205555561106887,0.0416666683668809,-0.015577063895762,0.0122173046693206,0.015577063895762
5,1.00972225967599,-0.206944452990142,0.0486111125881959,-0.0265726372599602,0.0045814891345799,0.0152716310694814
5,1.0125000434425,-0.216666671860991,0.0416666683668809,-0.0277943685650826,0.0021380283869803,0.017409659922123
5,1.01527782720901,-0.223611131277262,0.0416666683668809,-0.0241291765123606,-0.00244346098043024,0.0033597587607801
5,1.0125000434425,-0.222222239394008,0.0375000018340919,-0.0204639863222837,-0.00122173049021512,-0.000610865245107561
5,1.01111115155925,-0.220833347510754,0.0388888906783549,-0.0106901414692402,0.0027488935738802,-0.00549778714776039
5,1.00972225967599,-0.220833347510754,0.0402777795226179,-0.00549778714776039,0.00855211354792118,-0.01191187184304
5,1.00972225967599,-0.218055563744246,0.0416666683668809,-0.015577063895762,-0.00244346098043024,0.00305432616733015
5,1.00555558402623,-0.216666671860991,0.0513888902767219,-0.00244346098043024,-0.00610865233466029,0.00122173049021512
5,1.00972225967599,-0.215277779977737,0.0458333348996699,0.00427605677396059,0.011606439948082,-0.00397062394768
5,1.00694447590948,-0.211111128639904,0.0472222237439329,-0.000610865245107561,0.000610865245107561,0.00488692196086049
5,1.00555558402623,-0.20972223675665,0.0416666683668809,-0.0140499006956816,-0.0125227374956012,0.00702495034784079
5,1.00833336779274,-0.206944452990142,0.0458333348996699,-0.0219911485910416,-0.0299323964864016,0.0204639863222837
5,1.0125000434425,-0.206944452990142,0.0361111129898289,-0.03176499158144,-0.0213802829384804,0.0244346093386412
5,1.00972225967599,-0.206944452990142,0.0388888906783549,-0.0378736443817616,-0.0299323964864016,0.0259617734700441
5,1.00694447590948,-0.215277779977737,0.0416666683668809,-0.029626963660121,-0.0241291765123606,0.0164933614432812
5,1.01111115155925,-0.2194444556275,0.0388888906783549,-0.0280998013913631,-0.0183259565383196,0.0192422550171614
5,1.0125000434425,-0.216666671860991,0.0388888906783549,-0.0354301854968071,-0.0204639863222837,0.01588249579072
5,1.0125000434425,-0.216666671860991,0.030555557612777,-0.0201585534960032,-0.013744467869401,0.00122173049021512
5,1.01527782720901,-0.213888888094483,0.0375000018340919,-0.029626963660121,-0.00885754637420177,0.000610865245107561
5,1.01388893532575,-0.226388890731841,0.0347222241455659,-0.0268780700862408,-0.00794124789535999,-0.00977384392172098
5,1.01388893532575,-0.231944458264858,0.0388888906783549,-0.0207694191485643,-0.00519235478714108,-0.0045814891345799
5,1.01666671909226,-0.233333350148112,0.0361111129898289,-0.00549778714776039,0.0140499006956816,-0.00580321997404099
5,1.01666671909226,-0.236111109602691,0.0222222230277034,0.00244346098043024,0.0140499006956816,-0.0204639863222837
5,1.00833336779274,-0.229166674498349,0.026388891079988,0.0177150927484035,0.00671951752156019,-0.0219911485910416
5,1.00555558402623,-0.226388890731841,0.026388891079988,0.0222965814173222,0.00122173049021512,-0.0177150927484035
5,1.00694447590948,-0.227777782615095,0.033333335301303,0.0299323964864016,-0.00855211354792118,-0.00549778714776039
5,1.00972225967599,-0.223611131277262,0.030555557612777,0.0345138870179653,-0.0131336031481624,0.0113010071218014
5,1.01111115155925,-0.2194444556275,0.0458333348996699,0.0390953756868839,-0.0213802829384804,0.0180205255746841
5,1.00972225967599,-0.2194444556275,0.0388888906783549,0.0332921557128429,-0.0311541277915239,0.0167987942695618
5,1.00416669214298,-0.216666671860991,0.0250000007162294,0.0314595587551594,-0.0366519130766392,0.0164933614432812
5,1.00555558402623,-0.2194444556275,0.033333335301303,0.0213802829384804,-0.0329867228865623,0.0113010071218014
5,1.01111115155925,-0.2194444556275,0.029166668768514,0.0277943685650826,-0.0323758572340012,0.00824668072164059
5,1.01111115155925,-0.2194444556275,0.029166668768514,0.0256563406437635,-0.0241291765123606,0.000305432622553781
5,1.01666671909226,-0.216666671860991,0.0222222230277034,0.0122173046693206,-0.02382374368608,-0.0149661982432008
5,1.01527782720901,-0.212499996211229,0.0250000007162294,0.0171042270958424,-0.0271835029125214,-0.0259617734700441
5,1.00833336779274,-0.200000005729836,0.033333335301303,-0.00671951752156019,-0.0427605658769607,-0.00427605677396059
5,1.01388893532575,-0.205555561106887,0.0236111118719664,-0.0253509078174829,-0.0329867228865623,0.01191187184304
5,1.01944450285877,-0.20972223675665,0.0152777788063885,-0.0201585534960032,-0.0256563406437635,0.00580321997404099
5,1.01527782720901,-0.198611113846581,0.033333335301303,-0.000305432622553781,-0.0464257597923279,-0.00794124789535999
5,1.00694447590948,-0.190277786858986,0.0458333348996699,-0.0326812900602817,-0.0616973899304867,0.0128281703218818
5,0.991666665193688,-0.190277786858986,0.0597222233422998,-0.0543670058250427,-0.0897971913218498,0.0574213340878487
5,0.994444448960196,-0.200000005729836,0.0513888902767219,-0.0800233483314514,-0.112093769013882,0.0668897479772568
5,1.00972225967599,-0.20972223675665,0.0388888906783549,-0.0763581544160843,-0.108734011650086,0.0613919571042061
5,1.02222228662528,-0.20972223675665,0.0236111118719664,-0.0687223374843597,-0.0736092627048492,0.0394008085131645
5,1.02638896227504,-0.2194444556275,0.0180555564949145,-0.0503963828086853,-0.0455094613134861,0.000610865245107561
5,1.01527782720901,-0.24583335278547,-0.00833333382532574,-0.0421497002243996,0.000610865245107561,-0.0345138870179653
5,1.01527782720901,-0.262500006760661,-0.00138888893923146,0.0027488935738802,0.0335975885391235,-0.0583376325666905
5,1.0125000434425,-0.272222225631511,-0.00277777787846293,0.0213802829384804,0.0629191175103188,-0.0928515195846558
5,1.03750000009336,-0.254166679773066,-0.03194444645704,-0.01588249579072,0.133168622851372,-0.146302223205566
5,1.04027778385987,-0.250000004123303,-0.0388888906783549,-0.0427605658769607,0.193338856101036,-0.167377084493637
5,1.03472221632685,-0.244444460902216,-0.033333335301303,-0.0488692186772823,0.200363799929619,-0.16951510310173
5,1.02500007039179,-0.247222220356795,-0.0152777788063885,-0.0302378293126821,0.201890960335732,-0.178678080439568
5,1.01111115155925,-0.238888893369199,-0.00277777787846293,-0.03176499158144,0.203723564743996,-0.173485726118088
5,1.00416669214298,-0.2194444556275,0.00277777787846293,-0.0323758572340012,0.176234617829323,-0.150883719325066
5,0.984722303025134,-0.20972223675665,0.0250000007162294,-0.0516181141138077,0.116675265133381,-0.119729585945606
5,0.983333411141879,-0.187500003092477,0.029166668768514,-0.0696386396884918,0.0543670058250427,-0.0589484944939613
5,0.986111194908388,-0.176388892338373,0.026388891079988,-0.106901414692402,-0.00152716308366507,0.000916297896765172
5,0.987499989543926,-0.168055565350778,0.030555557612777,-0.135001212358475,-0.0653625801205635,0.0525344125926495
5,0.993055557076942,-0.18333333959868,0.0388888906783549,-0.128587126731873,-0.0959058403968811,0.0613919571042061
5,1.01111115155925,-0.198611113846581,0.0361111129898289,-0.117896988987923,-0.0849102661013603,0.0507018156349659
5,1.02222228662528,-0.215277779977737,0.027777779924251,-0.101098194718361,-0.0888808965682983,0.0464257597923279
5,1.01805561097552,-0.226388890731841,0.030555557612777,-0.0543670058250427,-0.0852157026529312,0.0146607663482428
5,1.01944450285877,-0.230555566381603,0.029166668768514,-0.0192422550171614,-0.0494800843298435,-0.000610865245107561
5,1.02361117850853,-0.229166674498349,0.027777779924251,-0.00580321997404099,-0.0293215326964855,-0.02382374368608
5,1.02500007039179,-0.220833347510754,0.0236111118719664,0.00549778714776039,-0.000610865245107561,-0.0363464802503586
5,1.02222228662528,-0.212499996211229,0.029166668768514,0.0201585534960032,0.0204639863222837,-0.0403171069920063
5,1.0305556379248,-0.216666671860991,0.0222222230277034,0.0323758572340012,0.0647517144680023,-0.0745255574584007
5,1.02500007039179,-0.202777789496344,0.029166668768514,0.0311541277915239,0.103236228227615,-0.0897971913218498
5,1.00555558402623,-0.184722231481934,0.0472222237439329,0.0149661982432008,0.08460483700037,-0.0971275717020035
5,1.00138890837647,-0.17361112072783,0.0430555572111439,-0.0180205255746841,0.0626136884093285,-0.0632245540618896
5,1.00694447590948,-0.170833336961321,0.0361111129898289,-0.0461203269660473,0.0665843114256859,-0.0473420582711697
5,1.01944450285877,-0.170833336961321,0.03194444645704,-0.0729983970522881,0.0525344125926495,-0.0308486949652433
5,1.0125000434425,-0.17361112072783,0.0375000018340919,-0.081855945289135,0.0387899428606033,-0.0259617734700441
5,1.00972225967599,-0.17361112072783,0.0361111129898289,-0.0842994004487991,0.0308486949652433,-0.00488692196086049
5,1.00555558402623,-0.175000000455119,0.0416666683668809,-0.0748309940099716,0.015577063895762,0.013744467869401
5,1.00555558402623,-0.170833336961321,0.0347222241455659,-0.112399205565453,0.0109955742955208,0.0180205255746841
5,1.01111115155925,-0.177777784221628,0.030555557612777,-0.136222943663597,0.0033597587607801,0.0293215326964855
5,1.0125000434425,-0.187500003092477,0.029166668768514,-0.137139245867729,0.00794124789535999,0.0232128798961639
5,1.0125000434425,-0.193055558469529,0.0250000007162294,-0.123089343309402,-0.00763581553474069,0.0326812900602817
5,1.0125000434425,-0.200000005729836,0.0236111118719664,-0.115453533828259,-0.00580321997404099,0.027488935738802
5,1.01805561097552,-0.202777789496344,0.0361111129898289,-0.0824668109416962,-0.00763581553474069,0.00794124789535999
5,1.01527782720901,-0.211111128639904,0.0222222230277034,-0.0629191175103188,-0.00580321997404099,0.0226020142436027
5,1.01527782720901,-0.204166669223633,0.0236111118719664,-0.0589484944939613,-0.00702495034784079,0.0167987942695618
5,1.0125000434425,-0.198611113846581,0.0222222230277034,-0.0510072484612465,-0.0241291765123606,0.0198531206697226
5,1.00972225967599,-0.202777789496344,0.0250000007162294,-0.0522289797663689,-0.0189368221908808,0.0247400421649218
5,1.00555558402623,-0.208333344873396,0.0375000018340919,-0.0290160998702049,-0.0280998013913631,0.0256563406437635
5,1.00972225967599,-0.2194444556275,0.0388888906783549,-0.00641408516094089,-0.0229074470698834,0.0259617734700441
5,1.02222228662528,-0.218055563744246,0.0208333341834404,0.0045814891345799,0.00244346098043024,0.0183259565383196
5,1.02222228662528,-0.223611131277262,0.03194444645704,0.0342084541916847,0.00702495034784079,0.0204639863222837
5,1.02500007039179,-0.216666671860991,0.0236111118719664,0.0561996027827263,0.00641408516094089,0.0106901414692402
5,1.02500007039179,-0.216666671860991,0.0236111118719664,0.0452040284872055,0.0189368221908808,0.0146607663482428
5,1.0125000434425,-0.202777789496344,0.029166668768514,0.0421497002243996,0.0210748501121998,0.0250454749912024
5,1.00694447590948,-0.204166669223633,0.033333335301303,0.0555887371301651,0.00183259579353034,0.0271835029125214
5,1.00972225967599,-0.202777789496344,0.03194444645704,0.0366519130766392,-0.00733038317412138,0.037568211555481
5,1.01111115155925,-0.205555561106887,0.0194444453391775,0.0250454749912024,-0.0171042270958424,0.0186313893646002
5,1.0125000434425,-0.206944452990142,0.0138888899621255,0.0387899428606033,-0.0103847095742822,0.00549778714776039
5,1.02500007039179,-0.211111128639904,0.029166668768514,0.0384845100343227,0.0268780700862408,-0.02382374368608
5,1.02638896227504,-0.194444450352783,0.03194444645704,0.0210748501121998,0.0363464802503586,-0.0409279726445675
5,1.02500007039179,-0.186111123365188,0.027777779924251,-0.0109955742955208,0.058643065392971,-0.0546724386513233
5,1.01805561097552,-0.176388892338373,0.0222222230277034,-0.0500909499824047,0.0623082555830479,-0.0394008085131645
5,1.01388893532575,-0.175000000455119,0.0194444453391775,-0.0555887371301651,0.0366519130766392,-0.015577063895762
5,1.00833336779274,-0.193055558469529,0.033333335301303,-0.0305432621389627,0.0103847095742822,0.000610865245107561
5,1.00833336779274,-0.211111128639904,0.030555557612777,0.0186313893646002,-0.00885754637420177,-0.017409659922123
5,1.00833336779274,-0.211111128639904,0.029166668768514,0.01191187184304,0.00702495034784079,0.00702495034784079
5,1.00277780025972,-0.220833347510754,0.00694444498106275,-0.0109955742955208,0.00702495034784079,0.00366519158706069
5,1.00972225967599,-0.229166674498349,0.0138888899621255,0.0290160998702049,0.0244346093386412,-0.0177150927484035
5,1.0305556379248,-0.236111109602691,-0.00277777787846293,0.0717766657471657,0.0659734457731247,-0.0235183127224445
5,1.0333333244436,-0.240277785252453,0.00277777787846293,0.113010071218014,0.0632245540618896,-0.0311541277915239
5,1.00555558402623,-0.216666671860991,0.0222222230277034,0.102319926023483,0.00885754637420177,-0.00671951752156019
5,0.98888888142718,-0.200000005729836,0.030555557612777,0.0925460830330849,-0.0262672062963247,0.000916297896765172
