Activity,acc_x,acc_y,acc_z,gyro_x,gyro_y,gyro_z
0,0.345833349572405,0.311111125426839,0.880555606276507,0.108123145997524,0.0232128798961639,-0.0867428630590439
0,0.351388892793493,0.312500017310094,0.884722281926269,0.109039448201656,-0.013744467869401,-0.0733038261532784
0,0.344444457689151,0.315277801076602,0.886111173809523,0.0907134860754013,-0.0510072484612465,-0.0503963828086853
0,0.340277782039389,0.33750002258481,0.904166671044111,0.0971275717020035,-0.0332921557128429,-0.0403171069920063
0,0.351388892793493,0.344444457689151,0.926388941176177,0.10567969083786,-0.0400116741657257,-0.0442877300083637
0,0.348611133338914,0.344444457689151,0.915277806110144,0.0565050356090069,-0.0229074470698834,-0.0134390350431204
0,0.354166676560001,0.334722238818301,0.89722221162784,0.0146607663482428,-0.0305432621389627,-0.00733038317412138
0,0.354166676560001,0.334722238818301,0.887500065692777,-0.0314595587551594,-0.00427605677396059,0.00794124789535999
0,0.366666679197359,0.331944455051793,0.890277849459286,-0.0708603709936142,-0.013744467869401,0.00946841109544039
0,0.373611114301701,0.331944455051793,0.894444525109048,-0.0684169083833694,-0.0320704244077206,0.0128281703218818
0,0.370833354847121,0.318055560531181,0.881944498159761,-0.0757472887635231,0.00549778714776039,0.0232128798961639
0,0.361111135976272,0.315277801076602,0.883333390043015,-0.0308486949652433,-0.0045814891345799,0.0235183127224445
0,0.366666679197359,0.306944449777077,0.870833363093728,-0.0409279726445675,-0.00244346098043024,0.00702495034784079
0,0.370833354847121,0.309722233543585,0.884722281926269,-0.0687223374843597,0.02382374368608,0.00488692196086049
0,0.370833354847121,0.315277801076602,0.92083337364316,-0.0992656052112579,0.0442877300083637,0.00488692196086049
0,0.362500003547597,0.322222236180943,0.936111184358955,-0.129197999835014,0.0045814891345799,0.0222965814173222
0,0.351388892793493,0.322222236180943,0.940277860008718,-0.143247902393341,-0.0339030213654041,0.0229074470698834
0,0.33750002258481,0.311111125426839,0.911111130460381,-0.128587126731873,0.0161879286170006,0.01588249579072
0,0.331944455051793,0.309722233543585,0.89722221162784,-0.0555887371301651,0.0675006061792374,-0.00855211354792118
0,0.319444452414435,0.309722233543585,0.902777779160856,-0.0339030213654041,0.140193566679955,0.0106901414692402
0,0.305555557893823,0.308333341660331,0.89722221162784,0.0360410511493683,0.0797179117798805,0.019547687843442
0,0.306944449777077,0.302777798439244,0.87500003874349,0.0583376325666905,-0.00122173049021512,0.0378736443817616
0,0.327777779402031,0.295833339022973,0.856944444261187,0.00916297826915979,-0.0620028227567673,0.0473420582711697
0,0.343055565805897,0.29166668768514,0.834722271376837,-0.0247400421649218,-0.0507018156349659,0.0213802829384804
0,0.361111135976272,0.295833339022973,0.830555595727074,-0.0439822971820831,0.0152716310694814,0.0021380283869803
0,0.361111135976272,0.295833339022973,0.830555595727074,-0.0580321997404099,-0.0394008085131645,0.00671951752156019
0,0.377777789951463,0.29166668768514,0.848611190209378,-0.0613919571042061,-0.0571159012615681,0.00824668072164059
0,0.388888900705567,0.295833339022973,0.902777779160856,-0.0461203269660473,-0.0424551330506802,-0.00397062394768
0,0.384722225055805,0.284722228268869,0.901388887277602,-0.0442877300083637,-0.0604756586253643,-0.01191187184304
0,0.373611114301701,0.281944444502361,0.906944454810619,-0.0140499006956816,-0.0604756586253643,-0.01191187184304
0,0.365277787314105,0.287500012035377,0.898611103511094,-0.0045814891345799,-0.102014496922493,-0.0268780700862408
0,0.354166676560001,0.297222230906227,0.905555562927365,0.0461203269660473,-0.0284052342176437,-0.0662788823246956
0,0.354166676560001,0.297222230906227,0.905555562927365,0.120951317250729,0.0241291765123606,-0.0678060427308083
0,0.336111130701556,0.316666668647927,0.92083337364316,0.19058994948864,-0.0247400421649218,-0.0620028227567673
0,0.329166671285285,0.327777779402031,0.898611103511094,0.203723564743996,-0.0308486949652433,-0.0390953756868839
0,0.33750002258481,0.326388911830706,0.880555606276507,0.175929188728332,-0.0146607663482428,-0.0360410511493683
0,0.354166676560001,0.315277801076602,0.855555552377932,0.113620936870575,-0.0167987942695618,-0.021685715764761
0,0.358333352209763,0.318055560531181,0.863888903677457,0.0711658000946045,-0.0128281703218818,-0.015577063895762
0,0.358333352209763,0.318055560531181,0.863888903677457,-0.015577063895762,0.0305432621389627,-0.00488692196086049
0,0.380555573717971,0.325000019947452,0.888888957576031,-0.0983493030071259,0.117286130785942,-0.0152716310694814
0,0.380555573717971,0.325000019947452,0.888888957576031,-0.198225766420364,0.183259576559067,-0.00916297826915979
0,0.376388898068209,0.312500017310094,0.893055633225794,-0.202196389436722,0.131946891546249,-0.0201585534960032
0,0.365277787314105,0.298611122789481,0.904166671044111,-0.167071640491486,0.0571159012615681,-0.0253509078174829
0,0.365277787314105,0.298611122789481,0.904166671044111,-0.139277279376984,0.02382374368608,-0.00366519158706069
0,0.358333352209763,0.300000014672736,0.926388941176177,-0.098960168659687,0.011606439948082,0.000610865245107561
0,0.361111135976272,0.301388906555989,0.918055589876652,-0.0824668109416962,0.0198531206697226,0.0021380283869803
0,0.368055571080613,0.295833339022973,0.912500022343635,-0.144775062799454,0.0726929605007172,0.0204639863222837
0,0.368055571080613,0.29166668768514,0.904166671044111,-0.182037845253944,-0.0497855171561241,0.0519235469400883
0,0.350000000910239,0.288888903918631,0.894444525109048,-0.224798411130905,-0.128587126731873,0.0723875313997269
0,0.33750002258481,0.288888903918631,0.886111173809523,-0.223882108926773,-0.0351247526705265,0.0360410511493683
0,0.344444457689151,0.283333336385615,0.877777822509998,-0.207694187760353,0.011606439948082,-0.00122173049021512
0,0.347222241455659,0.276388901281273,0.887500065692777,-0.196393176913261,-0.0027488935738802,0.0357356183230877
0,0.331944455051793,0.280555576931036,0.899999995394348,-0.165239050984383,-0.0839939713478088,0.064446285367012
0,0.338888890156135,0.272222225631511,0.901388887277602,-0.146607652306557,-0.136222943663597,0.0891863256692886
0,0.340277782039389,0.261111114877407,0.884722281926269,-0.0940732508897781,-0.176845490932465,0.0821613743901253
0,0.352777784676747,0.268055574293678,0.886111173809523,-0.0592539273202419,-0.101403631269932,0.0427605658769607
0,0.361111135976272,0.269444466176932,0.899999995394348,-0.0931569486856461,-0.0503963828086853,0.0293215326964855
0,0.361111135976272,0.265277790527169,0.909722238577127,-0.113315500319004,-0.0406225398182869,0.0479529201984406
0,0.354166676560001,0.268055574293678,0.925000049292922,-0.0873537287116051,-0.0650571510195732,0.0384845100343227
0,0.350000000910239,0.25555557165632,0.915277806110144,-0.0265726372599602,-0.0302378293126821,-0.00733038317412138
0,0.350000000910239,0.262500006760661,0.884722281926269,0.00122173049021512,0.00183259579353034,-0.0277943685650826
0,0.355555568443255,0.254166679773066,0.870833363093728,0.0128281703218818,-0.00641408516094089,-0.0397062413394451
0,0.351388892793493,0.252777787889811,0.876388930626744,0.0180205255746841,-0.0229074470698834,-0.0219911485910416
0,0.348611133338914,0.262500006760661,0.879166714393253,-0.02382374368608,0.00152716308366507,-0.00366519158706069
0,0.354166676560001,0.262500006760661,0.894444525109048,-0.0198531206697226,0.00946841109544039,-0.00794124789535999
0,0.361111135976272,0.266666682410424,0.902777779160856,0.015577063895762,0.0922406539320946,-0.0348193198442459
0,0.375000006184955,0.263888898643915,0.904166671044111,0.0113010071218014,0.128892570734024,-0.0510072484612465
0,0.370833354847121,0.250000004123303,0.901388887277602,-0.00671951752156019,0.0751364231109619,-0.0470366254448891
0,0.358333352209763,0.256944463539574,0.905555562927365,0.021685715764761,0.0705549344420433,-0.0595593601465225
0,0.352777784676747,0.258333331110899,0.908333346693873,0.0259617734700441,0.0507018156349659,-0.0439822971820831
0,0.361111135976272,0.252777787889811,0.915277806110144,0.0204639863222837,0.0277943685650826,-0.0339030213654041
0,0.375000006184955,0.252777787889811,0.912500022343635,-0.00397062394768,0.0186313893646002,-0.0430659987032413
0,0.358333352209763,0.24583335278547,0.912500022343635,0.0103847095742822,-0.0103847095742822,-0.0213802829384804
0,0.358333352209763,0.24583335278547,0.912500022343635,0.0372627787292004,-0.0757472887635231,-0.0219911485910416
0,0.352777784676747,0.250000004123303,0.89166674134254,0.0913243517279625,-0.104457959532738,-0.00855211354792118
0,0.361111135976272,0.262500006760661,0.902777779160856,0.0803287774324417,-0.146302223205566,-0.00244346098043024
0,0.372222246730376,0.269444466176932,0.923611157409668,0.0635299831628799,-0.0952949747443199,-0.021685715764761
0,0.359722244093018,0.272222225631511,0.913888914226889,0.0494800843298435,-0.0546724386513233,-0.0247400421649218
0,0.354166676560001,0.265277790527169,0.898611103511094,0.0320704244077206,-0.0265726372599602,-0.0452040284872055
0,0.368055571080613,0.262500006760661,0.905555562927365,0.0235183127224445,-0.0235183127224445,-0.0757472887635231
0,0.375000006184955,0.265277790527169,0.918055589876652,-0.00733038317412138,0.0143553335219622,-0.0974330082535744
0,0.373611114301701,0.256944463539574,0.905555562927365,0.00641408516094089,-0.00733038317412138,-0.0965167060494423
0,0.361111135976272,0.256944463539574,0.881944498159761,-0.000610865245107561,-0.0809396430850029,-0.0861319974064827
0,0.354166676560001,0.256944463539574,0.879166714393253,-0.0100792767480016,-0.0620028227567673,-0.0598647929728031
0,0.359722244093018,0.251388896006557,0.869444471210474,-0.0177150927484035,-0.0433714315295219,-0.0568104684352875
0,0.358333352209763,0.25555557165632,0.890277849459286,-0.0189368221908808,-0.0525344125926495,-0.0635299831628799
0,0.359722244093018,0.262500006760661,0.89722221162784,-0.017409659922123,-0.0959058403968811,-0.0488692186772823
0,0.358333352209763,0.263888898643915,0.886111173809523,-0.0265726372599602,-0.0870482996106148,-0.0400116741657257
0,0.363888895430851,0.259722222994153,0.887500065692777,-0.0360410511493683,-0.101403631269932,-0.0284052342176437
0,0.361111135976272,0.262500006760661,0.887500065692777,-0.0259617734700441,-0.0650571510195732,-0.0452040284872055
0,0.354166676560001,0.272222225631511,0.895833319744586,-0.0219911485910416,0.0247400421649218,-0.0442877300083637
0,0.356944460326509,0.275000009398019,0.890277849459286,-0.0293215326964855,0.0748309940099716,-0.0458148941397667
0,0.358333352209763,0.276388901281273,0.898611103511094,-0.0109955742955208,0.0791070461273193,-0.0491746515035629
0,0.380555573717971,0.251388896006557,0.89722221162784,-0.0222965814173222,0.0766635909676552,-0.0690277740359306
0,0.377777789951463,0.24583335278547,0.890277849459286,-0.0690277740359306,-0.0613919571042061,-0.0638354197144508
0,0.362500003547597,0.252777787889811,0.888888957576031,-0.0797179117798805,-0.08460483700037,-0.0351247526705265
0,0.362500003547597,0.252777787889811,0.888888957576031,-0.0665843114256859,0.013744467869401,-0.0497855171561241
0,0.356944460326509,0.277777793164528,0.890277849459286,-0.0534507073462009,0.019547687843442,-0.0448985956609249
0,0.370833354847121,0.256944463539574,0.893055633225794,-0.0629191175103188,0.078801617026329,-0.0803287774324417
0,0.370833354847121,0.256944463539574,0.893055633225794,-0.0180205255746841,0.021685715764761,-0.0678060427308083
0,0.375000006184955,0.244444460902216,0.894444525109048,-0.00671951752156019,0.0949895456433296,-0.0907134860754013
0,0.376388898068209,0.252777787889811,0.899999995394348,0.0461203269660473,0.0473420582711697,-0.16401731967926
0,0.376388898068209,0.252777787889811,0.899999995394348,0.0320704244077206,0.0427605658769607,-0.224798411130905
0,0.383333357484479,0.261111114877407,0.92083337364316,-0.0791070461273193,0.0726929605007172,-0.261450320482254
0,0.383333357484479,0.261111114877407,0.92083337364316,-0.152410879731178,-0.0656680166721344,-0.361937671899795
0,0.397222227693163,0.237500001485945,0.940277860008718,-0.145996794104576,-0.285274058580399,-0.410501450300217
0,0.387500008822313,0.24583335278547,0.962500032893068,-0.142026171088219,-0.541226625442505,-0.447458803653717
0,0.377777789951463,0.259722222994153,0.926388941176177,-0.235488548874855,-0.612392425537109,-0.342695415019989
0,0.377777789951463,0.259722222994153,0.926388941176177,-0.40775254368782,-0.584598064422607,-0.263282924890518
0,0.376388898068209,0.247222220356795,0.887500065692777,-0.524427831172943,-0.63896507024765,-0.299629390239716
0,0.377777789951463,0.234722242031366,0.863888903677457,-0.622777104377747,-0.823140919208527,-0.350636661052704
0,0.388888900705567,0.223611131277262,0.844444514559616,-0.748004496097565,-0.923933684825897,-0.364686548709869
0,0.4194444735133,0.226388890731841,0.863888903677457,-0.966999709606171,-0.809091031551361,-0.265726387500763
0,0.473611111088636,0.205555561106887,0.89166674134254,-1.15300810337067,-0.986241936683655,-0.231823354959488
0,0.479166678621653,0.194444450352783,0.933333400592447,-1.20279371738434,-1.1145236492157,-0.171653136610985
0,0.459722240879953,0.181944447715425,0.899999995394348,-1.27884638309479,-1.18477308750153,-0.239153742790222
0,0.449999997697174,0.154166670830166,0.82222224442755,-1.44103109836578,-0.99418318271637,-0.293215304613113
0,0.508333359546131,0.126388893944906,0.863888903677457,-1.47187983989716,-0.709519982337952,-0.418442696332932
0,0.488888921804431,0.108333335930496,0.830555595727074,-1.68782067298889,-0.617584764957428,-0.378736466169357
0,0.49444444071359,0.0875000002275597,0.854166660494678,-1.68293380737305,-0.626136898994446,-0.313068449497223
0,0.50138890012986,0.0444444460554069,0.848611190209378,-1.67804682254791,-0.678060412406921,-0.29046642780304
0,0.527777797287831,0.0194444453391775,0.791666671619817,-1.70645201206207,-0.600480556488037,-0.341473668813705
0,0.515277818962402,0.0194444453391775,0.787500044593913,-1.72111284732819,-0.393397212028503,-0.329561799764633
0,0.515277818962402,0.0194444453391775,0.775000017644626,-1.80144155025482,-0.120035022497177,-0.310319542884827
0,0.536111148587356,-0.0486111125881959,0.811111157985375,-1.69484567642212,0.157603234052658,-0.330478101968765
0,0.554166694445801,-0.0638888929140799,0.812500049868629,-1.49356555938721,0.240986332297325,-0.44409903883934
0,0.563888889004722,-0.0986111170596459,0.82222224442755,-1.10719323158264,0.324674874544144,-0.492051959037781
0,0.561111153862072,-0.131944449321958,0.820833352544296,-0.739452362060547,0.637437880039215,-0.541837453842163
0,0.529166689171085,-0.12777778582816,0.827777811960566,-0.830471277236938,0.121867619454861,-0.426383942365646
0,0.406944470875941,-0.105555564319952,0.654166666920807,-0.945619404315948,-0.0601702257990837,-0.275805652141571
0,0.558333370095563,-0.156944454596674,0.895833319744586,-0.54428094625473,0.856127619743347,-0.689666867256165
0,0.670833369519857,-0.190277786858986,0.836111163260091,-0.737314343452454,0.520151734352112,-0.918130457401276
0,0.691666699144811,-0.25555557165632,0.899999995394348,-0.578489363193512,0.250149309635162,-0.937067270278931
0,0.629166710269949,-0.263888898643915,0.854166660494678,-0.540004849433899,0.122173048555851,-0.996015787124634
0,0.570833348420992,-0.233333350148112,0.852777768611424,-0.567799270153046,-0.379041880369186,-1.01861774921417
0,0.552777802562547,-0.206944452990142,0.843055622676362,-0.789543330669403,-1.08764553070068,-1.05526971817017
0,0.525000013521323,-0.166666673467524,0.819444460661041,-1.07329022884369,-0.964250802993774,-0.989601671695709
0,0.551388910679293,-0.0777777813567098,0.834722271376837,-0.907745778560638,-0.193033412098885,-0.904996871948242
0,0.563888889004722,-0.052777782159976,0.894444525109048,-0.404698222875595,0.315817326307297,-0.779158592224121
0,0.548611126912784,-0.0722222259796579,0.880555606276507,-0.0598647929728031,0.100792765617371,-0.559858024120331
0,0.573611132187501,-0.106944444047242,0.888888957576031,0.126449108123779,-0.651487767696381,-0.489608496427536
0,0.594444461812454,-0.120833338567854,0.862500011794203,0.184786736965179,-1.01189827919006,-0.552222192287445
0,0.591666678045946,-0.0763888894734557,0.805555590452358,0.0983493030071259,-0.904996871948242,-0.593761026859283
0,0.611111115787646,-0.029166668768514,0.729166682744956,-0.146302223205566,-0.278249114751816,-0.463035851716995
0,0.598611137462217,-0.029166668768514,0.745833336720147,-0.170736834406853,0.0143553335219622,-0.330478101968765
0,0.600000029345471,-0.03194444645704,0.786111152710659,-0.0952949747443199,-0.468533635139465,-0.275805652141571
0,0.604166704995233,-0.0416666683668809,0.797222239152834,-0.0977384373545647,-0.684169054031372,-0.373238652944565
0,0.654166666920807,-0.0625000010308258,0.840277838909853,0.230296194553375,-0.646295428276062,-0.529620170593262
0,0.690277807261557,-0.0513888902767219,0.825000028194058,-0.0653625801205635,-0.639575898647308,-0.58704149723053
0,0.795833347269579,-0.108333335930496,0.625000034620187,-0.260534018278122,-0.410806864500046,-0.737925231456757
0,0.713888920653019,-0.148611115453114,0.705555569353494,0.128892570734024,-1.0522153377533,-0.75105881690979
0,0.787500044593913,-0.0472222237439329,0.709722245003256,0.119424156844616,-2.03082156181335,0.0186313893646002
0,0.870833363093728,-0.0513888902767219,0.709722245003256,-0.416915535926819,-3.01767420768738,0.779769480228424
0,0.818055568777787,-0.0125000003581147,0.666666693870094,-0.835663676261902,-2.33258891105652,0.382401645183563
0,0.791666671619817,-0.0222222230277034,0.581944483487025,-0.997542917728424,-1.6435329914093,0.0381790772080422
0,0.781944477060896,-0.0250000007162294,0.545833343146276,-1.17377758026123,-0.859792828559875,0.134390354156494
0,0.772222233878117,-0.0472222237439329,0.46527780841297,-1.30144834518433,-0.56657749414444,0.0729983970522881
0,0.763888931202451,-0.0652777787193518,0.377777789951463,-1.50120139122009,-0.975551784038544,-0.415388375520706
0,0.737500034044481,-0.0888888921108138,0.327777779402031,-1.48715138435364,-1.79227864742279,-0.646600842475891
0,0.719444488186035,-0.154166670830166,0.308333341660331,-1.21867620944977,-2.31517934799194,-0.852767884731293
0,0.747222228603401,-0.223611131277262,0.268055574293678,-0.754418551921844,-2.21866250038147,-1.05068826675415
0,0.805555590452358,-0.233333350148112,0.224999998848587,-0.133474051952362,-1.62215268611908,-0.844826638698578
0,0.858333336144441,-0.150000007336368,0.200000005729836,0.139888137578964,-1.53082835674286,-0.445015341043472
0,0.854166660494678,-0.0763888894734557,0.279166685047782,-0.177150920033455,-1.6869044303894,-0.23273965716362
0,0.92083337364316,-0.0430555572111439,0.275000009398019,-0.283441483974457,-2.3246476650238,-0.127976268529892
0,0.926388941176177,0.0138888899621255,0.243055569018962,-0.520151734352112,-2.77088475227356,-0.0882700309157372
0,0.926388941176177,0.0138888899621255,0.243055569018962,-0.326507478952408,-4.01491165161133,-0.545808076858521
0,1.07222229717471,-0.130555557438704,0.17361112072783,-0.207694187760353,-4.29774236679077,-1.19699048995972
0,1.15416672379127,-0.0777777813567098,0.101388894748172,-0.520762622356415,-2.96269655227661,-0.961501896381378
0,1.23055558287482,-0.133333341205212,0.0583333375370279,-0.600480556488037,-2.28921747207642,-0.423024177551269
0,1.22638890722505,-0.198611113846581,0.0166666676506515,-0.485027015209198,-2.3591616153717,0.04764748737216
0,1.17638889667562,-0.177777784221628,-0.0625000010308258,-0.400422155857086,-2.25928521156311,0.636826992034912
0,1.16388896697405,-0.206944452990142,-0.118055554801345,-0.352774679660797,-2.46331405639648,0.808174729347229
0,1.18888892362491,-0.275000009398019,-0.13750000469901,-0.296269655227661,-1.88329756259918,0.526260435581207
0,1.18472224797515,-0.287500012035377,-0.158333334323963,-0.247094988822937,-1.17774820327759,0.269391566514969
0,1.18055557232538,-0.272222225631511,-0.186111123365188,-0.170431405305862,-0.659429013729095,0.449291378259659
0,1.12499999424293,-0.247222220356795,-0.200000005729836,-0.105374254286289,-0.780074894428253,0.399811297655106
0,1.0513889189259,-0.170833336961321,-0.204166669223633,-0.0448985956609249,-0.614835858345032,0.376903861761093
0,0.993055557076942,-0.10972222781375,-0.220833347510754,-0.0574213340878487,-1.10474979877472,0.0879645943641663
0,0.944444438410764,-0.0958333393711199,-0.243055569018962,-0.127670839428902,-1.16491997241974,-0.244956970214844
0,0.945833330294018,-0.0736111117849297,-0.230555566381603,-0.149967417120934,-0.610254406929016,0.140193566679955
0,0.965277816659576,-0.0875000002275597,-0.234722242031366,-0.180816113948822,-0.410501450300217,0.373849540948868
0,0.908333346693873,-0.125000002061652,-0.227777782615095,-0.236099421977997,-0.273362189531326,0.50182580947876
0,0.847222298326124,-0.193055558469529,-0.200000005729836,-0.257479697465897,-0.109344877302647,0.527176678180695
0,0.854166660494678,-0.20138889761309,-0.197222234119292,-0.400422155857086,0.514653980731964,0.544586360454559
0,0.955555573476797,-0.140277788465518,-0.202777789496344,-0.820697486400604,0.615752160549164,0.381790786981583
0,0.976388951725609,-0.0875000002275597,-0.223611131277262,-1.26082587242127,0.375987559556961,0.281303435564041
0,0.969444492309338,-0.0458333348996699,-0.279166685047782,-1.62184727191925,-0.0910189226269722,-0.0192422550171614
0,0.894444525109048,-0.106944444047242,-0.348611133338914,-1.39796507358551,-0.569937288761139,-0.0849102661013603
0,0.934722292475701,-0.130555557438704,-0.400000011459671,-0.426383942365646,0.601396858692169,0.22693644464016
0,1.0305556379248,-0.0888888921108138,-0.406944470875941,-0.194255143404007,0.532979905605316,0.29107728600502
0,1.01805561097552,-0.0416666683668809,-0.361111135976272,-0.335059583187103,1.00701141357422,0.616668462753296
0,0.944444438410764,-0.0638888929140799,-0.325000019947452,-0.507018148899078,1.2501357793808,0.791986763477325
0,0.884722281926269,-0.1194444466846,-0.250000004123303,-0.666453957557678,1.06046211719513,0.455705463886261
0,0.80277780668585,-0.193055558469529,-0.198611113846581,-0.997542917728424,0.605367481708527,-0.206777885556221
0,0.859722228027695,-0.208333344873396,-0.163888889701015,-1.2556334733963,0.540310323238373,-0.876286208629608
0,0.859722228027695,-0.208333344873396,-0.163888889701015,-1.2434161901474,0.896139323711395,-1.1734721660614
0,0.815277785011279,-0.252777787889811,-0.13750000469901,-0.376598417758942,2.70827102661133,-1.06809782981873
0,1.08055555122652,-0.244444460902216,-0.170833336961321,-0.718377530574799,2.96972131729126,-0.55527651309967
0,1.1083333888916,-0.116666675074056,-0.105555564319952,-0.367435455322266,1.00059723854065,-0.289855569601059
0,1.08750001064279,0.03194444645704,-0.0875000002275597,-0.336281329393387,1.10505521297455,0.301156580448151
0,1.08333333499303,0.0750000036681839,-0.104166672436698,0.0940732508897781,1.24830317497253,0.261144906282425
0,1.1236111996074,-0.287500012035377,0.0194444453391775,-0.0723875313997269,0.760832667350769,0.40164390206337
0,1.27361113400798,-0.0625000010308258,-0.0208333341834404,-0.233961388468742,0.79840087890625,0.239764615893364
0,1.22638890722505,0.202777789496344,-0.233333350148112,-0.167682513594627,0.53328537940979,0.087659165263176
0,1.08611111875954,0.0625000010308258,-0.0805555590452358,-0.162795588374138,0.308792382478714,0.0723875313997269
0,1.0333333244436,-0.0694444482911319,-0.0805555590452358,-0.207388743758202,0.0745255574584007,0.189062789082527
0,0.96666670854283,-0.134722233088466,-0.0194444453391775,-0.098960168659687,0.0778853222727776,0.0241291765123606
0,1.11805563207438,-0.10972222781375,-0.026388891079988,-0.0500909499824047,0.250760197639465,-0.133779495954514
0,1.07222229717471,-0.118055554801345,-0.0125000003581147,0.0458148941397667,0.344833433628082,-0.0959058403968811
0,0.986111194908388,-0.052777782159976,0.00694444498106275,0.0427605658769607,0.103847093880177,0.0729983970522881
0,0.961111141009813,-0.0986111170596459,0.0388888906783549,0.109650313854218,0.0302378293126821,0.131641462445259
0,1.04722224327614,-0.00833333382532574,-0.00694444498106275,0.00946841109544039,-0.300545692443848,0.108734011650086
0,1.01944450285877,-0.0583333375370279,-0.0152777788063885,0.175929188728332,-0.448069661855698,0.213802829384804
0,1.13750002119222,-0.052777782159976,-0.0638888929140799,0.123394779860973,0.228769034147263,1.07878804206848
0,1.28055559342425,-0.029166668768514,-0.0819444448505077,-0.128587126731873,0.642935693264008,2.3402247428894
0,1.21527786940674,-0.118055554801345,-0.0722222259796579,-0.0687223374843597,1.13193333148956,3.05249357223511
0,0.780555585177642,-0.25555557165632,0.00416666691266287,0.33292156457901,0.667981147766113,1.24891400337219
0,0.712500028769764,-0.319444452414435,0.118055554801345,-0.017409659922123,0.0128281703218818,0.140804439783096
0,0.916666697993398,-0.276388901281273,0.00555555575692586,-0.0189368221908808,0.242513507604599,0.156381502747536
0,0.98888888142718,-0.281944444502361,0.0125000003581147,-0.0956004112958908,0.107512280344963,0.0870482996106148
0,1.01111115155925,-0.277777793164528,0.0125000003581147,-0.167071640491486,-0.128281697630882,0.01191187184304
0,0.991666665193688,-0.286111120152123,0.00416666691266287,-0.116675265133381,-0.547640681266785,-0.584598064422607
0,0.841666730793107,-0.279166685047782,0.130555557438704,-0.162490159273148,-0.612392425537109,-0.907745778560638
0,0.865277795560711,-0.188888894975731,0.0777777813567098,-0.0186313893646002,-0.167071640491486,-0.10598511993885
0,1.16666675074056,-0.187500003092477,-0.055555559848502,0.0925460830330849,0.300545692443848,0.0552833043038845
0,1.18750003174166,-0.195833342236038,-0.0513888902767219,0.0839939713478088,0.408668845891953,0.148745685815811
0,1.08750001064279,-0.194444450352783,-0.030555557612777,0.100181899964809,0.241902634501457,0.248011291027069
0,1.10277782135859,-0.211111128639904,0.0708333340964038,0.11117747426033,0.0305432621389627,0.0980438739061356
0,0.99583334084345,-0.208333344873396,0.0944444474878658,0.133779495954514,-0.339335650205612,0.188757359981537
0,0.908333346693873,-0.162500009973726,0.0388888906783549,0.0794124826788902,-0.59162300825119,0.22754730284214
0,0.579166699720517,-0.259722222994153,-0.241666677135707,-0.67836582660675,1.03847086429596,1.15087008476257
0,0.773611125761372,-0.108333335930496,0.134722233088466,-0.0824668109416962,-0.183565005660057,1.25410640239716
0,1.46666671678944,-0.358333352209763,-0.033333335301303,-0.259006857872009,-0.0479529201984406,-0.171042263507843
0,1.25277785300688,-0.315277801076602,-0.105555564319952,-0.2379320114851,0.394618958234787,-0.0561996027827263
0,1.01388893532575,-0.25555557165632,0.224999998848587,0.388815730810165,-0.242208063602448,0.114537231624126
0,1.00000001649321,-0.25555557165632,-0.0125000003581147,-0.0748309940099716,-0.0470366254448891,0.166155353188515
0,1.05833337834217,-0.359722244093018,-0.0652777787193518,-0.108734011650086,0.195171445608139,-0.339946508407593
0,0.979166735492117,-0.266666682410424,-0.030555557612777,-0.186924770474434,0.349720358848572,-0.242208063602448
0,1.00000001649321,-0.269444466176932,0.0250000007162294,0.011606439948082,0.291993588209152,-0.0827722400426865
0,0.986111194908388,-0.270833333748257,-0.00833333382532574,-0.0311541277915239,0.434936046600342,-0.131336033344269
0,0.951388897827035,-0.275000009398019,-0.00833333382532574,-0.0103847095742822,0.381790786981583,-0.143858760595322
0,0.991666665193688,-0.261111114877407,0.029166668768514,-0.0913243517279625,0.349720358848572,-0.01588249579072
0,0.945833330294018,-0.279166685047782,0.0777777813567098,-0.135612085461616,0.171042263507843,-0.197004035115242
0,1.00972225967599,-0.281944444502361,0.055555559848502,-0.0458148941397667,0.11087204515934,-0.369268029928207
0,1.09722225382557,-0.248611112240049,0.055555559848502,-0.019547687843442,0.147523954510689,-0.320398807525635
0,1.11111117265811,-0.13750000469901,0.0736111117849297,-0.0177150927484035,-0.154243469238281,0.0183259565383196
0,1.04722224327614,-0.236111109602691,0.0250000007162294,0.029626963660121,0.0339030213654041,-0.0280998013913631
0,1.00833336779274,-0.236111109602691,0.03194444645704,-0.108734011650086,0.111788339912891,0.0149661982432008
0,0.98888888142718,-0.263888898643915,0.0736111117849297,0.0326812900602817,0.0287106670439243,0.0406225398182869
0,0.895833319744586,-0.298611122789481,0.111111119697004,0.209832206368446,-0.0684169083833694,-0.289550125598908
0,0.915277806110144,-0.25555557165632,0.0361111129898289,-0.0580321997404099,-0.152716308832169,-0.631329238414764
0,1.03888889197661,-0.226388890731841,0.0125000003581147,-0.0849102661013603,-0.0164933614432812,-0.0797179117798805
0,1.08472222687628,-0.258333331110899,0.0194444453391775,-0.0736092627048492,-0.161573857069016,-0.181426972150803
0,1.05694448645892,-0.223611131277262,0.029166668768514,-0.0409279726445675,-0.021685715764761,0.00183259579353034
0,1.01944450285877,-0.204166669223633,0.0472222237439329,-0.0360410511493683,0.114537231624126,0.0580321997404099
0,0.993055557076942,-0.247222220356795,0.029166668768514,-0.111482910811901,0.184175878763199,-0.0598647929728031
0,0.977777843608863,-0.233333350148112,0.0583333375370279,-0.0403171069920063,0.170736834406853,0.0763581544160843
0,0.93750007624221,-0.251388896006557,0.0750000036681839,0.0287106670439243,0.128587126731873,0.113315500319004
0,0.933333400592447,-0.250000004123303,0.0569444456537738,0.0177150927484035,0.0717766657471657,0.165544480085373
0,0.936111184358955,-0.251388896006557,0.0875000002275597,0.0653625801205635,-0.164322748780251,0.230296194553375
0,0.861111119910949,-0.229166674498349,0.0805555590452358,0.0784961804747581,-0.257479697465897,0.645073711872101
0,0.945833330294018,-0.266666682410424,0.0722222259796579,-0.03176499158144,-0.123394779860973,0.848186373710632
0,0.984722303025134,-0.275000009398019,0.0486111125881959,0.087659165263176,-0.0497855171561241,0.864679753780365
0,0.805555590452358,-0.275000009398019,0.0708333340964038,0.216246291995048,0.0763581544160843,1.1301007270813
0,0.713888920653019,-0.262500006760661,0.133333341205212,0.0830776765942574,-0.248927593231201,1.31000053882599
0,1.11527784830787,-0.408333338447267,-0.0152777788063885,-0.00122173049021512,-0.0940732508897781,0.218995183706284
0,1.32222225267416,-0.383333357484479,-0.0680555564078778,-0.134390354156494,0.436463207006455,-0.03176499158144
0,1.20972230187372,-0.356944460326509,0.00555555575692586,-0.0277943685650826,0.804509520530701,-0.11087204515934
0,1.06388894587519,-0.316666668647927,0.0902777839940679,0.104763388633728,0.664926826953888,-0.0497855171561241
0,1.02916674604155,-0.308333341660331,0.0791666671619817,0.115148097276688,0.485637873411179,-0.0226020142436027
0,0.958333357243305,-0.325000019947452,0.125000002061652,0.0464257597923279,0.147218525409698,-0.0565050356090069
0,0.952777789710289,-0.334722238818301,0.0986111170596459,-0.000610865245107561,0.0308486949652433,-0.0629191175103188
0,0.973611167959101,-0.331944455051793,0.116666675074056,-0.00610865233466029,0.0171042270958424,-0.0833831056952477
0,0.983333411141879,-0.318055560531181,0.0680555564078778,0.0549778714776039,0.0656680166721344,-0.0494800843298435
0,0.997222232726705,-0.312500017310094,0.0819444448505077,0.0675006061792374,0.105374254286289,-0.00244346098043024
0,0.98888888142718,-0.313888909193348,0.0944444474878658,0.0305432621389627,0.114842668175697,0.0571159012615681
0,0.99583334084345,-0.319444452414435,0.0708333340964038,-0.0192422550171614,0.22785273194313,0.00946841109544039
0,0.99583334084345,-0.319444452414435,0.0708333340964038,-0.0134390350431204,0.279165416955948,-0.00641408516094089
0,0.963888924776322,-0.318055560531181,0.0833333367337618,0.0757472887635231,0.0772744566202164,0.0604756586253643
0,0.961111141009813,-0.311111125426839,0.0902777839940679,0.113315500319004,0.213191971182823,0.0937678143382072
0,0.961111141009813,-0.311111125426839,0.0902777839940679,-0.0604756586253643,0.128587126731873,0.10048733651638
0,0.990277773310434,-0.327777779402031,0.10972222781375,-0.246484130620956,-0.0271835029125214,0.0381790772080422
0,0.976388951725609,-0.334722238818301,0.108333335930496,-0.191506251692772,0.0998764708638191,0.0360410511493683
0,0.956944465360051,-0.331944455051793,0.101388894748172,-0.0503963828086853,0.331088960170746,0.0131336031481624
0,1.00833336779274,-0.358333352209763,0.0930555616825939,-0.0668897479772568,0.235488548874855,-0.123089343309402
0,1.01527782720901,-0.356944460326509,0.12777778582816,-0.0610865242779255,0.129808858036995,-0.0995710343122482
0,0.94305554652751,-0.327777779402031,0.140277788465518,0.00488692196086049,0.160657554864883,0.0164933614432812
0,0.929166724942685,-0.308333341660331,0.130555557438704,0.0033597587607801,0.0540615729987621,-0.131641462445259
0,0.984722303025134,-0.322222236180943,0.106944444047242,0.0901026204228401,0.224798411130905,0.00244346098043024
0,0.82916670384382,-0.336111130701556,0.0972222251763917,0.0201585534960032,0.0842994004487991,0.0210748501121998
0,1.0125000434425,-0.370833354847121,0.1194444466846,0.0525344125926495,0.266642689704895,-0.0894917547702789
0,0.984722303025134,-0.361111135976272,0.130555557438704,0.0717766657471657,0.0616973899304867,-0.185703039169311
0,0.983333411141879,-0.331944455051793,0.133333341205212,0.103847093880177,0.143858760595322,-0.0229074470698834
0,0.972222276075846,-0.315277801076602,0.150000007336368,0.0916297882795334,0.182954147458077,-0.00641408516094089
0,0.99583334084345,-0.347222241455659,0.136111112815755,0.0690277740359306,0.339946508407593,-0.0949895456433296
0,1.00277780025972,-0.345833349572405,0.136111112815755,0.0754418596625328,0.37079519033432,-0.101709060370922
0,0.954166681593543,-0.331944455051793,0.14583334384257,0.0262672062963247,0.220216915011406,-0.0723875313997269
0,0.888888957576031,-0.355555568443255,0.163888889701015,-0.0280998013913631,0.0280998013913631,-0.288022965192795
0,0.934722292475701,-0.345833349572405,0.150000007336368,-0.0192422550171614,-0.102319926023483,-0.203112691640854
0,0.940277860008718,-0.306944449777077,0.163888889701015,0.112399205565453,-0.237321153283119,-0.127670839428902
0,0.962500032893068,-0.312500017310094,0.156944454596674,0.228158175945282,-0.523206055164337,-0.390342891216278
5,1.0333333244436,-0.327777779402031,0.16527778158427,0.252287358045578,-0.278249114751816,-0.0280998013913631
5,0.975000059842355,-0.295833339022973,0.12777778582816,0.162795588374138,-0.0956004112958908,0.0568104684352875
5,0.99583334084345,-0.279166685047782,0.14722222356986,0.0729983970522881,0.141720741987228,0.0626136884093285
5,1.01666671909226,-0.293055555256465,0.106944444047242,0.0308486949652433,0.455400049686432,0.0308486949652433
5,0.986111194908388,-0.254166679773066,0.105555564319952,0.0259617734700441,0.983493030071259,-0.0742201283574104
5,0.979166735492117,-0.288888903918631,0.118055554801345,-0.0332921557128429,1.29839408397675,-0.0616973899304867
5,0.963888924776322,-0.345833349572405,0.180555567988136,-0.081855945289135,0.774577140808105,0.23823744058609
5,0.915277806110144,-0.344444457689151,0.259722222994153,-0.381790786981583,-0.210443079471588,0.212581098079681
5,0.933333400592447,-0.315277801076602,0.226388890731841,-0.498466044664383,-0.700967848300934,-0.0390953756868839
5,0.930555616825939,-0.363888895430851,0.186111123365188,-0.445931643247604,-0.880562245845795,0.192422553896904
5,0.938888968125464,-0.234722242031366,0.156944454596674,-0.255036234855652,-1.27609753608704,0.01588249579072
5,1.06388894587519,-0.322222236180943,0.190277786858986,0.0271835029125214,-1.1389582157135,-0.0357356183230877
5,1.04722224327614,-0.334722238818301,0.122222230451108,-0.0033597587607801,-0.985325634479523,-0.0525344125926495
5,0.979166735492117,-0.305555557893823,0.1194444466846,-0.0381790772080422,-0.884227454662323,0.0852157026529312
5,0.940277860008718,-0.283333336385615,0.0805555590452358,-0.00641408516094089,-0.761748969554901,0.134084925055504
5,0.956944465360051,-0.309722233543585,0.105555564319952,0.16371189057827,-0.507323563098907,0.0201585534960032
5,1.03750000009336,-0.343055565805897,0.0888888921108138,0.0925460830330849,-0.19028452038765,-0.00794124789535999
5,0.876388930626744,-0.279166685047782,0.123611110178398,0.254425376653671,-0.568410098552704,0.207999616861343
5,0.973611167959101,-0.334722238818301,0.029166668768514,0.195171445608139,-0.589790403842926,0.109650313854218
5,1.06805562152495,-0.319444452414435,-0.184722231481934,-0.496633440256119,1.11605083942413,0.0641408488154411
5,0.991666665193688,-0.363888895430851,0.243055569018962,0.090408056974411,0.725402474403381,0.0113010071218014
5,0.92083337364316,-0.298611122789481,0.126388893944906,0.17440202832222,-0.215330004692078,0.0131336031481624
5,0.959722249126559,-0.327777779402031,0.0750000036681839,-0.0800233483314514,-0.0891863256692886,-0.0253509078174829
5,0.962500032893068,-0.331944455051793,0.0875000002275597,-0.000916297896765172,-0.335365027189255,-0.0623082555830479
5,1.00000001649321,-0.325000019947452,0.03194444645704,-0.0250454749912024,-0.096211276948452,-0.0262672062963247
5,0.970833384192592,-0.318055560531181,0.0916666697993398,-0.0635299831628799,-0.199752941727638,-0.0522289797663689
5,0.968055600426084,-0.304166666010569,0.0888888921108138,0.0265726372599602,-0.695775508880615,-0.0448985956609249
5,0.98888888142718,-0.315277801076602,0.0458333348996699,0.0430659987032413,-0.507018148899078,-0.00733038317412138
5,1.00972225967599,-0.327777779402031,0.00555555575692586,-0.08460483700037,-0.244346097111702,0.0131336031481624
5,1.02638896227504,-0.351388892793493,0.0250000007162294,0.00183259579353034,-0.0992656052112579,-0.0320704244077206
5,0.993055557076942,-0.315277801076602,0.0208333341834404,0.00580321997404099,-0.0574213340878487,-0.0183259565383196
5,0.945833330294018,-0.312500017310094,0.0958333393711199,0.145385921001434,-0.641103088855743,-0.0800233483314514
5,0.965277816659576,-0.320833344297689,0.0430555572111439,0.250760197639465,-0.597426235675812,0.00580321997404099
5,0.933333400592447,-0.309722233543585,-0.00416666691266287,0.195476874709129,-0.422413319349289,0.0949895456433296
5,0.962500032893068,-0.315277801076602,-0.0250000007162294,0.166766211390495,-0.284357786178589,0.0995710343122482
5,0.980555627375371,-0.325000019947452,-0.0111111115138517,0.11636982858181,-0.155159771442413,0.11606439948082
5,1.00694447590948,-0.343055565805897,-0.029166668768514,0.0937678143382072,-0.0143553335219622,0.0339030213654041
5,1.03194452980806,-0.336111130701556,-0.029166668768514,-0.0287106670439243,0.196698606014252,-0.0806342139840126
5,0.984722303025134,-0.322222236180943,0.00694444498106275,0.00794124789535999,0.0891863256692886,-0.0763581544160843
5,0.984722303025134,-0.320833344297689,0.00555555575692586,0.00519235478714108,0.0409279726445675,-0.0516181141138077
5,1.00694447590948,-0.331944455051793,-0.00277777787846293,0.0262672062963247,0.139277279376984,-0.0366519130766392
5,0.96666670854283,-0.316666668647927,0.03194444645704,0.0678060427308083,0.112093769013882,0.00702495034784079
5,0.96666670854283,-0.316666668647927,0.03194444645704,0.0714712366461754,0.0418442711234093,0.00427605677396059
5,0.955555573476797,-0.323611128064198,0.0180555564949145,0.0100792767480016,0.096211276948452,0.0045814891345799
5,0.983333411141879,-0.334722238818301,0.0111111115138517,0.087659165263176,0.0439822971820831,0.0314595587551594
5,0.983333411141879,-0.334722238818301,0.0111111115138517,-0.00397062394768,0.287412106990814,0.0778853222727776
5,1.01944450285877,-0.308333341660331,0.0111111115138517,0.0739146918058395,0.296880513429642,0.0403171069920063
5,1.00833336779274,-0.312500017310094,0.0152777788063885,0.0558941699564457,0.415082931518555,0.101709060370922
5,1.00833336779274,-0.312500017310094,0.0152777788063885,0.0394008085131645,0.34941491484642,0.0653625801205635
5,1.00138890837647,-0.308333341660331,0.0430555572111439,0.0870482996106148,0.28008171916008,-0.250149309635162
5,1.0361111082101,-0.375000006184955,0.0361111129898289,0.178372651338577,0.37568211555481,-0.0784961804747581
5,0.863888903677457,-0.261111114877407,0.1194444466846,0.453872889280319,0.0280998013913631,0.422107875347138
5,0.915277806110144,-0.180555567988136,0.0250000007162294,0.19028452038765,0.0406225398182869,0.349720358848572
5,1.02500007039179,-0.334722238818301,0.0583333375370279,0.210443079471588,-0.0729983970522881,0.120951317250729
5,0.983333411141879,-0.379166681834717,0.0416666683668809,0.192727982997894,-0.242208063602448,-0.04764748737216
5,0.984722303025134,-0.351388892793493,0.0638888929140799,0.214719131588936,-0.189368233084679,0.111482910811901
5,1.02083339474202,-0.344444457689151,-0.0444444460554069,-0.167377084493637,0.435546934604645,0.00366519158706069
5,1.03888889197661,-0.330555563168539,-0.0444444460554069,-0.0705549344420433,0.412334054708481,0.0302378293126821
5,0.965277816659576,-0.341666673922643,0.0222222230277034,-0.0781907513737679,0.525954961776733,0.158214092254639
5,0.947222222177272,-0.327777779402031,0.0583333375370279,0.0277943685650826,0.427911102771759,0.131641462445259
5,0.880555606276507,-0.33750002258481,0.104166672436698,0.113620936870575,0.144469633698463,0.120951317250729
5,0.894444525109048,-0.331944455051793,0.0583333375370279,0.0842994004487991,0.235793977975845,0.0177150927484035
5,1.02083339474202,-0.390277792588821,0.0541666679652478,0.0965167060494423,0.406530827283859,-0.118202425539494
5,0.991666665193688,-0.369444462963867,0.0708333340964038,0.0772744566202164,0.242208063602448,-0.0284052342176437
5,0.959722249126559,-0.348611133338914,0.116666675074056,0.0363464802503586,0.205861583352089,0.0503963828086853
5,0.934722292475701,-0.327777779402031,0.14722222356986,0.115453533828259,-0.00641408516094089,0.0952949747443199
5,0.916666697993398,-0.341666673922643,0.170833336961321,0.16920967400074,-0.0965167060494423,0.267864406108856
5,0.956944465360051,-0.33750002258481,0.170833336961321,0.0232128798961639,0.208305045962334,-0.245567828416824
5,1.15000004814151,-0.377777789951463,-0.0750000036681839,-0.0452040284872055,0.433408886194229,-0.24342979490757
5,0.96666670854283,-0.361111135976272,0.0916666697993398,-0.0616973899304867,0.0213802829384804,-0.00427605677396059
5,0.906944454810619,-0.354166676560001,0.197222234119292,0.208305045962334,-0.17440202832222,0.242513507604599
5,0.918055589876652,-0.334722238818301,0.206944452990142,0.229685336351395,-0.286495804786682,0.240986332297325
5,1.00972225967599,-0.375000006184955,0.0416666683668809,-0.0809396430850029,0.0027488935738802,0.0177150927484035
5,0.973611167959101,-0.398611119576417,0.140277788465518,0.176845490932465,-0.261755764484406,-0.119424156844616
5,0.96666670854283,-0.363888895430851,0.0916666697993398,0.0259617734700441,-0.0949895456433296,-0.0256563406437635
5,1.02083339474202,-0.380555573717971,0.03194444645704,-0.104763388633728,0.153938040137291,-0.0400116741657257
5,0.940277860008718,-0.344444457689151,0.118055554801345,0.102319926023483,-0.352469235658646,0.182954147458077
5,0.836111163260091,-0.323611128064198,0.277777793164528,0.29107728600502,-1.15025925636292,0.366213709115982
5,0.848611190209378,-0.319444452414435,0.052777782159976,-0.0400116741657257,-0.586736083030701,0.382096201181412
5,1.06805562152495,-0.397222227693163,0.0458333348996699,-0.0620028227567673,-0.307265222072601,0.108428582549095
5,0.861111119910949,-0.33750002258481,0.115277783190802,0.0546724386513233,-0.79381936788559,0.434936046600342
5,0.93750007624221,-0.368055571080613,0.033333335301303,-0.0742201283574104,-0.703411340713501,0.416304677724838
5,1.02777785415829,-0.420833365396554,0.0125000003581147,-0.00794124789535999,-0.44348818063736,0.214108273386955
5,1.03194452980806,-0.434722235605237,-0.0111111115138517,-0.0711658000946045,-0.156992360949516,0.0662788823246956
5,1.06805562152495,-0.424999992422458,-0.0125000003581147,-0.0858265683054924,0.169820532202721,-0.10048733651638
5,1.01805561097552,-0.404166687109433,0.0152777788063885,0.00427605677396059,0.187841057777405,-0.10567969083786
5,0.975000059842355,-0.358333352209763,0.00555555575692586,0.130419731140137,0.483499854803085,0.150578290224075
5,0.994444448960196,-0.358333352209763,0.00416666691266287,-0.0910189226269722,0.817337691783905,0.277638256549835
5,0.905555562927365,-0.391666684472075,0.101388894748172,-0.00855211354792118,0.221133217215538,0.173791155219078
5,0.890277849459286,-0.420833365396554,0.0652777787193518,-0.141415297985077,-0.0308486949652433,0.114537231624126
5,0.861111119910949,-0.415277797863537,0.0222222230277034,-0.246178686618805,0.096211276948452,0.133474051952362
5,0.92083337364316,-0.373611114301701,0.0583333375370279,-0.320704251527786,0.0525344125926495,0.192422553896904
5,0.972222276075846,-0.390277792588821,0.0708333340964038,-0.263893783092499,0.0452040284872055,0.171653136610985
5,0.94305554652751,-0.452777781463682,0.0972222251763917,-0.128281697630882,-0.0794124826788902,0.0555887371301651
5,0.933333400592447,-0.462500024646461,0.0902777839940679,-0.00549778714776039,-0.220522359013557,-0.0103847095742822
5,0.963888924776322,-0.430555559955475,0.03194444645704,0.0635299831628799,-0.142026171088219,-0.0109955742955208
5,0.956944465360051,-0.361111135976272,0.00138888893923146,0.152410879731178,0.0751364231109619,0.154548913240433
5,0.986111194908388,-0.441666695021508,0.108333335930496,0.333532422780991,-0.277638256549835,-0.0186313893646002
5,0.986111194908388,-0.441666695021508,0.108333335930496,0.119424156844616,-0.0164933614432812,-0.0222965814173222
5,0.965277816659576,-0.420833365396554,0.03194444645704,-0.118813291192055,0.0870482996106148,-0.0894917547702789
5,0.965277816659576,-0.420833365396554,0.03194444645704,-0.0302378293126821,0.266948103904724,-0.149967417120934
5,0.968055600426084,-0.411111122213775,0.0388888906783549,0.118202425539494,0.322231411933899,-0.102625362575054
5,0.933333400592447,-0.423611149163062,0.0680555564078778,-0.278249114751816,0.0610865242779255,-0.01191187184304
5,0.919444481759906,-0.581944483487025,-0.0111111115138517,-0.24862214922905,-0.248927593231201,-0.129197999835014
5,0.913888914226889,-0.363888895430851,0.0125000003581147,-0.0894917547702789,0.479529231786728,0.100792765617371
5,0.993055557076942,-0.388888900705567,0.0541666679652478,-0.16951510310173,0.330172657966614,0.109955742955208
5,0.934722292475701,-0.390277792588821,0.106944444047242,-0.10048733651638,-0.0241291765123606,0.0250454749912024
5,0.918055589876652,-0.459722240879953,0.166666673467524,0.109039448201656,-0.310319542884827,0.0201585534960032
5,0.952777789710289,-0.406944470875941,0.029166668768514,-0.00916297826915979,-0.0974330082535744,-0.0299323964864016
5,1.01944450285877,-0.415277797863537,0.0458333348996699,0.0109955742955208,0.0901026204228401,-0.08460483700037
5,0.991666665193688,-0.397222227693163,0.0486111125881959,-0.0461203269660473,0.0940732508897781,-0.0736092627048492
5,0.984722303025134,-0.380555573717971,0.0708333340964038,-0.0650571510195732,0.0329867228865623,-0.0421497002243996
5,1.01666671909226,-0.359722244093018,0.0916666697993398,-0.36529740691185,0.207999616861343,-0.145691365003586
5,0.962500032893068,-0.447222262554524,0.0916666697993398,-0.309708684682846,0.145691365003586,-0.116675265133381
5,0.923611157409668,-0.413888905980283,0.0111111115138517,-0.347582310438156,0.0940732508897781,-0.192117124795914
5,0.916666697993398,-0.361111135976272,0.0388888906783549,-0.218689754605293,0.184481307864189,-0.0299323964864016
5,0.915277806110144,-0.365277787314105,0.0666666706026059,-0.25961771607399,-0.0632245540618896,-0.0256563406437635
5,0.958333357243305,-0.380555573717971,0.0569444456537738,-0.101403631269932,0.126449108123779,-0.0394008085131645
5,0.925000049292922,-0.404166687109433,0.0763888894734557,-0.0540615729987621,-0.0885754600167274,-0.13225232064724
5,0.904166671044111,-0.444444478788016,0.0680555564078778,-0.0742201283574104,-0.317955374717712,-0.162184715270996
5,0.927777833059431,-0.427777776188966,0.0625000010308258,-0.163406446576118,-0.452345728874206,-0.244346097111702
5,0.93750007624221,-0.420833365396554,0.055555559848502,-0.26969701051712,-0.65484756231308,-0.321620553731918
5,0.927777833059431,-0.423611149163062,0.0513888902767219,-0.238848313689232,-0.79992800951004,-0.460286974906921
5,1.00555558402623,-0.391666684472075,-0.0222222230277034,-0.0290160998702049,-0.370184332132339,-0.342084527015686
5,1.1236111996074,-0.334722238818301,-0.118055554801345,0.187841057777405,0.766330420970917,-0.235488548874855
5,1.04861113515939,-0.333333346935047,-0.141666668192807,0.0632245540618896,0.982271313667297,-0.0256563406437635
5,0.973611167959101,-0.354166676560001,0.0388888906783549,0.131336033344269,0.889725208282471,0.123394779860973
5,0.894444525109048,-0.351388892793493,0.116666675074056,0.256257981061935,-0.22785273194313,0.232128798961639
5,0.847222298326124,-0.340277782039389,0.108333335930496,0.109039448201656,-0.452956587076187,0.0360410511493683
5,0.972222276075846,-0.375000006184955,0.0111111115138517,-0.212275668978691,-0.250149309635162,-0.103541657328606
5,0.979166735492117,-0.383333357484479,0.00972222266958873,-0.374765813350677,-0.109955742955208,-0.143553331494331
5,0.991666665193688,-0.397222227693163,0.0222222230277034,-0.248927593231201,-0.0650571510195732,-0.149356558918953
5,0.956944465360051,-0.406944470875941,0.0680555564078778,-0.03176499158144,-0.173485726118088,-0.146607652306557
5,0.940277860008718,-0.354166676560001,0.055555559848502,0.113010071218014,-0.22724187374115,-0.130725160241127
5,0.972222276075846,-0.352777784676747,0.0361111129898289,0.148134827613831,-0.181426972150803,-0.118507854640484
5,0.990277773310434,-0.351388892793493,0.0125000003581147,0.118507854640484,-0.138055548071861,-0.0827722400426865
5,0.98888888142718,-0.343055565805897,0.00277777787846293,0.113010071218014,-0.0595593601465225,-0.0256563406437635
5,0.956944465360051,-0.331944455051793,0.0486111125881959,0.0879645943641663,-0.331699818372726,-0.0925460830330849
5,0.983333411141879,-0.327777779402031,-0.026388891079988,0.0287106670439243,-0.211970239877701,-0.128281697630882
5,0.994444448960196,-0.33750002258481,-0.0416666683668809,-0.0427605658769607,-0.0653625801205635,-0.120951317250729
5,1.00555558402623,-0.351388892793493,-0.029166668768514,-0.134695783257484,0.163406446576118,-0.0604756586253643
5,0.983333411141879,-0.345833349572405,0.00972222266958873,-0.247705861926079,0.146913096308708,-0.037568211555481
5,0.938888968125464,-0.325000019947452,0.029166668768514,-0.259312301874161,0.0494800843298435,-0.0045814891345799
5,0.959722249126559,-0.338888890156135,0.00833333382532574,-0.160962998867035,0.0736092627048492,-0.0131336031481624
5,0.986111194908388,-0.366666679197359,0.0194444453391775,-0.0335975885391235,0.0598647929728031,-0.0525344125926495
5,0.991666665193688,-0.369444462963867,0.0125000003581147,0.00855211354792118,0.0561996027827263,-0.0858265683054924
5,0.962500032893068,-0.33750002258481,0.0430555572111439,0.00946841109544039,-0.155465200543404,-0.081855945289135
5,0.96666670854283,-0.315277801076602,0.00833333382532574,0.000916297896765172,-0.125532805919647,-0.0534507073462009
5,0.976388951725609,-0.322222236180943,0.0125000003581147,0.100181899964809,-0.0507018156349659,-0.0427605658769607
5,0.993055557076942,-0.336111130701556,0.00972222266958873,0.124921940267086,-0.0455094613134861,-0.0122173046693206
5,1.00277780025972,-0.352777784676747,-0.0111111115138517,0.210748508572578,0.0855211317539215,0.0717766657471657
5,0.98888888142718,-0.351388892793493,-0.0166666676506515,0.346971452236175,0.215024560689926,0.148440256714821
5,0.994444448960196,-0.340277782039389,0.00972222266958873,0.283441483974457,0.288633823394775,0.109039448201656
5,0.959722249126559,-0.343055565805897,0.0152777788063885,0.106901414692402,0.164322748780251,-0.0213802829384804
5,0.96666670854283,-0.348611133338914,0.00277777787846293,0.0229074470698834,0.170125976204872,-0.0280998013913631
5,0.968055600426084,-0.354166676560001,0.0138888899621255,-0.0436768643558025,0.165849909186363,-0.0513126812875271
5,0.979166735492117,-0.344444457689151,0.033333335301303,-0.05283984541893,0.147218525409698,-0.0455094613134861
5,0.979166735492117,-0.341666673922643,0.0402777795226179,-0.0372627787292004,0.115453533828259,-0.0540615729987621
5,0.96666670854283,-0.33750002258481,0.0388888906783549,0.00580321997404099,0.0647517144680023,-0.0378736443817616
5,0.96666670854283,-0.33750002258481,0.0388888906783549,0.013744467869401,0.0784961804747581,0.000916297896765172
5,0.959722249126559,-0.304166666010569,0.0500000014324589,0.101098194718361,-0.0613919571042061,0.0219911485910416
5,0.947222222177272,-0.325000019947452,0.052777782159976,0.129808858036995,-0.155770644545555,0.017409659922123
5,0.965277816659576,-0.336111130701556,0.0486111125881959,0.109039448201656,-0.160352125763893,0.0201585534960032
5,0.961111141009813,-0.350000000910239,0.0222222230277034,0.125838235020638,-0.22785273194313,0.000610865245107561
5,0.975000059842355,-0.370833354847121,0.0500000014324589,0.210137650370598,-0.242208063602448,-0.0671951770782471
5,0.963888924776322,-0.330555563168539,0.0250000007162294,-0.167377084493637,-0.0571159012615681,-0.00305432616733015
5,1.00277780025972,-0.323611128064198,-0.0152777788063885,-0.287717521190643,0.0754418596625328,0.070249505341053
5,1.01944450285877,-0.340277782039389,0.0680555564078778,0.0271835029125214,0.0152716310694814,-0.00702495034784079
5,0.983333411141879,-0.350000000910239,0.0458333348996699,0.0308486949652433,-0.0949895456433296,-0.0103847095742822
5,0.987499989543926,-0.341666673922643,0.0125000003581147,0.00855211354792118,-0.0427605658769607,-0.0140499006956816
5,0.983333411141879,-0.341666673922643,0.0111111115138517,-0.00885754637420177,0.000610865245107561,-0.00641408516094089
5,0.976388951725609,-0.33750002258481,0.0222222230277034,0.00610865233466029,-0.0485637858510017,0.00855211354792118
5,0.98888888142718,-0.343055565805897,0.0194444453391775,0.0384845100343227,-0.0467311926186085,0.0302378293126821
5,0.993055557076942,-0.350000000910239,0.0138888899621255,0.0210748501121998,0.0232128798961639,0.0256563406437635
5,0.983333411141879,-0.344444457689151,0.00416666691266287,0.0183259565383196,0.0326812900602817,0.0335975885391235
5,0.969444492309338,-0.347222241455659,0.0222222230277034,0.0146607663482428,-0.015577063895762,0.0253509078174829
5,0.959722249126559,-0.351388892793493,0.0250000007162294,0.0161879286170006,-0.0335975885391235,0.0332921557128429
5,0.959722249126559,-0.351388892793493,0.0166666676506515,0.0290160998702049,-0.0326812900602817,0.0180205255746841
5,0.968055600426084,-0.363888895430851,0.0111111115138517,0.0400116741657257,-0.0311541277915239,-0.00763581553474069
5,0.973611167959101,-0.361111135976272,0.0125000003581147,0.0595593601465225,-0.00702495034784079,-0.0164933614432812
5,0.963888924776322,-0.354166676560001,0.0152777788063885,0.0659734457731247,-0.0171042270958424,-0.0189368221908808
5,0.970833384192592,-0.344444457689151,0.0125000003581147,0.0638354197144508,-0.0232128798961639,-0.021685715764761
5,0.972222276075846,-0.341666673922643,0.0111111115138517,0.0623082555830479,-0.0448985956609249,-0.0131336031481624
5,0.976388951725609,-0.344444457689151,0.0125000003581147,0.0641408488154411,-0.058643065392971,0.00122173049021512
5,0.979166735492117,-0.33750002258481,0.0166666676506515,0.0580321997404099,-0.0500909499824047,0.0103847095742822
5,0.976388951725609,-0.33750002258481,0.0194444453391775,0.0598647929728031,-0.0485637858510017,0.0131336031481624
5,0.976388951725609,-0.33750002258481,0.0180555564949145,0.0555887371301651,-0.0400116741657257,0.0171042270958424
5,0.972222276075846,-0.344444457689151,0.0111111115138517,0.0549778714776039,-0.0479529201984406,0.0140499006956816
5,0.975000059842355,-0.347222241455659,0.0125000003581147,0.0620028227567673,-0.0577267669141293,-0.00152716308366507
5,0.973611167959101,-0.351388892793493,0.0125000003581147,0.0803287774324417,-0.0360410511493683,-0.0268780700862408
5,0.972222276075846,-0.362500003547597,0.0222222230277034,0.0956004112958908,-0.0418442711234093,-0.04764748737216
5,0.973611167959101,-0.355555568443255,0.0236111118719664,0.115758962929249,-0.0482583530247212,-0.0540615729987621
5,0.975000059842355,-0.351388892793493,0.033333335301303,0.131946891546249,-0.0565050356090069,-0.0592539273202419
5,0.977777843608863,-0.336111130701556,0.029166668768514,0.142331600189209,-0.0623082555830479,-0.0601702257990837
5,0.984722303025134,-0.323611128064198,0.029166668768514,0.146607652306557,-0.0604756586253643,-0.0610865242779255
5,0.997222232726705,-0.318055560531181,0.029166668768514,0.139582708477974,-0.0488692186772823,-0.0485637858510017
5,1.00138890837647,-0.312500017310094,0.0236111118719664,0.135001212358475,-0.0299323964864016,-0.0537561401724815
5,1.00555558402623,-0.308333341660331,0.0125000003581147,0.0971275717020035,-0.011606439948082,-0.0387899428606033
5,1.00138890837647,-0.308333341660331,0.0208333341834404,0.0766635909676552,0.0131336031481624,-0.0287106670439243
5,0.99583334084345,-0.301388906555989,0.0152777788063885,0.0442877300083637,0.0262672062963247,-0.0125227374956012
5,0.98888888142718,-0.308333341660331,0.0208333341834404,0.00244346098043024,0.0354301854968071,-0.00794124789535999
5,0.981944519258625,-0.312500017310094,0.0250000007162294,-0.0329867228865623,0.0381790772080422,0.00671951752156019
5,0.979166735492117,-0.322222236180943,0.0194444453391775,-0.0534507073462009,0.00794124789535999,0.00916297826915979
5,0.979166735492117,-0.334722238818301,0.0152777788063885,-0.0720821022987366,-0.0122173046693206,0.0140499006956816
5,0.977777843608863,-0.347222241455659,0.0152777788063885,-0.0583376325666905,0.00427605677396059,0.00671951752156019
5,0.977777843608863,-0.355555568443255,0.0125000003581147,-0.0543670058250427,0.027488935738802,-0.0198531206697226
5,0.973611167959101,-0.354166676560001,0.0250000007162294,-0.0464257597923279,0.0256563406437635,-0.0241291765123606
5,0.959722249126559,-0.358333352209763,0.0236111118719664,-0.0329867228865623,-0.00183259579353034,-0.0424551330506802
5,0.959722249126559,-0.351388892793493,0.030555557612777,-0.0152716310694814,-0.0323758572340012,-0.04764748737216
5,0.96666670854283,-0.344444457689151,0.03194444645704,-0.00763581553474069,-0.0558941699564457,-0.0406225398182869
5,0.973611167959101,-0.341666673922643,0.0250000007162294,0.00366519158706069,-0.0665843114256859,-0.0503963828086853
5,0.979166735492117,-0.33750002258481,0.0180555564949145,-0.00641408516094089,-0.0507018156349659,-0.0592539273202419
5,0.984722303025134,-0.329166671285285,0.0250000007162294,-0.0131336031481624,-0.0397062413394451,-0.0516181141138077
5,0.983333411141879,-0.331944455051793,0.027777779924251,-0.0161879286170006,-0.0400116741657257,-0.0363464802503586
5,0.980555627375371,-0.336111130701556,0.0236111118719664,-0.011606439948082,-0.0305432621389627,-0.0253509078174829
5,0.983333411141879,-0.341666673922643,0.030555557612777,-0.013744467869401,-0.0412334054708481,-0.0189368221908808
5,0.980555627375371,-0.341666673922643,0.0250000007162294,-0.000610865245107561,-0.0439822971820831,-0.0152716310694814
5,0.973611167959101,-0.33750002258481,0.03194444645704,0.00549778714776039,-0.0455094613134861,-0.015577063895762
5,0.965277816659576,-0.331944455051793,0.033333335301303,0.00152716308366507,-0.0766635909676552,0.00183259579353034
5,0.969444492309338,-0.334722238818301,0.0458333348996699,-0.00122173049021512,-0.109650313854218,0.00977384392172098
5,0.981944519258625,-0.351388892793493,0.03194444645704,0.00305432616733015,-0.113620936870575,0.0149661982432008
5,0.990277773310434,-0.359722244093018,0.0194444453391775,0.0299323964864016,-0.101709060370922,0.00824668072164059
5,0.984722303025134,-0.358333352209763,0.0194444453391775,0.0427605658769607,-0.0763581544160843,0.0131336031481624
5,0.977777843608863,-0.354166676560001,0.0194444453391775,0.0555887371301651,-0.0763581544160843,0.015577063895762
5,0.975000059842355,-0.351388892793493,0.0180555564949145,0.0558941699564457,-0.0827722400426865,0.00794124789535999
5,0.972222276075846,-0.352777784676747,0.0375000018340919,0.0626136884093285,-0.102625362575054,0.01191187184304
5,0.984722303025134,-0.343055565805897,0.029166668768514,0.0464257597923279,-0.114231802523136,0.0326812900602817
5,1.00000001649321,-0.350000000910239,0.03194444645704,0.0500909499824047,-0.109650313854218,0.0445931628346443
5,1.01388893532575,-0.358333352209763,0.0152777788063885,0.0555887371301651,-0.0729983970522881,0.0629191175103188
5,1.01527782720901,-0.363888895430851,0.00972222266958873,0.0739146918058395,-0.0647517144680023,0.0766635909676552
5,1.01527782720901,-0.368055571080613,0.00972222266958873,0.087659165263176,-0.0442877300083637,0.0931569486856461
5,1.0125000434425,-0.368055571080613,0.00694444498106275,0.0778853222727776,-0.019547687843442,0.124616511166096
5,1.01388893532575,-0.372222246730376,-0.00555555575692586,0.0879645943641663,-0.0149661982432008,0.167377084493637
5,1.02222228662528,-0.380555573717971,-0.00555555575692586,0.110566608607769,0.00122173049021512,0.204028993844986
5,1.02777785415829,-0.393055576355329,-0.00555555575692586,0.131946891546249,0.0241291765123606,0.240070044994354
5,1.02222228662528,-0.387500008822313,-0.00277777787846293,0.154243469238281,0.0913243517279625,0.261755764484406
5,1.0125000434425,-0.381944465601225,-0.00277777787846293,0.167377084493637,0.149356558918953,0.296880513429642
5,0.979166735492117,-0.381944465601225,-0.00277777787846293,0.159435823559761,0.186619326472282,0.329256355762482
5,0.958333357243305,-0.386111116939059,-0.00277777787846293,0.147218525409698,0.191811680793762,0.36987891793251
5,0.948611114060526,-0.388888900705567,0.00277777787846293,0.129197999835014,0.161573857069016,0.426078498363495
5,0.948611114060526,-0.388888900705567,0.00277777787846293,0.125227376818657,0.138055548071861,0.452956587076187
5,0.933333400592447,-0.400000011459671,0.00833333382532574,0.109955742955208,0.123394779860973,0.473726004362106
5,0.926388941176177,-0.401388903342925,0.00694444498106275,0.0797179117798805,0.0995710343122482,0.485637873411179
5,0.926388941176177,-0.401388903342925,0.00694444498106275,0.0571159012615681,0.122173048555851,0.474642306566238
5,0.905555562927365,-0.405555578992687,0.00277777787846293,0.0348193198442459,0.136528387665749,0.461203247308731
5,0.887500065692777,-0.401388903342925,0.00416666691266287,0.000305432622553781,0.135306656360626,0.443793594837189
5,0.887500065692777,-0.401388903342925,0.00416666691266287,-0.0442877300083637,0.12705996632576,0.394924372434616
5,0.893055633225794,-0.430555559955475,-0.00277777787846293,-0.0830776765942574,0.152716308832169,0.34941491484642
5,0.893055633225794,-0.430555559955475,-0.00277777787846293,-0.0907134860754013,0.207999616861343,0.309708684682846
5,0.898611103511094,-0.44861110581392,0.0111111115138517,-0.078801617026329,0.246484130620956,0.263282924890518
5,0.908333346693873,-0.461111132763207,0.00277777787846293,-0.0812450796365738,0.25870144367218,0.220216915011406
5,0.899999995394348,-0.466666700296224,0.00833333382532574,-0.104457959532738,0.234572261571884,0.204945296049118
5,0.894444525109048,-0.466666700296224,-0.00555555575692586,-0.106595985591412,0.228158175945282,0.189673662185669
5,0.901388887277602,-0.46527780841297,-0.00416666691266287,-0.0748309940099716,0.251981914043427,0.16951510310173
5,0.904166671044111,-0.456944457113445,-0.00416666691266287,-0.0687223374843597,0.27000242471695,0.151494577527046
5,0.908333346693873,-0.44583337067127,0.00694444498106275,-0.0974330082535744,0.235183119773865,0.156076073646545
5,0.895833319744586,-0.42916666807222,-0.00416666691266287,-0.178983509540558,0.133779495954514,0.160657554864883
5,0.893055633225794,-0.413888905980283,-0.00277777787846293,-0.252287358045578,0.0897971913218498,0.131030589342117
5,0.901388887277602,-0.406944470875941,0.00555555575692586,-0.302683740854263,0.113620936870575,0.0684169083833694
5,0.933333400592447,-0.397222227693163,0.0138888899621255,-0.363770246505737,0.146607652306557,0.0204639863222837
5,0.980555627375371,-0.405555578992687,0.0222222230277034,-0.420275300741196,0.170431405305862,-0.0384845100343227
5,1.00972225967599,-0.433333343721983,0.00972222266958873,-0.451429426670075,0.218078896403313,-0.0736092627048492
5,1.00972225967599,-0.473611111088636,0.00833333382532574,-0.461814135313034,0.253509074449539,-0.103541657328606
5,0.963888924776322,-0.504166683896369,0.0222222230277034,-0.394924372434616,0.176540061831474,-0.103236228227615
5,0.911111130460381,-0.519444445988306,0.0347222241455659,-0.310624986886978,0.0699440687894821,-0.106595985591412
5,0.870833363093728,-0.518055554105052,0.0430555572111439,-0.209832206368446,-0.0485637858510017,-0.05283984541893
5,0.877777822509998,-0.533333364820847,0.0416666683668809,-0.117286130785942,-0.0705549344420433,-0.0510072484612465
5,0.883333390043015,-0.531944472937593,0.0250000007162294,-0.00427605677396059,-0.0659734457731247,-0.0604756586253643
5,0.89722221162784,-0.525000013521323,0.026388891079988,0.0592539273202419,-0.0754418596625328,-0.0717766657471657
5,0.912500022343635,-0.509722251429385,0.0194444453391775,0.0986547395586967,-0.0855211317539215,-0.0800233483314514
5,0.92083337364316,-0.500000008246606,0.0194444453391775,0.108123145997524,-0.0968221426010132,-0.0784961804747581
5,0.944444438410764,-0.466666700296224,-0.00277777787846293,0.0995710343122482,-0.0372627787292004,-0.0690277740359306
5,0.95000000594378,-0.454166673346937,-0.0180555564949145,0.0763581544160843,0.0290160998702049,-0.0638354197144508
5,0.952777789710289,-0.456944457113445,-0.0194444453391775,0.0467311926186085,0.0983493030071259,-0.0510072484612465
5,0.954166681593543,-0.463888916529715,0.00277777787846293,0.0268780700862408,0.147523954510689,-0.0595593601465225
5,0.944444438410764,-0.466666700296224,0.00555555575692586,-0.0143553335219622,0.18539759516716,-0.0757472887635231
5,0.923611157409668,-0.459722240879953,0.0125000003581147,-0.0458148941397667,0.166766211390495,-0.0684169083833694
5,0.923611157409668,-0.456944457113445,0.029166668768514,-0.0510072484612465,0.13744467496872,-0.0675006061792374
5,0.916666697993398,-0.451388889580428,0.0402777795226179,-0.0907134860754013,0.182648703455925,-0.0696386396884918
5,0.930555616825939,-0.455555565230191,0.052777782159976,-0.0439822971820831,0.208305045962334,-0.103236228227615
5,0.926388941176177,-0.452777781463682,0.0625000010308258,-0.0464257597923279,0.168598800897598,-0.0720821022987366
5,0.938888968125464,-0.433333343721983,0.0583333375370279,-0.0445931628346443,0.200669229030609,-0.0723875313997269
5,0.956944465360051,-0.423611149163062,0.0416666683668809,-0.106290549039841,0.271529614925385,-0.0763581544160843
5,0.952777789710289,-0.434722235605237,0.0375000018340919,-0.147829383611679,0.294131606817245,-0.0940732508897781
5,0.930555616825939,-0.449999997697174,0.0513888902767219,-0.181732416152954,0.249233022332191,-0.0916297882795334
5,0.913888914226889,-0.452777781463682,0.0583333375370279,-0.199752941727638,0.203418120741844,-0.0974330082535744
5,0.906944454810619,-0.449999997697174,0.0708333340964038,-0.207999616861343,0.160962998867035,-0.118507854640484
5,0.92083337364316,-0.458333348996699,0.0708333340964038,-0.207083314657211,0.15851953625679,-0.119729585945606
5,0.93750007624221,-0.466666700296224,0.0722222259796579,-0.178067222237587,0.191506251692772,-0.119424156844616
5,0.947222222177272,-0.46527780841297,0.0722222259796579,-0.118507854640484,0.233961388468742,-0.134695783257484
5,0.933333400592447,-0.466666700296224,0.0708333340964038,-0.104457959532738,0.260228604078293,-0.147218525409698
5,0.92083337364316,-0.451388889580428,0.0847222225390337,-0.0986547395586967,0.229379892349243,-0.136833816766739
5,0.911111130460381,-0.441666695021508,0.10972222781375,-0.116980694234371,0.153938040137291,-0.120645888149738
5,0.913888914226889,-0.431944451838729,0.108333335930496,-0.123089343309402,0.101403631269932,-0.117896988987923
5,0.930555616825939,-0.426388884305712,0.0916666697993398,-0.134695783257484,0.0464257597923279,-0.107817716896534
5,0.95000000594378,-0.430555559955475,0.0902777839940679,-0.142942473292351,0.0726929605007172,-0.0959058403968811
5,0.955555573476797,-0.426388884305712,0.0833333367337618,-0.142942473292351,0.123394779860973,-0.0894917547702789
5,0.94305554652751,-0.4194444735133,0.0791666671619817,-0.148745685815811,0.146913096308708,-0.096211276948452
5,0.940277860008718,-0.418055581630046,0.0847222225390337,-0.161573857069016,0.154548913240433,-0.0934623852372169
5,0.925000049292922,-0.415277797863537,0.0972222251763917,-0.200669229030609,0.13225232064724,-0.0806342139840126
5,0.922222265526414,-0.416666689746791,0.108333335930496,-0.205556154251099,0.114842668175697,-0.0638354197144508
5,0.916666697993398,-0.426388884305712,0.111111119697004,-0.192422553896904,0.0418442711234093,-0.0635299831628799
5,0.933333400592447,-0.42916666807222,0.112499999424294,-0.161879286170006,-0.0293215326964855,-0.0604756586253643
5,0.944444438410764,-0.433333343721983,0.101388894748172,-0.137139245867729,-0.0113010071218014,-0.0430659987032413
5,0.956944465360051,-0.438888911254999,0.0916666697993398,-0.120340451598167,0.0448985956609249,-0.0403171069920063
5,0.947222222177272,-0.433333343721983,0.0930555616825939,-0.109344877302647,0.0794124826788902,-0.0525344125926495
5,0.940277860008718,-0.424999992422458,0.0972222251763917,-0.0995710343122482,0.0678060427308083,-0.0626136884093285
5,0.933333400592447,-0.420833365396554,0.0930555616825939,-0.0736092627048492,0.0540615729987621,-0.0757472887635231
5,0.936111184358955,-0.426388884305712,0.104166672436698,-0.0742201283574104,0.0516181141138077,-0.0821613743901253
5,0.948611114060526,-0.430555559955475,0.104166672436698,-0.0519235469400883,0.0445931628346443,-0.0812450796365738
5,0.94305554652751,-0.423611149163062,0.104166672436698,-0.0415388382971287,0.0574213340878487,-0.0696386396884918
5,0.93750007624221,-0.413888905980283,0.101388894748172,-0.0442877300083637,0.0543670058250427,-0.0739146918058395
5,0.93750007624221,-0.4194444735133,0.111111119697004,-0.0360410511493683,0.0418442711234093,-0.0647517144680023
5,0.944444438410764,-0.418055581630046,0.0972222251763917,-0.0339030213654041,0.0418442711234093,-0.0522289797663689
5,0.94305554652751,-0.420833365396554,0.0875000002275597,-0.0372627787292004,0.0555887371301651,-0.0671951770782471
5,0.941666654644256,-0.416666689746791,0.0902777839940679,-0.0299323964864016,0.0616973899304867,-0.0589484944939613
5,0.93750007624221,-0.423611149163062,0.0930555616825939,-0.0033597587607801,0.0491746515035629,-0.0534507073462009
5,0.938888968125464,-0.430555559955475,0.0986111170596459,0.0122173046693206,0.0397062413394451,-0.0561996027827263
5,0.934722292475701,-0.422222257279808,0.101388894748172,0.019547687843442,0.0348193198442459,-0.0516181141138077
5,0.934722292475701,-0.424999992422458,0.0972222251763917,0.0390953756868839,0.0204639863222837,-0.0320704244077206
5,0.93750007624221,-0.426388884305712,0.101388894748172,0.0610865242779255,-0.00122173049021512,-0.0305432621389627
5,0.94305554652751,-0.420833365396554,0.105555564319952,0.0736092627048492,0.0171042270958424,-0.00885754637420177
5,0.945833330294018,-0.415277797863537,0.101388894748172,0.0806342139840126,0.0146607663482428,-0.00977384392172098
5,0.944444438410764,-0.416666689746791,0.105555564319952,0.0977384373545647,0.0109955742955208,-0.0027488935738802
5,0.93750007624221,-0.411111122213775,0.111111119697004,0.102930791676045,-0.00916297826915979,0.00519235478714108
5,0.938888968125464,-0.406944470875941,0.105555564319952,0.110261179506779,-0.0287106670439243,0.0140499006956816
5,0.940277860008718,-0.404166687109433,0.104166672436698,0.115148097276688,-0.0464257597923279,0.0207694191485643
5,0.94305554652751,-0.406944470875941,0.0972222251763917,0.115758962929249,-0.04764748737216,0.0262672062963247
5,0.95000000594378,-0.404166687109433,0.104166672436698,0.118202425539494,-0.0320704244077206,0.0180205255746841
5,0.956944465360051,-0.400000011459671,0.0833333367337618,0.112399205565453,-0.00427605677396059,0.01588249579072
5,0.958333357243305,-0.404166687109433,0.0944444474878658,0.10048733651638,0.0335975885391235,-0.0152716310694814
5,0.959722249126559,-0.387500008822313,0.0875000002275597,0.0693332031369209,0.0479529201984406,-0.0186313893646002
5,0.95000000594378,-0.376388898068209,0.0763888894734557,0.0390953756868839,0.0464257597923279,-0.0387899428606033
5,0.959722249126559,-0.377777789951463,0.0819444448505077,0.0140499006956816,0.0589484944939613,-0.0543670058250427
5,0.959722249126559,-0.377777789951463,0.0819444448505077,-0.0161879286170006,0.0705549344420433,-0.0684169083833694
5,0.972222276075846,-0.373611114301701,0.0902777839940679,-0.0442877300083637,0.0940732508897781,-0.0598647929728031
5,0.96666670854283,-0.377777789951463,0.0875000002275597,-0.0497855171561241,0.0513126812875271,-0.0516181141138077
5,0.959722249126559,-0.386111116939059,0.0736111117849297,-0.0733038261532784,0.00183259579353034,-0.0241291765123606
5,0.973611167959101,-0.394444468238583,0.0750000036681839,-0.104152522981167,-0.00152716308366507,0.00641408516094089
5,0.975000059842355,-0.401388903342925,0.0736111117849297,-0.104152522981167,0.0189368221908808,0.0198531206697226
5,0.958333357243305,-0.420833365396554,0.0888888921108138,-0.0919352173805237,-0.0302378293126821,0.0378736443817616
5,0.94305554652751,-0.426388884305712,0.0875000002275597,-0.0604756586253643,-0.0891863256692886,0.0171042270958424
5,0.936111184358955,-0.430555559955475,0.0847222225390337,-0.0250454749912024,-0.119424156844616,-0.00305432616733015
5,0.93750007624221,-0.433333343721983,0.0763888894734557,0.00794124789535999,-0.165544480085373,-0.0143553335219622
5,0.945833330294018,-0.430555559955475,0.0694444482911319,0.0448985956609249,-0.139888137578964,-0.013744467869401
5,0.95000000594378,-0.413888905980283,0.055555559848502,0.0561996027827263,-0.116675265133381,0.00427605677396059
5,0.945833330294018,-0.406944470875941,0.0569444456537738,0.04764748737216,-0.114842668175697,0.00733038317412138
5,0.94305554652751,-0.405555578992687,0.052777782159976,0.0302378293126821,-0.098960168659687,0.00488692196086049
5,0.947222222177272,-0.413888905980283,0.055555559848502,0.0381790772080422,-0.0809396430850029,0.0103847095742822
5,0.951388897827035,-0.412500014097029,0.0569444456537738,0.0555887371301651,-0.0540615729987621,0.0033597587607801
5,0.955555573476797,-0.415277797863537,0.0597222233422998,0.0604756586253643,-0.0372627787292004,-0.00702495034784079
5,0.956944465360051,-0.406944470875941,0.0819444448505077,0.0595593601465225,-0.0372627787292004,-0.0103847095742822
5,0.956944465360051,-0.404166687109433,0.0736111117849297,0.0467311926186085,-0.027488935738802,-0.00366519158706069
5,0.956944465360051,-0.397222227693163,0.0736111117849297,0.0513126812875271,-0.0390953756868839,-0.0106901414692402
5,0.959722249126559,-0.398611119576417,0.0791666671619817,0.0540615729987621,-0.0284052342176437,-0.0241291765123606
5,0.952777789710289,-0.391666684472075,0.0708333340964038,0.0681114718317986,-0.0571159012615681,-0.015577063895762
5,0.951388897827035,-0.387500008822313,0.0750000036681839,0.0714712366461754,-0.0668897479772568,0.00671951752156019
5,0.956944465360051,-0.384722225055805,0.0680555564078778,0.0815505087375641,-0.070249505341053,0.0207694191485643
5,0.959722249126559,-0.386111116939059,0.0708333340964038,0.0885754600167274,-0.0729983970522881,0.0354301854968071
5,0.956944465360051,-0.386111116939059,0.0680555564078778,0.113010071218014,-0.0595593601465225,0.0442877300083637
5,0.959722249126559,-0.390277792588821,0.0750000036681839,0.131946891546249,-0.0537561401724815,0.0479529201984406
5,0.963888924776322,-0.386111116939059,0.0722222259796579,0.151494577527046,-0.0430659987032413,0.0531452745199203
5,0.961111141009813,-0.384722225055805,0.0722222259796579,0.181426972150803,-0.0384845100343227,0.0610865242779255
5,0.955555573476797,-0.373611114301701,0.0694444482911319,0.193338856101036,-0.0335975885391235,0.0739146918058395
5,0.959722249126559,-0.376388898068209,0.0819444448505077,0.199447497725487,-0.0415388382971287,0.0791070461273193
5,0.959722249126559,-0.376388898068209,0.0819444448505077,0.215940862894058,-0.0406225398182869,0.078801617026329
5,0.970833384192592,-0.390277792588821,0.0736111117849297,0.20616702735424,0.019547687843442,0.0638354197144508
5,0.961111141009813,-0.397222227693163,0.0777777813567098,0.197920337319374,0.011606439948082,0.0348193198442459
5,0.959722249126559,-0.387500008822313,0.0763888894734557,0.207999616861343,-0.0387899428606033,0.0235183127224445
5,0.959722249126559,-0.387500008822313,0.0763888894734557,0.17470745742321,-0.0656680166721344,0.01191187184304
5,0.959722249126559,-0.368055571080613,0.0638888929140799,0.154548913240433,-0.0623082555830479,0.0152716310694814
5,0.96666670854283,-0.373611114301701,0.0611111152255539,0.143247902393341,-0.0561996027827263,0.0271835029125214
5,0.96666670854283,-0.373611114301701,0.0611111152255539,0.136528387665749,-0.0500909499824047,0.0164933614432812
5,0.976388951725609,-0.384722225055805,0.0625000010308258,0.143553331494331,-0.0616973899304867,0.0109955742955208
5,0.970833384192592,-0.387500008822313,0.0722222259796579,0.119729585945606,-0.0653625801205635,-0.01588249579072
5,0.969444492309338,-0.388888900705567,0.0680555564078778,0.0916297882795334,-0.0916297882795334,-0.0280998013913631
5,0.962500032893068,-0.408333338447267,0.0819444448505077,0.0534507073462009,-0.16951510310173,-0.0555887371301651
5,0.952777789710289,-0.408333338447267,0.0805555590452358,0.0455094613134861,-0.213802829384804,-0.0448985956609249
5,0.94305554652751,-0.416666689746791,0.0833333367337618,0.0424551330506802,-0.265115529298782,-0.0189368221908808
5,0.926388941176177,-0.433333343721983,0.0750000036681839,0.0280998013913631,-0.289855569601059,0.0027488935738802
5,0.922222265526414,-0.443055586904762,0.0736111117849297,0.0580321997404099,-0.314290165901184,0.0351247526705265
5,0.915277806110144,-0.44861110581392,0.0694444482911319,0.0986547395586967,-0.309403240680695,0.0620028227567673
5,0.913888914226889,-0.452777781463682,0.0652777787193518,0.133779495954514,-0.286495804786682,0.0696386396884918
5,0.918055589876652,-0.447222262554524,0.0638888929140799,0.182037845253944,-0.249538451433182,0.0971275717020035
5,0.913888914226889,-0.441666695021508,0.029166668768514,0.181426972150803,-0.217468023300171,0.138055548071861
5,0.904166671044111,-0.422222257279808,0.0194444453391775,0.140499010682106,-0.156686931848526,0.171958565711975
5,0.895833319744586,-0.418055581630046,0.027777779924251,0.0940732508897781,-0.146913096308708,0.147523954510689
5,0.887500065692777,-0.416666689746791,0.0416666683668809,0.0473420582711697,-0.154548913240433,0.11117747426033
5,0.887500065692777,-0.44583337067127,0.055555559848502,0.0235183127224445,-0.156076073646545,0.0452040284872055
5,0.906944454810619,-0.480555570504907,0.0680555564078778,0.0305432621389627,-0.155770644545555,-0.0113010071218014
5,0.931944508709193,-0.480555570504907,0.033333335301303,0.0360410511493683,-0.0968221426010132,-0.0635299831628799
5,0.944444438410764,-0.480555570504907,0.0208333341834404,0.0537561401724815,-0.0482583530247212,-0.110566608607769
5,0.948611114060526,-0.472222219205382,0.0375000018340919,0.114537231624126,-0.0369573459029198,-0.158824965357781
5,0.956944465360051,-0.479166678621653,0.0486111125881959,0.178067222237587,-0.0378736443817616,-0.178067222237587
5,0.962500032893068,-0.470833327322128,0.0625000010308258,0.22204951941967,-0.0540615729987621,-0.165849909186363
5,0.965277816659576,-0.449999997697174,0.0625000010308258,0.268780708312988,-0.0387899428606033,-0.128892570734024
5,0.93750007624221,-0.418055581630046,0.055555559848502,0.281303435564041,-0.0122173046693206,-0.0916297882795334
5,0.927777833059431,-0.412500014097029,0.0569444456537738,0.236710280179977,-0.0152716310694814,-0.0488692186772823
5,0.904166671044111,-0.390277792588821,0.0597222233422998,0.213497400283814,-0.0861319974064827,-0.0675006061792374
5,0.905555562927365,-0.384722225055805,0.0486111125881959,0.170736834406853,-0.115453533828259,-0.0852157026529312
5,0.925000049292922,-0.384722225055805,0.0458333348996699,0.119729585945606,-0.0974330082535744,-0.107817716896534
5,0.981944519258625,-0.394444468238583,0.0513888902767219,0.0717766657471657,0.0293215326964855,-0.134695783257484
5,1.00000001649321,-0.398611119576417,0.0583333375370279,0.0500909499824047,0.118202425539494,-0.158824965357781
5,1.00555558402623,-0.401388903342925,0.0638888929140799,0.037568211555481,0.202196389436722,-0.167071640491486
5,1.00138890837647,-0.398611119576417,0.100000002864918,0.0152716310694814,0.234266817569733,-0.177761793136597
5,0.997222232726705,-0.391666684472075,0.105555564319952,0.015577063895762,0.217468023300171,-0.16401731967926
5,0.983333411141879,-0.384722225055805,0.111111119697004,-0.00671951752156019,0.193033412098885,-0.119424156844616
5,0.968055600426084,-0.373611114301701,0.10972222781375,-0.0662788823246956,0.127365410327911,-0.0409279726445675
5,0.962500032893068,-0.379166681834717,0.106944444047242,-0.0919352173805237,0.0681114718317986,0.0250454749912024
5,0.970833384192592,-0.400000011459671,0.112499999424294,-0.0693332031369209,0.0571159012615681,0.0647517144680023
5,0.96666670854283,-0.412500014097029,0.105555564319952,-0.0406225398182869,0.0781907513737679,0.0897971913218498
5,0.930555616825939,-0.411111122213775,0.101388894748172,-0.0262672062963247,0.0812450796365738,0.103847093880177
5,0.911111130460381,-0.404166687109433,0.104166672436698,-0.0192422550171614,0.0467311926186085,0.0995710343122482
5,0.893055633225794,-0.401388903342925,0.0958333393711199,-0.0299323964864016,-0.00152716308366507,0.0772744566202164
5,0.901388887277602,-0.408333338447267,0.0875000002275597,-0.0244346093386412,-0.0620028227567673,0.0461203269660473
5,0.926388941176177,-0.413888905980283,0.0833333367337618,-0.00733038317412138,-0.078801617026329,0.0027488935738802
5,0.926388941176177,-0.413888905980283,0.0833333367337618,-0.0244346093386412,-0.0366519130766392,-0.0207694191485643
5,0.952777789710289,-0.397222227693163,0.0847222225390337,-0.00702495034784079,-0.0106901414692402,-0.0406225398182869
5,0.952777789710289,-0.404166687109433,0.10972222781375,0.0045814891345799,-0.0351247526705265,-0.0491746515035629
5,0.952777789710289,-0.404166687109433,0.10972222781375,-0.0241291765123606,-0.114842668175697,-0.0403171069920063
5,1.0125000434425,-0.420833365396554,0.0986111170596459,0.0210748501121998,-0.175318330526352,-0.0302378293126821
5,1.05277781080915,-0.409722230330521,0.0583333375370279,0.0467311926186085,-0.142942473292351,-0.0180205255746841
5,1.05277781080915,-0.409722230330521,0.0583333375370279,0.0210748501121998,0.015577063895762,0.0268780700862408
5,1.05277781080915,-0.409722230330521,0.0583333375370279,0.0210748501121998,0.015577063895762,0.0268780700862408
5,1.00833336779274,-0.370833354847121,0.0625000010308258,-0.0488692186772823,0.282525181770325,0.146302223205566
5,0.931944508709193,-0.377777789951463,0.0902777839940679,-0.0922406539320946,0.175929188728332,0.234877690672875
5,0.894444525109048,-0.387500008822313,0.0986111170596459,-0.125838235020638,0.019547687843442,0.25870144367218
5,0.901388887277602,-0.413888905980283,0.0902777839940679,-0.124921940267086,-0.0146607663482428,0.241902634501457
5,0.912500022343635,-0.434722235605237,0.0569444456537738,-0.138360977172852,0.0656680166721344,0.195171445608139
5,0.912500022343635,-0.449999997697174,0.0583333375370279,-0.134084925055504,0.101403631269932,0.154548913240433
5,0.908333346693873,-0.449999997697174,0.0583333375370279,-0.10567969083786,0.0409279726445675,0.101098194718361
5,0.912500022343635,-0.437500019371745,0.0402777795226179,-0.109039448201656,0.0122173046693206,0.076052725315094
5,0.916666697993398,-0.438888911254999,0.0388888906783549,-0.0849102661013603,0.0253509078174829,0.0812450796365738
5,0.922222265526414,-0.443055586904762,0.0416666683668809,-0.0885754600167274,0.0390953756868839,0.0873537287116051
5,0.92083337364316,-0.449999997697174,0.052777782159976,-0.0671951770782471,0.0522289797663689,0.0952949747443199
5,0.922222265526414,-0.451388889580428,0.0611111152255539,-0.0290160998702049,0.0354301854968071,0.0897971913218498
5,0.926388941176177,-0.437500019371745,0.052777782159976,-0.0171042270958424,0.0180205255746841,0.0739146918058395
5,0.923611157409668,-0.433333343721983,0.0500000014324589,-0.0171042270958424,-0.011606439948082,0.0665843114256859
5,0.925000049292922,-0.424999992422458,0.0416666683668809,-0.0326812900602817,-0.0448985956609249,0.0650571510195732
5,0.934722292475701,-0.423611149163062,0.0430555572111439,-0.0491746515035629,-0.0409279726445675,0.0720821022987366
5,0.934722292475701,-0.424999992422458,0.0194444453391775,-0.0561996027827263,-0.0244346093386412,0.0739146918058395
5,0.936111184358955,-0.437500019371745,0.0402777795226179,-0.0583376325666905,-0.013744467869401,0.0678060427308083
5,0.926388941176177,-0.44583337067127,0.0416666683668809,-0.0613919571042061,-0.0109955742955208,0.0604756586253643
5,0.92083337364316,-0.449999997697174,0.0500000014324589,-0.0354301854968071,-0.00702495034784079,0.0186313893646002
5,0.92083337364316,-0.449999997697174,0.0500000014324589,-0.0143553335219622,-0.0387899428606033,-0.0253509078174829
5,0.944444438410764,-0.454166673346937,0.0500000014324589,0.00366519158706069,-0.0363464802503586,-0.0507018156349659
5,0.952777789710289,-0.443055586904762,0.0513888902767219,0.0045814891345799,0.021685715764761,-0.0733038261532784
5,0.952777789710289,-0.443055586904762,0.0513888902767219,0.000610865245107561,0.0207694191485643,-0.0629191175103188
5,0.94305554652751,-0.431944451838729,0.0375000018340919,-0.00977384392172098,0.00519235478714108,-0.0485637858510017
5,0.940277860008718,-0.434722235605237,0.0347222241455659,-0.017409659922123,-0.00397062394768,-0.0177150927484035
5,0.940277860008718,-0.434722235605237,0.0347222241455659,-0.0134390350431204,-0.0027488935738802,-0.0033597587607801
5,0.936111184358955,-0.441666695021508,0.0458333348996699,0.0021380283869803,-0.00519235478714108,0.00305432616733015
5,0.93750007624221,-0.441666695021508,0.0458333348996699,0.0122173046693206,-0.00580321997404099,0.00152716308366507
5,0.93750007624221,-0.441666695021508,0.0458333348996699,0.0122173046693206,-0.00580321997404099,0.00152716308366507
5,0.923611157409668,-0.451388889580428,0.0444444460554069,0.0287106670439243,-0.0458148941397667,0.0106901414692402
5,0.927777833059431,-0.452777781463682,0.0361111129898289,0.0409279726445675,-0.0500909499824047,0.00702495034784079
5,0.930555616825939,-0.449999997697174,0.0416666683668809,0.0372627787292004,-0.0412334054708481,-0.00305432616733015
5,0.936111184358955,-0.452777781463682,0.03194444645704,0.03176499158144,-0.0277943685650826,0.00183259579353034
5,0.941666654644256,-0.456944457113445,0.029166668768514,0.0421497002243996,-0.0146607663482428,-0.00885754637420177
5,0.940277860008718,-0.455555565230191,0.0388888906783549,0.0479529201984406,0.00122173049021512,-0.0140499006956816
5,0.94305554652751,-0.455555565230191,0.0388888906783549,0.0558941699564457,0.00824668072164059,-0.0311541277915239
5,0.934722292475701,-0.44583337067127,0.0486111125881959,0.0507018156349659,0.00855211354792118,-0.0378736443817616
5,0.925000049292922,-0.437500019371745,0.0472222237439329,0.0439822971820831,0.00244346098043024,-0.0366519130766392
5,0.929166724942685,-0.440277803138253,0.0583333375370279,0.0406225398182869,-0.00733038317412138,-0.0421497002243996
5,0.93750007624221,-0.433333343721983,0.055555559848502,0.0442877300083637,-0.0210748501121998,-0.0146607663482428
5,0.945833330294018,-0.430555559955475,0.0416666683668809,0.0381790772080422,-0.017409659922123,-0.00152716308366507
5,0.945833330294018,-0.426388884305712,0.0458333348996699,0.0262672062963247,-0.00519235478714108,0.00885754637420177
5,0.940277860008718,-0.426388884305712,0.055555559848502,0.0180205255746841,-0.01588249579072,0.0213802829384804
5,0.940277860008718,-0.42916666807222,0.0472222237439329,0.015577063895762,-0.0305432621389627,0.0241291765123606
5,0.94305554652751,-0.427777776188966,0.0486111125881959,0.0128281703218818,-0.0265726372599602,0.0204639863222837
5,0.93750007624221,-0.437500019371745,0.0416666683668809,0.0164933614432812,-0.0299323964864016,0.0232128798961639
5,0.940277860008718,-0.434722235605237,0.0444444460554069,0.0271835029125214,-0.0226020142436027,0.0109955742955208
5,0.938888968125464,-0.423611149163062,0.0486111125881959,0.0244346093386412,-0.00885754637420177,-0.000916297896765172
5,0.945833330294018,-0.42916666807222,0.0513888902767219,0.0277943685650826,-0.00397062394768,-0.0109955742955208
5,0.94305554652751,-0.433333343721983,0.0458333348996699,0.0284052342176437,0.0021380283869803,-0.0241291765123606
5,0.941666654644256,-0.424999992422458,0.0458333348996699,0.0302378293126821,0.00641408516094089,-0.0381790772080422
5,0.944444438410764,-0.42916666807222,0.0430555572111439,0.0235183127224445,0.0164933614432812,-0.0302378293126821
5,0.94305554652751,-0.424999992422458,0.0486111125881959,0.0180205255746841,0.00916297826915979,-0.0250454749912024
5,0.944444438410764,-0.420833365396554,0.0597222233422998,0.00671951752156019,0.017409659922123,-0.0213802829384804
5,0.947222222177272,-0.420833365396554,0.0541666679652478,0.00183259579353034,0.0164933614432812,-0.0226020142436027
5,0.944444438410764,-0.426388884305712,0.0458333348996699,-0.00763581553474069,0.0183259565383196,-0.0177150927484035
5,0.95000000594378,-0.426388884305712,0.0486111125881959,-0.0171042270958424,0.0320704244077206,-0.0192422550171614
5,0.94305554652751,-0.423611149163062,0.0583333375370279,-0.0351247526705265,0.0369573459029198,-0.0177150927484035
5,0.94305554652751,-0.423611149163062,0.0583333375370279,-0.0381790772080422,0.0287106670439243,-0.00885754637420177
5,0.940277860008718,-0.426388884305712,0.0583333375370279,-0.0363464802503586,0.0198531206697226,-0.0213802829384804
5,0.941666654644256,-0.422222257279808,0.0430555572111439,-0.0522289797663689,0.0400116741657257,-0.0198531206697226
5,0.94305554652751,-0.42916666807222,0.0513888902767219,-0.0595593601465225,0.0335975885391235,-0.0189368221908808
5,0.944444438410764,-0.433333343721983,0.0652777787193518,-0.0500909499824047,0.0442877300083637,-0.03176499158144
5,0.947222222177272,-0.427777776188966,0.0652777787193518,-0.0519235469400883,0.0519235469400883,-0.0253509078174829
5,0.945833330294018,-0.427777776188966,0.0611111152255539,-0.0592539273202419,0.0455094613134861,-0.0222965814173222
5,0.940277860008718,-0.42916666807222,0.055555559848502,-0.0598647929728031,0.0244346093386412,-0.02382374368608
5,0.93750007624221,-0.430555559955475,0.0486111125881959,-0.0620028227567673,0.0226020142436027,-0.0198531206697226
5,0.938888968125464,-0.427777776188966,0.055555559848502,-0.0500909499824047,0.0271835029125214,-0.0189368221908808
5,0.944444438410764,-0.424999992422458,0.0611111152255539,-0.0592539273202419,0.01588249579072,-0.00580321997404099
5,0.944444438410764,-0.426388884305712,0.0638888929140799,-0.0543670058250427,0.0113010071218014,-0.015577063895762
5,0.95000000594378,-0.426388884305712,0.0541666679652478,-0.0482583530247212,0.0226020142436027,-0.0192422550171614
5,0.948611114060526,-0.423611149163062,0.0513888902767219,-0.0485637858510017,0.0287106670439243,-0.0164933614432812
5,0.945833330294018,-0.423611149163062,0.055555559848502,-0.0482583530247212,0.021685715764761,-0.0232128798961639
5,0.941666654644256,-0.427777776188966,0.0569444456537738,-0.0458148941397667,0.00519235478714108,-0.0192422550171614
5,0.94305554652751,-0.426388884305712,0.0611111152255539,-0.0421497002243996,0.0122173046693206,-0.0171042270958424
5,0.944444438410764,-0.423611149163062,0.0625000010308258,-0.0381790772080422,0.0131336031481624,-0.0189368221908808
5,0.948611114060526,-0.4194444735133,0.0486111125881959,-0.0332921557128429,0.0192422550171614,-0.0244346093386412
5,0.947222222177272,-0.424999992422458,0.0583333375370279,-0.0400116741657257,0.0171042270958424,-0.01588249579072
5,0.95000000594378,-0.423611149163062,0.0625000010308258,-0.0390953756868839,0.00641408516094089,-0.0113010071218014
5,0.944444438410764,-0.426388884305712,0.0597222233422998,-0.0418442711234093,0.00183259579353034,-0.0109955742955208
5,0.940277860008718,-0.423611149163062,0.0513888902767219,-0.03176499158144,0.0021380283869803,-0.0109955742955208
5,0.947222222177272,-0.420833365396554,0.0625000010308258,-0.0287106670439243,0.0152716310694814,-0.00946841109544039
5,0.947222222177272,-0.422222257279808,0.055555559848502,-0.0177150927484035,0.00641408516094089,-0.0021380283869803
5,0.95000000594378,-0.420833365396554,0.0500000014324589,-0.00610865233466029,0.00519235478714108,-0.0033597587607801
5,0.94305554652751,-0.424999992422458,0.0458333348996699,-0.000610865245107561,0.000610865245107561,0.0027488935738802
5,0.94305554652751,-0.426388884305712,0.052777782159976,0.0109955742955208,-0.00916297826915979,-0.00427605677396059
5,0.936111184358955,-0.423611149163062,0.0611111152255539,0.0189368221908808,-0.0186313893646002,-0.00702495034784079
5,0.941666654644256,-0.430555559955475,0.0541666679652478,0.0284052342176437,-0.0204639863222837,-0.0045814891345799
5,0.948611114060526,-0.430555559955475,0.0541666679652478,0.0394008085131645,-0.000916297896765172,-0.0149661982432008
5,0.952777789710289,-0.42916666807222,0.0458333348996699,0.037568211555481,0.00824668072164059,-0.0171042270958424
5,0.95000000594378,-0.431944451838729,0.0486111125881959,0.0357356183230877,-0.00183259579353034,-0.0232128798961639
5,0.94305554652751,-0.430555559955475,0.0583333375370279,0.0442877300083637,0.0103847095742822,-0.0222965814173222
5,0.947222222177272,-0.42916666807222,0.055555559848502,0.0479529201984406,-0.00183259579353034,-0.02382374368608
5,0.947222222177272,-0.42916666807222,0.052777782159976,0.0455094613134861,0.00794124789535999,-0.0210748501121998
5,0.947222222177272,-0.430555559955475,0.0486111125881959,0.0461203269660473,0.01588249579072,-0.0299323964864016
5,0.940277860008718,-0.426388884305712,0.0541666679652478,0.0513126812875271,0.019547687843442,-0.0247400421649218
5,0.94305554652751,-0.424999992422458,0.0625000010308258,0.0607810914516449,0.0125227374956012,-0.0348193198442459
5,0.947222222177272,-0.427777776188966,0.0444444460554069,0.0571159012615681,0.0122173046693206,-0.0345138870179653
5,0.951388897827035,-0.426388884305712,0.0416666683668809,0.0598647929728031,0.0320704244077206,-0.0305432621389627
5,0.947222222177272,-0.430555559955475,0.0513888902767219,0.0598647929728031,0.0335975885391235,-0.0335975885391235
5,0.944444438410764,-0.424999992422458,0.0472222237439329,0.0616973899304867,0.0335975885391235,-0.0284052342176437
5,0.944444438410764,-0.427777776188966,0.0583333375370279,0.0592539273202419,0.037568211555481,-0.0372627787292004
5,0.94305554652751,-0.430555559955475,0.0500000014324589,0.0546724386513233,0.0335975885391235,-0.0412334054708481
5,0.940277860008718,-0.422222257279808,0.0541666679652478,0.0558941699564457,0.0335975885391235,-0.0363464802503586
5,0.940277860008718,-0.426388884305712,0.0652777787193518,0.0565050356090069,0.0287106670439243,-0.0381790772080422
5,0.94305554652751,-0.430555559955475,0.0625000010308258,0.0500909499824047,0.0201585534960032,-0.0323758572340012
5,0.941666654644256,-0.436111127488491,0.0513888902767219,0.0626136884093285,0.021685715764761,-0.0421497002243996
5,0.94305554652751,-0.436111127488491,0.052777782159976,0.0623082555830479,0.021685715764761,-0.0412334054708481
5,0.938888968125464,-0.436111127488491,0.055555559848502,0.0583376325666905,0.0284052342176437,-0.04764748737216
5,0.93750007624221,-0.433333343721983,0.0541666679652478,0.0534507073462009,0.0152716310694814,-0.0552833043038845
5,0.93750007624221,-0.426388884305712,0.0583333375370279,0.0558941699564457,0.00427605677396059,-0.0415388382971287
5,0.95000000594378,-0.422222257279808,0.0597222233422998,0.0464257597923279,-0.00977384392172098,-0.0207694191485643
5,0.95000000594378,-0.404166687109433,0.0680555564078778,0.0418442711234093,-0.0161879286170006,0.00244346098043024
5,0.955555573476797,-0.404166687109433,0.0777777813567098,0.0247400421649218,-0.011606439948082,0.0415388382971287
5,0.944444438410764,-0.400000011459671,0.0791666671619817,0.00733038317412138,-0.0458148941397667,0.0620028227567673
5,0.945833330294018,-0.400000011459671,0.0638888929140799,-0.0140499006956816,-0.0616973899304867,0.0824668109416962
5,0.95000000594378,-0.406944470875941,0.0513888902767219,-0.0305432621389627,-0.0516181141138077,0.0959058403968811
5,0.95000000594378,-0.406944470875941,0.0597222233422998,-0.0387899428606033,-0.04764748737216,0.0980438739061356
5,0.954166681593543,-0.411111122213775,0.0652777787193518,-0.0387899428606033,-0.0378736443817616,0.106595985591412
5,0.955555573476797,-0.415277797863537,0.0708333340964038,-0.0384845100343227,-0.0287106670439243,0.0946841165423393
5,0.954166681593543,-0.418055581630046,0.0583333375370279,-0.0415388382971287,-0.00885754637420177,0.0894917547702789
5,0.951388897827035,-0.4194444735133,0.0680555564078778,-0.0436768643558025,-0.000916297896765172,0.0662788823246956
5,0.947222222177272,-0.420833365396554,0.0680555564078778,-0.0461203269660473,-0.00610865233466029,0.0507018156349659
5,0.952777789710289,-0.420833365396554,0.0750000036681839,-0.03176499158144,-0.00122173049021512,0.0256563406437635
5,0.947222222177272,-0.423611149163062,0.0625000010308258,-0.0232128798961639,0.0143553335219622,0.017409659922123
5,0.948611114060526,-0.418055581630046,0.0694444482911319,-0.0134390350431204,0.0109955742955208,-0.00122173049021512
5,0.94305554652751,-0.4194444735133,0.0722222259796579,-0.0204639863222837,0.0204639863222837,-0.0125227374956012
5,0.944444438410764,-0.420833365396554,0.0736111117849297,-0.01191187184304,0.0192422550171614,-0.00152716308366507
5,0.944444438410764,-0.420833365396554,0.0736111117849297,-0.00763581553474069,0.0232128798961639,-0.0027488935738802
5,0.938888968125464,-0.426388884305712,0.0666666706026059,-0.017409659922123,0.021685715764761,-0.00427605677396059
5,0.938888968125464,-0.427777776188966,0.0722222259796579,-0.0128281703218818,0.0271835029125214,-0.0146607663482428
5,0.938888968125464,-0.427777776188966,0.0722222259796579,-0.0100792767480016,0.0314595587551594,-0.0180205255746841
5,0.940277860008718,-0.433333343721983,0.055555559848502,-0.00794124789535999,0.03176499158144,-0.0348193198442459
5,0.945833330294018,-0.440277803138253,0.0652777787193518,-0.00916297826915979,0.037568211555481,-0.0381790772080422
5,0.945833330294018,-0.440277803138253,0.0652777787193518,-0.00824668072164059,0.0387899428606033,-0.0513126812875271
5,0.941666654644256,-0.437500019371745,0.0638888929140799,-0.00671951752156019,0.0439822971820831,-0.0513126812875271
5,0.940277860008718,-0.437500019371745,0.0583333375370279,-0.00122173049021512,0.0479529201984406,-0.0656680166721344
5,0.940277860008718,-0.437500019371745,0.0583333375370279,0.00488692196086049,0.0412334054708481,-0.064446285367012
5,0.938888968125464,-0.433333343721983,0.0583333375370279,0.00397062394768,0.0442877300083637,-0.0623082555830479
5,0.93750007624221,-0.433333343721983,0.0583333375370279,0.00397062394768,0.0305432621389627,-0.0577267669141293
5,0.93750007624221,-0.433333343721983,0.0583333375370279,0.00671951752156019,0.0204639863222837,-0.037568211555481
5,0.940277860008718,-0.434722235605237,0.0638888929140799,0.0167987942695618,0.0244346093386412,-0.0445931628346443
5,0.94305554652751,-0.433333343721983,0.0583333375370279,0.00794124789535999,0.021685715764761,-0.0293215326964855
5,0.941666654644256,-0.427777776188966,0.0638888929140799,0.00427605677396059,0.0149661982432008,-0.0229074470698834
5,0.940277860008718,-0.426388884305712,0.0666666706026059,0.00641408516094089,0.00152716308366507,-0.00702495034784079
5,0.94305554652751,-0.426388884305712,0.0625000010308258,0.00488692196086049,0.0021380283869803,-0.00397062394768
5,0.945833330294018,-0.424999992422458,0.0597222233422998,0.0106901414692402,0.00824668072164059,-0.00549778714776039
5,0.944444438410764,-0.436111127488491,0.0722222259796579,0.0122173046693206,-0.0045814891345799,0.000610865245107561
5,0.947222222177272,-0.427777776188966,0.0708333340964038,0.0161879286170006,-0.00763581553474069,0.0128281703218818
5,0.947222222177272,-0.4194444735133,0.0652777787193518,0.0183259565383196,0.00122173049021512,0.0207694191485643
5,0.947222222177272,-0.418055581630046,0.0736111117849297,0.0201585534960032,-0.0177150927484035,0.0290160998702049
5,0.94305554652751,-0.413888905980283,0.0680555564078778,0.00977384392172098,-0.0345138870179653,0.0232128798961639
5,0.945833330294018,-0.415277797863537,0.0597222233422998,0.0146607663482428,-0.0253509078174829,0.029626963660121
5,0.95000000594378,-0.411111122213775,0.0583333375370279,0.0109955742955208,-0.00824668072164059,0.0186313893646002
5,0.948611114060526,-0.413888905980283,0.0652777787193518,0.00916297826915979,-0.0103847095742822,0.0201585534960032
5,0.938888968125464,-0.415277797863537,0.0611111152255539,0.00244346098043024,-0.00580321997404099,0.0302378293126821
5,0.947222222177272,-0.416666689746791,0.0625000010308258,-0.000916297896765172,-0.00397062394768,0.0198531206697226
5,0.945833330294018,-0.4194444735133,0.0583333375370279,0.013744467869401,0.0027488935738802,0.019547687843442
5,0.941666654644256,-0.420833365396554,0.0666666706026059,0.015577063895762,-0.0143553335219622,0.011606439948082
5,0.940277860008718,-0.4194444735133,0.0625000010308258,0.00763581553474069,-0.00977384392172098,0.00885754637420177
5,0.94305554652751,-0.4194444735133,0.0638888929140799,0.0149661982432008,-0.0045814891345799,0.0045814891345799
5,0.944444438410764,-0.420833365396554,0.0694444482911319,0.0143553335219622,-0.0146607663482428,0.00244346098043024
5,0.947222222177272,-0.422222257279808,0.0777777813567098,0.01588249579072,-0.0045814891345799,0.00549778714776039
5,0.947222222177272,-0.420833365396554,0.0680555564078778,0.00366519158706069,-0.00549778714776039,0.00305432616733015
5,0.94305554652751,-0.423611149163062,0.0666666706026059,0.00671951752156019,-0.00549778714776039,-0.00946841109544039
5,0.944444438410764,-0.420833365396554,0.0666666706026059,0.00427605677396059,-0.00641408516094089,-0.0045814891345799
5,0.945833330294018,-0.416666689746791,0.0722222259796579,-0.000305432622553781,0.000916297896765172,-0.00916297826915979
5,0.940277860008718,-0.423611149163062,0.0694444482911319,-0.0033597587607801,0.00152716308366507,-0.0164933614432812
5,0.944444438410764,-0.426388884305712,0.0652777787193518,0.00122173049021512,-0.00580321997404099,-0.0106901414692402
5,0.940277860008718,-0.423611149163062,0.0722222259796579,0.00549778714776039,-0.00305432616733015,-0.00946841109544039
5,0.947222222177272,-0.427777776188966,0.055555559848502,0.00152716308366507,-0.0033597587607801,-0.017409659922123
5,0.95000000594378,-0.426388884305712,0.0611111152255539,-0.00549778714776039,0.00824668072164059,-0.0183259565383196
5,0.940277860008718,-0.412500014097029,0.0625000010308258,-0.0164933614432812,-0.0244346093386412,-0.00397062394768
5,0.944444438410764,-0.416666689746791,0.0777777813567098,-0.0140499006956816,-0.0250454749912024,0.0149661982432008
5,0.956944465360051,-0.423611149163062,0.0625000010308258,-0.0103847095742822,0.0183259565383196,0.0134390350431204
5,0.941666654644256,-0.413888905980283,0.0722222259796579,-0.0409279726445675,0.00763581553474069,0.0241291765123606
5,0.913888914226889,-0.411111122213775,0.0875000002275597,-0.0571159012615681,-0.16371189057827,0.0781907513737679
5,0.94305554652751,-0.411111122213775,0.0750000036681839,-0.0650571510195732,-0.224492982029915,0.122783914208412
5,0.947222222177272,-0.426388884305712,0.0597222233422998,-0.0610865242779255,-0.0894917547702789,0.130114302039146
5,0.941666654644256,-0.440277803138253,0.0722222259796579,-0.027488935738802,-0.175929188728332,0.132863193750381
5,0.936111184358955,-0.437500019371745,0.055555559848502,-0.0549778714776039,-0.158214092254639,0.124005645513535
5,0.926388941176177,-0.441666695021508,0.052777782159976,-0.0806342139840126,-0.215940862894058,0.0708603709936142
5,0.954166681593543,-0.440277803138253,0.0194444453391775,-0.0824668109416962,-0.289550125598908,0.0891863256692886
5,0.993055557076942,-0.452777781463682,-0.030555557612777,-0.0201585534960032,0.0302378293126821,0.10048733651638
5,0.952777789710289,-0.472222219205382,-0.00972222266958873,-0.00366519158706069,0.17989981174469,0.132863193750381
5,0.890277849459286,-0.463888916529715,0.0569444456537738,0.0403171069920063,0.0345138870179653,0.213497400283814
5,0.923611157409668,-0.437500019371745,0.0625000010308258,0.0180205255746841,0.0103847095742822,0.107206851243973
5,0.89722221162784,-0.430555559955475,0.0388888906783549,-0.0308486949652433,-0.0497855171561241,0.0186313893646002
5,0.906944454810619,-0.472222219205382,0.0513888902767219,0.01191187184304,-0.136528387665749,-0.0167987942695618
5,0.940277860008718,-0.487500029921177,0.0194444453391775,0.0729983970522881,-0.160352125763893,-0.0100792767480016
5,0.969444492309338,-0.447222262554524,-0.00972222266958873,0.0778853222727776,0.0311541277915239,0.0140499006956816
5,0.970833384192592,-0.438888911254999,-0.0166666676506515,0.0372627787292004,0.128892570734024,-0.0222965814173222
5,0.947222222177272,-0.423611149163062,0.029166668768514,0.0394008085131645,0.101709060370922,-0.100792765617371
5,0.952777789710289,-0.413888905980283,0.03194444645704,0.02382374368608,0.0668897479772568,-0.143858760595322
5,0.952777789710289,-0.404166687109433,0.0361111129898289,-0.0323758572340012,0.12705996632576,-0.141415297985077
5,0.936111184358955,-0.391666684472075,0.0611111152255539,-0.0986547395586967,0.134084925055504,-0.0956004112958908
5,0.933333400592447,-0.397222227693163,0.0763888894734557,-0.143553331494331,0.0894917547702789,-0.0937678143382072
5,0.938888968125464,-0.406944470875941,0.0763888894734557,-0.157297804951668,0.0690277740359306,-0.102319926023483
5,0.947222222177272,-0.42916666807222,0.0722222259796579,-0.146607652306557,0.0809396430850029,-0.104763388633728
5,0.945833330294018,-0.430555559955475,0.0708333340964038,-0.159435823559761,0.130114302039146,-0.102625362575054
5,0.93750007624221,-0.436111127488491,0.0652777787193518,-0.153632611036301,0.124921940267086,-0.0742201283574104
5,0.933333400592447,-0.426388884305712,0.0625000010308258,-0.152410879731178,0.0949895456433296,-0.0366519130766392
5,0.929166724942685,-0.438888911254999,0.0666666706026059,-0.123089343309402,0.0778853222727776,-0.0219911485910416
5,0.922222265526414,-0.452777781463682,0.0708333340964038,-0.0522289797663689,0.0287106670439243,0.0143553335219622
5,0.922222265526414,-0.462500024646461,0.0777777813567098,0.02382374368608,-0.0629191175103188,0.0409279726445675
5,0.933333400592447,-0.46527780841297,0.0694444482911319,0.0751364231109619,-0.135306656360626,0.0452040284872055
5,0.95000000594378,-0.456944457113445,0.0430555572111439,0.100792765617371,-0.12705996632576,0.0390953756868839
5,0.954166681593543,-0.440277803138253,0.00972222266958873,0.087659165263176,-0.0271835029125214,0.0222965814173222
5,0.952777789710289,-0.411111122213775,0.0208333341834404,0.0708603709936142,0.0125227374956012,0.0113010071218014
5,0.948611114060526,-0.394444468238583,0.0222222230277034,0.00733038317412138,0.0213802829384804,0.0100792767480016
5,0.954166681593543,-0.380555573717971,0.0430555572111439,-0.0659734457731247,0.0277943685650826,0.019547687843442
5,0.959722249126559,-0.388888900705567,0.0416666683668809,-0.164933621883392,0.0806342139840126,0.0143553335219622
5,0.955555573476797,-0.400000011459671,0.0444444460554069,-0.225409269332886,0.109344877302647,0.00488692196086049
5,0.947222222177272,-0.406944470875941,0.0472222237439329,-0.271529614925385,0.0925460830330849,-0.00397062394768
5,0.94305554652751,-0.4194444735133,0.0388888906783549,-0.280692577362061,0.0852157026529312,0.00366519158706069
5,0.94305554652751,-0.434722235605237,0.0361111129898289,-0.28557950258255,0.116675265133381,0.00519235478714108
5,0.929166724942685,-0.466666700296224,0.0430555572111439,-0.275194793939591,0.107206851243973,0.00824668072164059
5,0.926388941176177,-0.486111138037923,0.0402777795226179,-0.23243422806263,0.0916297882795334,-0.00122173049021512
5,0.92083337364316,-0.487500029921177,0.0430555572111439,-0.173180297017098,0.100792765617371,-0.037568211555481
5,0.916666697993398,-0.487500029921177,0.0416666683668809,-0.124311074614525,0.0580321997404099,-0.0604756586253643
5,0.923611157409668,-0.473611111088636,0.03194444645704,-0.0919352173805237,-0.0134390350431204,-0.0574213340878487
5,0.947222222177272,-0.461111132763207,0.029166668768514,-0.0549778714776039,-0.0265726372599602,-0.0424551330506802
5,0.951388897827035,-0.456944457113445,0.0194444453391775,-0.0354301854968071,0.0604756586253643,-0.0131336031481624
5,0.951388897827035,-0.456944457113445,0.0194444453391775,-0.0247400421649218,0.0980438739061356,-0.00641408516094089
5,0.930555616825939,-0.44861110581392,0.027777779924251,-0.0357356183230877,0.0726929605007172,-0.0131336031481624
5,0.923611157409668,-0.44861110581392,0.0361111129898289,-0.029626963660121,0.0213802829384804,-0.0229074470698834
5,0.923611157409668,-0.44861110581392,0.0361111129898289,-0.029626963660121,0.0033597587607801,-0.021685715764761
5,0.95000000594378,-0.437500019371745,0.029166668768514,-0.0412334054708481,0.0326812900602817,-0.0143553335219622
5,0.94305554652751,-0.430555559955475,0.0250000007162294,-0.0427605658769607,0.0351247526705265,0.000305432622553781
5,0.94305554652751,-0.430555559955475,0.0250000007162294,-0.0531452745199203,0.00305432616733015,0.0180205255746841
5,0.933333400592447,-0.430555559955475,0.029166668768514,-0.0366519130766392,0.000916297896765172,0.00977384392172098
5,0.941666654644256,-0.443055586904762,0.0222222230277034,-0.0229074470698834,0.0131336031481624,0.00733038317412138
5,0.941666654644256,-0.443055586904762,0.0222222230277034,-0.0021380283869803,0.0314595587551594,-0.00183259579353034
5,0.938888968125464,-0.452777781463682,0.0166666676506515,0.0192422550171614,0.0125227374956012,-0.013744467869401
5,0.944444438410764,-0.459722240879953,0.0222222230277034,0.0442877300083637,0.0149661982432008,-0.0244346093386412
5,0.944444438410764,-0.456944457113445,0.0222222230277034,0.0675006061792374,0.0180205255746841,-0.0201585534960032
5,0.93750007624221,-0.452777781463682,0.0250000007162294,0.0638354197144508,0.0177150927484035,-0.0247400421649218
5,0.933333400592447,-0.440277803138253,0.0361111129898289,0.0775798857212067,0.0140499006956816,-0.0253509078174829
5,0.931944508709193,-0.440277803138253,0.0388888906783549,0.090408056974411,0.00244346098043024,-0.0271835029125214
5,0.936111184358955,-0.42916666807222,0.0472222237439329,0.0965167060494423,-0.0027488935738802,-0.0232128798961639
5,0.936111184358955,-0.437500019371745,0.0402777795226179,0.0873537287116051,-0.0302378293126821,-0.01588249579072
5,0.940277860008718,-0.44583337067127,0.0361111129898289,0.0870482996106148,-0.0271835029125214,-0.0268780700862408
5,0.948611114060526,-0.440277803138253,0.029166668768514,0.076052725315094,-0.01191187184304,-0.0164933614432812
5,0.952777789710289,-0.433333343721983,0.029166668768514,0.0687223374843597,0.00794124789535999,-0.000305432622553781
5,0.95000000594378,-0.430555559955475,0.0236111118719664,0.0662788823246956,0.0229074470698834,-0.000610865245107561
5,0.947222222177272,-0.422222257279808,0.027777779924251,0.0555887371301651,0.0424551330506802,0.000305432622553781
5,0.936111184358955,-0.42916666807222,0.0361111129898289,0.0467311926186085,0.0384845100343227,0.00397062394768
5,0.933333400592447,-0.426388884305712,0.0347222241455659,0.0473420582711697,0.0027488935738802,-0.0033597587607801
5,0.93750007624221,-0.42916666807222,0.0416666683668809,0.0500909499824047,-0.0293215326964855,-0.00366519158706069
5,0.940277860008718,-0.433333343721983,0.052777782159976,0.0497855171561241,-0.02382374368608,-0.00641408516094089
5,0.947222222177272,-0.427777776188966,0.0430555572111439,0.0488692186772823,-0.0171042270958424,-0.0109955742955208
5,0.94305554652751,-0.423611149163062,0.0388888906783549,0.0406225398182869,-0.0113010071218014,-0.0213802829384804
5,0.944444438410764,-0.427777776188966,0.0430555572111439,0.0253509078174829,-0.00244346098043024,-0.00702495034784079
5,0.947222222177272,-0.4194444735133,0.0347222241455659,0.000305432622553781,0.0299323964864016,-0.0106901414692402
5,0.948611114060526,-0.430555559955475,0.0388888906783549,-0.027488935738802,0.0510072484612465,-0.00946841109544039
5,0.947222222177272,-0.420833365396554,0.0472222237439329,-0.0424551330506802,0.0522289797663689,-0.00641408516094089
5,0.941666654644256,-0.418055581630046,0.0625000010308258,-0.058643065392971,0.00610865233466029,-0.0033597587607801
5,0.931944508709193,-0.416666689746791,0.0611111152255539,-0.0595593601465225,-0.0372627787292004,-0.000305432622553781
5,0.940277860008718,-0.426388884305712,0.0444444460554069,-0.0766635909676552,-0.03176499158144,0.000916297896765172
5,0.94305554652751,-0.430555559955475,0.0361111129898289,-0.0720821022987366,0.0226020142436027,0.0045814891345799
5,0.947222222177272,-0.433333343721983,0.0250000007162294,-0.0372627787292004,0.0540615729987621,0.00855211354792118
5,0.92083337364316,-0.449999997697174,0.0611111152255539,0.0100792767480016,0.0207694191485643,0.00580321997404099
5,0.916666697993398,-0.462500024646461,0.0694444482911319,0.0571159012615681,-0.0448985956609249,0.0131336031481624
5,0.916666697993398,-0.466666700296224,0.0722222259796579,0.10048733651638,-0.0781907513737679,0.00733038317412138
5,0.926388941176177,-0.473611111088636,0.0666666706026059,0.160352125763893,-0.0852157026529312,-0.00641408516094089
5,0.927777833059431,-0.47500000297189,0.0666666706026059,0.218384325504303,-0.0968221426010132,0.000916297896765172
5,0.925000049292922,-0.473611111088636,0.0583333375370279,0.255036234855652,-0.10048733651638,-0.0146607663482428
5,0.922222265526414,-0.469444484062732,0.0500000014324589,0.299323976039886,-0.0943786799907684,-0.0207694191485643
5,0.930555616825939,-0.452777781463682,0.0513888902767219,0.311846703290939,-0.11087204515934,-0.0204639863222837
5,0.936111184358955,-0.447222262554524,0.0638888929140799,0.327118337154388,-0.121867619454861,-0.0207694191485643
5,0.94305554652751,-0.430555559955475,0.0625000010308258,0.31703907251358,-0.128892570734024,-0.0299323964864016
5,0.940277860008718,-0.423611149163062,0.0569444456537738,0.299934834241867,-0.11087204515934,-0.0409279726445675
5,0.934722292475701,-0.422222257279808,0.0625000010308258,0.300240278244019,-0.149661988019943,-0.0470366254448891
5,0.951388897827035,-0.420833365396554,0.0597222233422998,0.293215304613113,-0.169820532202721,-0.0448985956609249
5,0.965277816659576,-0.413888905980283,0.0416666683668809,0.273667633533478,-0.12705996632576,-0.0516181141138077
5,0.973611167959101,-0.390277792588821,0.0361111129898289,0.229379892349243,-0.0882700309157372,-0.0387899428606033
5,0.969444492309338,-0.368055571080613,0.029166668768514,0.157908663153648,-0.0409279726445675,-0.0125227374956012
5,0.96666670854283,-0.356944460326509,0.0250000007162294,0.0925460830330849,-0.0180205255746841,0.0192422550171614
5,0.968055600426084,-0.358333352209763,0.029166668768514,0.00671951752156019,-0.000916297896765172,0.0219911485910416
5,0.959722249126559,-0.369444462963867,0.026388891079988,-0.0598647929728031,0.0250454749912024,0.0323758572340012
5,0.947222222177272,-0.391666684472075,0.0361111129898289,-0.0952949747443199,0.0412334054708481,0.013744467869401
5,0.938888968125464,-0.408333338447267,0.0375000018340919,-0.13225232064724,0.0314595587551594,-0.00427605677396059
5,0.93750007624221,-0.424999992422458,0.0430555572111439,-0.140193566679955,0.0241291765123606,-0.0259617734700441
5,0.94305554652751,-0.438888911254999,0.0416666683668809,-0.121867619454861,0.0152716310694814,-0.0268780700862408
5,0.947222222177272,-0.447222262554524,0.03194444645704,-0.10567969083786,-0.000305432622553781,-0.0366519130766392
5,0.938888968125464,-0.44861110581392,0.0388888906783549,-0.0687223374843597,-0.000916297896765172,-0.0167987942695618
5,0.93750007624221,-0.443055586904762,0.0486111125881959,-0.0424551330506802,-0.0033597587607801,-0.0109955742955208
5,0.934722292475701,-0.433333343721983,0.0486111125881959,-0.0314595587551594,-0.00488692196086049,-0.00122173049021512
5,0.934722292475701,-0.437500019371745,0.0500000014324589,-0.0027488935738802,-0.0342084541916847,0.0189368221908808
5,0.941666654644256,-0.433333343721983,0.0472222237439329,0.00702495034784079,-0.0497855171561241,0.0146607663482428
5,0.940277860008718,-0.433333343721983,0.0361111129898289,0.0259617734700441,-0.0482583530247212,0.0250454749912024
5,0.941666654644256,-0.440277803138253,0.0388888906783549,0.0342084541916847,-0.0381790772080422,0.0232128798961639
5,0.944444438410764,-0.440277803138253,0.0513888902767219,0.0473420582711697,-0.0458148941397667,0.0186313893646002
5,0.94305554652751,-0.437500019371745,0.0513888902767219,0.0623082555830479,-0.0610865242779255,0.000610865245107561
5,0.951388897827035,-0.433333343721983,0.0472222237439329,0.0503963828086853,-0.0595593601465225,-0.00580321997404099
5,0.951388897827035,-0.411111122213775,0.0361111129898289,0.00183259579353034,-0.0363464802503586,-0.0100792767480016
5,0.954166681593543,-0.397222227693163,0.0250000007162294,-0.0397062413394451,0.00824668072164059,-0.00733038317412138
5,0.947222222177272,-0.394444468238583,0.03194444645704,-0.0662788823246956,0.0213802829384804,0.00946841109544039
5,0.947222222177272,-0.405555578992687,0.0444444460554069,-0.078801617026329,0.0226020142436027,0.0244346093386412
5,0.945833330294018,-0.415277797863537,0.03194444645704,-0.0894917547702789,0.0287106670439243,0.0201585534960032
5,0.940277860008718,-0.423611149163062,0.0416666683668809,-0.0714712366461754,0.019547687843442,0.00580321997404099
5,0.93750007624221,-0.437500019371745,0.0458333348996699,-0.0461203269660473,0.00977384392172098,-0.00305432616733015
5,0.938888968125464,-0.440277803138253,0.0472222237439329,-0.01191187184304,0.00305432616733015,-0.0113010071218014
5,0.940277860008718,-0.443055586904762,0.055555559848502,0.01191187184304,0.00641408516094089,-0.0250454749912024
5,0.94305554652751,-0.438888911254999,0.0416666683668809,0.0284052342176437,-0.0180205255746841,-0.0378736443817616
5,0.944444438410764,-0.42916666807222,0.0250000007162294,0.0442877300083637,-0.0186313893646002,-0.0342084541916847
5,0.95000000594378,-0.427777776188966,0.0361111129898289,0.0433714315295219,0.0131336031481624,-0.0381790772080422
5,0.955555573476797,-0.424999992422458,0.0430555572111439,0.0546724386513233,0.0210748501121998,-0.0427605658769607
5,0.945833330294018,-0.413888905980283,0.0430555572111439,0.0613919571042061,0.0192422550171614,-0.0335975885391235
