Activity,acc_x,acc_y,acc_z,gyro_x,gyro_y,gyro_z
0,0.487500029921177,-0.00555555575692586,0.872222254976982,-0.0598647929728031,0.0537561401724815,-0.0568104684352875
0,0.486111138037923,-0.00833333382532574,0.884722281926269,-0.0522289797663689,0.0329867228865623,-0.0491746515035629
0,0.486111138037923,-0.00972222266958873,0.880555606276507,-0.0226020142436027,0.0287106670439243,-0.0271835029125214
0,0.493055597454194,-0.0152777788063885,0.884722281926269,-0.00427605677396059,0.0293215326964855,-0.0345138870179653
0,0.490277813687686,-0.0138888899621255,0.893055633225794,-0.0152716310694814,-0.0180205255746841,-0.0250454749912024
0,0.488888921804431,-0.0208333341834404,0.886111173809523,-0.0778853222727776,-0.0485637858510017,-0.00152716308366507
0,0.469444484062732,-0.0194444453391775,0.879166714393253,-0.0980438739061356,-0.158214092254639,0.0510072484612465
0,0.484722246154669,-0.0194444453391775,0.893055633225794,-0.0235183127224445,-0.15851953625679,0.0348193198442459
0,0.502777792013115,-0.0152777788063885,0.877777822509998,0.109955742955208,-0.000916297896765172,-0.00671951752156019
0,0.502777792013115,-0.0152777788063885,0.877777822509998,0.11087204515934,-0.00580321997404099,-0.00855211354792118
0,0.493055597454194,-0.0152777788063885,0.865277795560711,0.0620028227567673,-0.142026171088219,0.0256563406437635
0,0.504166683896369,-0.00972222266958873,0.870833363093728,0.0549778714776039,-0.193644285202026,0.021685715764761
0,0.515277818962402,-0.00694444498106275,0.866666687443965,-0.0314595587551594,-0.0632245540618896,-0.0558941699564457
0,0.511111143312639,-0.00694444498106275,0.856944444261187,-0.0277943685650826,0.0369573459029198,-0.0729983970522881
0,0.497222224480098,-0.00833333382532574,0.870833363093728,-0.013744467869401,0.00488692196086049,-0.130725160241127
0,0.49166670557094,-0.0125000003581147,0.870833363093728,-0.0125227374956012,-0.16401731967926,-0.103236228227615
0,0.516666662221798,-0.0125000003581147,0.870833363093728,0.0226020142436027,-0.152105450630188,-0.0693332031369209
0,0.516666662221798,-0.0125000003581147,0.870833363093728,0.0641408488154411,-0.0329867228865623,-0.0891863256692886
0,0.52083333787156,-0.00277777787846293,0.848611190209378,0.0256563406437635,0.0507018156349659,-0.096211276948452
0,0.509722251429385,-0.00833333382532574,0.849999984844916,-0.0452040284872055,-0.0342084541916847,-0.0464257597923279
0,0.505555575779623,-0.0111111115138517,0.858333336144441,-0.0849102661013603,-0.120951317250729,-0.00549778714776039
0,0.506944467662877,-0.00972222266958873,0.849999984844916,-0.0839939713478088,-0.058643065392971,-0.00519235478714108
0,0.516666662221798,-0.0111111115138517,0.858333336144441,-0.0525344125926495,-0.01588249579072,-0.00519235478714108
0,0.513888927079148,-0.00972222266958873,0.849999984844916,-0.0537561401724815,-0.0308486949652433,0.0027488935738802
0,0.509722251429385,-0.0180555564949145,0.86805557932722,-0.0268780700862408,-0.163101017475128,0.0021380283869803
0,0.476388894855144,-0.0208333341834404,0.89722221162784,0.129197999835014,-0.171042263507843,0.191811680793762
0,0.47500000297189,-0.00972222266958873,0.859722228027695,0.0757472887635231,-0.306348919868469,0.212275668978691
0,0.47500000297189,-0.00972222266958873,0.859722228027695,0.0415388382971287,-0.309403240680695,0.175929188728332
0,0.52083333787156,-0.0430555572111439,0.82916670384382,-0.013744467869401,-0.307265222072601,0.267558991909027
0,0.525000013521323,-0.052777782159976,0.858333336144441,0.0332921557128429,-0.414166629314423,0.351247519254685
0,0.534722256704101,-0.033333335301303,0.89722221162784,0.191811680793762,-0.429438263177872,0.380569040775299
0,0.577777807837263,-0.00972222266958873,0.894444525109048,0.367740869522095,-0.313984721899033,0.253203630447388
0,0.58333337537028,-0.00972222266958873,0.865277795560711,0.384234249591827,-0.0681114718317986,0.0290160998702049
0,0.556944478212309,0.0361111129898289,0.854166660494678,0.229685336351395,0.435852348804474,-0.264504641294479
0,0.502777792013115,0.0694444482911319,0.855555552377932,0.0277943685650826,0.443793594837189,-0.281303435564041
0,0.481944462388161,0.0250000007162294,0.841666730793107,-0.197920337319374,0.337197601795196,-0.28496864438057
0,0.588888894279438,-0.00277777787846293,0.85138887672817,-0.0870482996106148,0.80298238992691,-0.907440304756165
0,0.611111115787646,0.00277777787846293,0.87500003874349,-0.143858760595322,0.563828647136688,-0.563828647136688
0,0.633333337295854,-0.0500000014324589,0.887500065692777,-0.112399205565453,0.183565005660057,-0.389732033014297
0,0.633333337295854,-0.0500000014324589,0.887500065692777,-0.189368233084679,-0.331699818372726,-0.0986547395586967
0,0.615277791437408,-0.0472222237439329,0.86805557932722,-0.0595593601465225,-0.193033412098885,-0.021685715764761
0,0.572222240304247,-0.055555559848502,0.855555552377932,-0.0415388382971287,-0.139582708477974,-0.193949714303017
0,0.505555575779623,-0.029166668768514,0.855555552377932,0.00305432616733015,0.096211276948452,-0.141109868884087
0,0.452777781463682,0.00277777787846293,0.865277795560711,0.0491746515035629,0.284663200378418,-0.0616973899304867
0,0.486111138037923,0.0194444453391775,0.869444471210474,0.114842668175697,0.570242702960968,-0.105068825185299
0,0.525000013521323,-0.00555555575692586,0.861111119910949,0.0516181141138077,0.283746898174286,-0.117286130785942
0,0.49166670557094,-0.00694444498106275,0.834722271376837,-0.00427605677396059,-0.156992360949516,0.011606439948082
0,0.411111122213775,0.00555555575692586,0.827777811960566,-0.00183259579353034,-0.256563395261765,0.0482583530247212
0,0.459722240879953,0.026388891079988,0.870833363093728,-0.0262672062963247,-0.0815505087375641,-0.0497855171561241
0,0.47500000297189,0.03194444645704,0.884722281926269,-0.0678060427308083,0.00794124789535999,-0.0198531206697226
0,0.490277813687686,0.0180555564949145,0.856944444261187,-0.254730820655823,-0.116980694234371,0.0766635909676552
0,0.513888927079148,0.00555555575692586,0.858333336144441,-0.306043475866318,-0.22754730284214,0.0626136884093285
0,0.533333364820847,-0.0138888899621255,0.876388930626744,-0.228463605046272,-0.109039448201656,-0.0284052342176437
0,0.502777792013115,-0.0152777788063885,0.876388930626744,-0.155159771442413,-0.0241291765123606,-0.0693332031369209
0,0.452777781463682,-0.00277777787846293,0.86805557932722,-0.161879286170006,0.019547687843442,-0.0339030213654041
0,0.466666700296224,-0.00972222266958873,0.858333336144441,-0.242818936705589,0.0736092627048492,0.0171042270958424
0,0.497222224480098,-0.0152777788063885,0.865277795560711,-0.263893783092499,0.00427605677396059,-0.011606439948082
0,0.534722256704101,-0.03194444645704,0.863888903677457,-0.163101017475128,0.0769690200686455,-0.11087204515934
0,0.534722256704101,-0.03194444645704,0.863888903677457,-0.0684169083833694,0.148440256714821,-0.108428582549095
0,0.449999997697174,-0.0111111115138517,0.863888903677457,-0.0500909499824047,0.228158175945282,-0.0748309940099716
0,0.458333348996699,-0.0194444453391775,0.861111119910949,-0.16371189057827,0.0543670058250427,-0.01191187184304
0,0.458333348996699,-0.0194444453391775,0.861111119910949,-0.259006857872009,-0.148134827613831,0.0369573459029198
0,0.511111143312639,-0.0361111129898289,0.863888903677457,-0.22785273194313,-0.144164204597473,0.0229074470698834
0,0.506944467662877,-0.052777782159976,0.862500011794203,-0.124921940267086,-0.0589484944939613,0.015577063895762
0,0.506944467662877,-0.052777782159976,0.862500011794203,-0.0125227374956012,0.0604756586253643,-0.0027488935738802
0,0.486111138037923,-0.0486111125881959,0.858333336144441,0.0326812900602817,0.0714712366461754,-0.00244346098043024
0,0.500000008246606,-0.030555557612777,0.893055633225794,0.0100792767480016,0.05283984541893,-0.00580321997404099
0,0.500000008246606,-0.030555557612777,0.893055633225794,-0.0143553335219622,-0.0421497002243996,-0.0106901414692402
0,0.529166689171085,-0.033333335301303,0.890277849459286,0.0736092627048492,-0.0626136884093285,-0.00305432616733015
0,0.533333364820847,-0.0416666683668809,0.887500065692777,0.138666406273842,-0.0513126812875271,0.0323758572340012
0,0.516666662221798,-0.0416666683668809,0.858333336144441,0.146302223205566,-0.0103847095742822,0.0235183127224445
0,0.49166670557094,-0.0750000036681839,0.870833363093728,0.12705996632576,-0.0210748501121998,0.0491746515035629
0,0.505555575779623,-0.0402777795226179,0.870833363093728,0.0757472887635231,-0.01588249579072,0.0736092627048492
0,0.519444445988306,-0.0236111118719664,0.899999995394348,0.0400116741657257,-0.0922406539320946,0.0842994004487991
0,0.498611116363352,-0.0180555564949145,0.911111130460381,-0.0363464802503586,-0.398589581251144,0.215635433793068
0,0.530555581054339,-0.029166668768514,0.893055633225794,-0.0882700309157372,-0.666453957557678,0.22174409031868
0,0.529166689171085,-0.03194444645704,0.84583340644287,-0.0467311926186085,-0.178372651338577,0.187841057777405
0,0.533333364820847,-0.03194444645704,0.840277838909853,-0.17409659922123,-0.0604756586253643,0.320398807525635
0,0.424999992422458,0.00833333382532574,0.787500044593913,-0.392480909824371,-0.29596421122551,0.452956587076187
0,0.466666700296224,0.00833333382532574,0.837500055143345,-0.197309479117393,-0.166155353188515,0.404392778873444
0,0.543055559379768,-0.0416666683668809,0.901388887277602,0.0406225398182869,-0.113010071218014,0.344833433628082
0,0.580555591603771,-0.0486111125881959,0.837500055143345,-0.0412334054708481,-0.164933621883392,0.220522359013557
0,0.562499997121468,-0.0666666706026059,0.800000022919342,-0.0952949747443199,-0.128587126731873,0.187841057777405
0,0.558333370095563,-0.0750000036681839,0.795833347269579,-0.134390354156494,-0.0320704244077206,0.119118720293045
0,0.54722223502953,-0.0750000036681839,0.827777811960566,-0.0745255574584007,0.181426972150803,0.0733038261532784
0,0.538888932353864,-0.0736111117849297,0.841666730793107,-0.149661988019943,0.0699440687894821,0.0455094613134861
0,0.529166689171085,-0.0805555590452358,0.858333336144441,-0.164628177881241,-0.0500909499824047,0.0705549344420433
0,0.548611126912784,-0.0958333393711199,0.890277849459286,-0.00366519158706069,-0.0247400421649218,0.0668897479772568
0,0.551388910679293,-0.111111119697004,0.89722221162784,0.186008468270302,0.12156218290329,0.0357356183230877
0,0.538888932353864,-0.0888888921108138,0.902777779160856,0.343000829219818,0.076052725315094,0.0803287774324417
0,0.523611121638068,-0.0444444460554069,0.894444525109048,0.452040284872055,-0.0329867228865623,0.112399205565453
0,0.525000013521323,-0.0416666683668809,0.92083337364316,-0.00733038317412138,0.334448724985123,0.0949895456433296
0,0.556944478212309,-0.0750000036681839,0.905555562927365,0.220827788114548,0.294437050819397,0.138360977172852
0,0.456944457113445,-0.0152777788063885,0.844444514559616,0.372627794742584,0.556192815303802,0.308792382478714
0,0.447222262554524,-0.0152777788063885,0.798611131036088,0.280692577362061,1.26693451404572,0.462730437517166
0,0.500000008246606,0.0402777795226179,0.758333363669434,-0.24862214922905,1.29839408397675,0.520457208156586
0,0.525000013521323,0.0847222225390337,0.784722260827405,-0.974024653434753,0.617584764957428,0.44409903883934
0,0.529166689171085,0.0250000007162294,0.831944487610329,-1.32954823970795,0.169820532202721,0.857960224151611
0,0.536111148587356,-0.101388894748172,0.87500003874349,-1.2324206829071,-0.123394779860973,1.65972089767456
0,0.550000018796039,-0.186111123365188,0.844444514559616,-0.207694187760353,0.0439822971820831,2.78859972953796
0,0.637500012945616,-0.302777798439244,0.701388893703731,1.36192405223846,-0.172569438815117,3.94954919815064
0,0.577777807837263,-0.163888889701015,0.601388921228725,2.38237452507019,0.10567969083786,4.58148956298828
0,0.443055586904762,0.00277777787846293,0.709722245003256,1.54854345321655,1.14384520053864,4.08943748474121
0,0.294444447139719,0.0777777813567098,1.00416669214298,-0.311235845088959,1.81274259090424,2.85854387283325
0,0.252777787889811,-0.100000002864918,1.15416672379127,-1.50853168964386,1.6001615524292,2.12397837638855
0,0.275000009398019,-0.250000004123303,1.12499999424293,-1.85977923870087,1.33810031414032,2.34847140312195
0,0.263888898643915,-0.334722238818301,1.00277780025972,-1.57878124713898,0.489913940429688,3.16367101669311
0,0.229166674498349,-0.341666673922643,0.912500022343635,-1.16919612884522,-0.266031801700592,3.41992902755737
0,0.18333333959868,-0.348611133338914,0.852777768611424,-0.824362635612488,-0.581543684005737,3.11480188369751
0,0.180555567988136,-0.390277792588821,0.861111119910949,-0.394313514232635,-0.561079740524292,2.14199900627136
0,0.180555567988136,-0.390277792588821,0.861111119910949,-0.38117989897728,-0.576351344585419,1.96515345573425
0,0.166666673467524,-0.459722240879953,0.894444525109048,-0.455705463886261,-0.662177920341492,1.694540143013
0,0.170833336961321,-0.479166678621653,0.894444525109048,-0.775798857212067,-1.04183065891266,1.62367987632752
0,0.154166670830166,-0.476388894855144,0.894444525109048,-1.30053210258484,-1.25593888759613,1.56809103488922
0,0.162500009973726,-0.551388910679293,0.904166671044111,-1.54212927818298,-1.92727982997894,1.25044119358063
0,0.194444450352783,-0.633333337295854,0.887500065692777,-1.4957035779953,-2.004554271698,0.597120761871338
0,0.197222234119292,-0.643055580478633,0.863888903677457,-1.17988622188568,-1.93247222900391,-0.0235183127224445
0,0.2194444556275,-0.6125000076709,0.800000022919342,-1.07603907585144,-2.19880938529968,-0.0803287774324417
0,0.272222225631511,-0.608333332021137,0.772222233878117,-0.973108351230621,-2.14780211448669,0.0684169083833694
0,0.305555557893823,-0.618055575203916,0.768055606852213,-0.838717997074127,-1.79686009883881,0.279470860958099
0,0.322222236180943,-0.604166704995233,0.736111142161226,-0.716544926166534,-1.42881381511688,0.420580714941025
0,0.298611122789481,-0.598611137462217,0.738888925927735,-0.726624190807343,-1.16950154304504,0.313984721899033
0,0.319444452414435,-0.569444456537738,0.697222266677827,-0.952644348144531,-1.30328094959259,0.0277943685650826
0,0.341666673922643,-0.584722267253534,0.680555564078778,-1.18660569190979,-1.40101945400238,-0.259006857872009
0,0.348611133338914,-0.608333332021137,0.666666693870094,-1.16705811023712,-0.906829476356506,-0.273667633533478
0,0.377777789951463,-0.652777823661411,0.630555602153203,-1.03114056587219,-0.456316351890564,-0.172874867916107
0,0.388888900705567,-0.666666693870094,0.605555596878487,-0.82039201259613,-0.160046696662903,0.0192422550171614
0,0.394444468238583,-0.687500023495048,0.572222240304247,-0.394924372434616,0.00641408516094089,0.145691365003586
0,0.358333352209763,-0.736111142161226,0.530555581054339,-0.1795943826437,-0.0100792767480016,0.159741267561913
0,0.388888900705567,-0.766666714968959,0.525000013521323,-0.129197999835014,-0.101403631269932,-0.0186313893646002
0,0.393055576355329,-0.745833336720147,0.525000013521323,-0.131641462445259,-0.0409279726445675,0.0171042270958424
0,0.404166687109433,-0.775000017644626,0.515277818962402,-0.124005645513535,-0.310014098882675,-0.0650571510195732
0,0.377777789951463,-0.775000017644626,0.519444445988306,-0.104152522981167,-0.461508691310883,-0.0675006061792374
0,0.416666689746791,-0.837500055143345,0.541666667496514,-0.0925460830330849,-0.352469235658646,-0.15851953625679
0,0.415277797863537,-0.823611136310804,0.558333370095563,-0.212581098079681,0.258395999670029,-0.196393176913261
0,0.423611149163062,-0.801388914802596,0.529166689171085,-0.388204872608185,0.34880405664444,-0.285884946584701
0,0.377777789951463,-0.780555585177642,0.472222219205382,-0.698219001293182,-0.343000829219818,-0.153021737933159
0,0.377777789951463,-0.780555585177642,0.472222219205382,-0.931874930858612,-1.07726085186005,0.2165517359972
0,0.458333348996699,-0.815277785011279,0.515277818962402,-0.822530031204224,-0.797179162502289,0.109039448201656
0,0.495833332596844,-0.85138887672817,0.529166689171085,-0.521373510360718,-0.195476874709129,-0.211970239877701
0,0.536111148587356,-0.89166674134254,0.515277818962402,-0.155465200543404,0.215635433793068,-0.310624986886978
0,0.536111148587356,-0.89166674134254,0.515277818962402,0.15332718193531,0.492968261241913,-0.176845490932465
0,0.508333359546131,-0.830555595727074,0.456944457113445,0.17989981174469,0.0699440687894821,0.277027398347855
0,0.436111127488491,-0.805555590452358,0.434722235605237,-0.207388743758202,-0.629191219806671,0.557109117507935
0,0.418055581630046,-0.777777801411134,0.449999997697174,-0.680809319019318,-0.681420207023621,0.423024177551269
0,0.423611149163062,-0.808333374218867,0.483333354271415,-0.898888230323792,-0.43860125541687,0.207388743758202
0,0.459722240879953,-0.787500044593913,0.44583337067127,-1.18049705028534,-0.520762622356415,-0.181121543049812
0,0.506944467662877,-0.751388904253164,0.356944460326509,-1.39032924175262,-0.964556217193604,-0.580016553401947
0,0.506944467662877,-0.751388904253164,0.356944460326509,-1.25807702541351,-1.21867620944977,-0.813367068767548
0,0.53750004047061,-0.918055589876652,0.411111122213775,-0.420580714941025,-0.653014957904816,-0.637743294239044
0,0.552777802562547,-0.836111163260091,0.318055560531181,-0.209221348166466,-0.81428337097168,-0.412944912910461
0,0.54722223502953,-0.770833341994863,0.331944455051793,-0.256257981061935,-1.07023596763611,-0.406225383281708
0,0.558333370095563,-0.801388914802596,0.33750002258481,-0.128587126731873,-0.364381104707718,-0.569631814956665
0,0.598611137462217,-0.798611131036088,0.304166666010569,-0.0708603709936142,-0.184786736965179,-0.405919969081879
0,0.598611137462217,-0.798611131036088,0.304166666010569,-0.253814518451691,-0.394924372434616,-0.0959058403968811
0,0.598611137462217,-0.798611131036088,0.304166666010569,-0.284663200378418,-0.291382730007172,-0.058643065392971
0,0.598611137462217,-0.798611131036088,0.304166666010569,-0.284663200378418,-0.291382730007172,-0.058643065392971
0,0.6125000076709,-0.820833352544296,0.286111120152123,-0.425773084163666,-0.0949895456433296,0.0647517144680023
0,0.622222250853679,-0.812500049868629,0.268055574293678,-0.737314343452454,-0.171347707509995,0.122173048555851
0,0.615277791437408,-0.788888936477167,0.229166674498349,-0.917519569396973,-0.265726387500763,0.131030589342117
0,0.595833353695709,-0.791666671619817,0.202777789496344,-0.765108704566956,-0.0555887371301651,0.103847093880177
0,0.568055564654484,-0.795833347269579,0.194444450352783,-0.557414531707764,0.429132848978043,-0.0968221426010132
0,0.598611137462217,-0.786111152710659,0.166666673467524,-0.587346911430359,0.392480909824371,-0.128281697630882
0,0.608333332021137,-0.769444450111609,0.143055560076062,-0.772744536399841,0.0510072484612465,-0.058643065392971
0,0.606944488761742,-0.75694447178618,0.12916666555545,-0.772744536399841,-0.234266817569733,-0.188146501779556
0,0.627777818386695,-0.849999984844916,0.218055563744246,-0.499687761068344,0.245567828416824,-0.361021369695664
0,0.683333347845286,-0.933333400592447,0.258333331110899,-0.479529231786728,0.603229403495789,-0.399200439453125
0,0.741666709694243,-0.94305554652751,0.244444460902216,-0.790459632873535,0.445626199245453,-0.297185927629471
0,0.794444455386325,-0.963888924776322,0.212499996211229,-1.2834278345108,0.0803287774324417,-0.181426972150803
0,0.752777796136418,-0.929166724942685,0.194444450352783,-1.59771800041199,-0.0815505087375641,0.115758962929249
0,0.70416667747024,-0.956944465360051,0.187500003092477,-1.57145082950592,0.011606439948082,0.305432617664337
0,0.6319444454126,-0.959722249126559,0.163888889701015,-1.42728662490845,0.271224170923233,0.510377883911133
0,0.576388915954009,-0.904166671044111,0.0902777839940679,-1.48837316036224,0.488997638225555,0.492662817239761
0,0.531944472937593,-0.858333336144441,0.0236111118719664,-1.51464033126831,0.334448724985123,0.104152522981167
0,0.500000008246606,-0.911111130460381,0.03194444645704,-1.38238799571991,0.22693644464016,-0.338724792003632
0,0.522222229754814,-0.941666654644256,0.0250000007162294,-1.40896070003509,0.235183119773865,-0.653014957904816
0,0.531944472937593,-0.944444438410764,0.0125000003581147,-1.71530961990356,0.0855211317539215,-0.571769893169403
0,0.554166694445801,-0.941666654644256,-0.00972222266958873,-2.03051614761352,0.293215304613113,-0.196393176913261
0,0.562499997121468,-0.923611157409668,-0.0430555572111439,-2.23179626464844,0.357967019081116,0.109650313854218
0,0.572222240304247,-0.861111119910949,-0.154166670830166,-2.15879774093628,0.182648703455925,0.362548530101776
0,0.591666678045946,-0.876388930626744,-0.198611113846581,-1.86466610431671,-0.250149309635162,0.352163821458816
0,0.544444451263022,-0.938888968125464,-0.198611113846581,-1.10413897037506,-0.467922776937485,0.817643105983734
0,0.487500029921177,-0.972222276075846,-0.0638888929140799,0.117896988987923,0.856433093547821,1.18019163608551
0,0.505555575779623,-0.956944465360051,-0.0805555590452358,0.811229050159454,1.31855261325836,1.24311077594757
0,0.561111153862072,-0.826388920077312,-0.163888889701015,0.601702272891998,0.487470477819443,1.01037108898163
0,0.533333364820847,-0.729166682744956,-0.17361112072783,0.201585531234741,-0.233350530266762,0.668286561965942
0,0.54722223502953,-0.70416667747024,-0.12916666555545,-0.205556154251099,-0.529009282588959,0.270918726921081
0,0.568055564654484,-0.731944466511464,-0.0972222251763917,-0.67073005437851,-0.624609708786011,0.13225232064724
0,0.568055564654484,-0.741666709694243,-0.0638888929140799,-0.437990367412567,-0.662788808345795,0.213497400283814
0,0.479166678621653,-0.808333374218867,-0.0125000003581147,0.250454753637314,-0.432492583990097,0.172874867916107
0,0.405555578992687,-0.777777801411134,0.0180555564949145,0.826500654220581,-0.12156218290329,-0.377514719963074
0,0.53750004047061,-0.747222228603401,-0.0458333348996699,0.401338458061218,-0.660039901733398,-1.04610669612884
0,0.634722229179108,-0.77638890952788,0.0222222230277034,-0.4758640229702,-1.43431162834168,-1.41262590885162
0,0.573611132187501,-0.854166660494678,0.055555559848502,-0.319177091121674,-0.0965167060494423,-1.27548658847809
0,0.529166689171085,-0.837500055143345,-0.00555555575692586,0.0775798857212067,0.0250454749912024,-0.745561003684998
0,0.479166678621653,-0.762500039319197,0.00833333382532574,0.400116741657257,0.183259576559067,-0.42852196097374
0,0.562499997121468,-0.755555579902926,-0.0486111125881959,0.515570282936096,0.84116142988205,-0.300240278244019
0,0.600000029345471,-0.781944477060896,-0.0583333375370279,-0.49235737323761,-0.855516791343689,-1.16858518123627
0,0.634722229179108,-0.787500044593913,-0.055555559848502,-1.33657312393188,-1.18171882629395,-1.28495502471924
0,0.551388910679293,-0.781944477060896,-0.0916666697993398,-1.51708388328552,-0.451429426670075,-0.937983572483063
0,0.613888899554154,-0.747222228603401,-0.187500003092477,-1.55892813205719,-0.121256753802299,-0.753502309322357
0,0.688888915378302,-0.680555564078778,-0.333333346935047,-1.74218773841858,-0.974635481834412,-0.98929625749588
0,0.688888915378302,-0.680555564078778,-0.333333346935047,-1.29381263256073,-0.632245540618896,-1.25319004058838
0,0.75000001236991,-0.683333347845286,-0.375000006184955,-1.03969264030456,-1.23089349269867,-1.42423236370087
0,0.709722245003256,-0.679166672195524,-0.319444452414435,-0.573602437973022,-0.879035115242004,-1.57358884811401
0,0.709722245003256,-0.679166672195524,-0.319444452414435,-0.0717766657471657,-0.184175878763199,-1.6545284986496
0,0.736111142161226,-0.630555602153203,-0.413888905980283,0.196393176913261,0.202196389436722,-1.67804682254791
0,0.719444488186035,-0.594444461812454,-0.409722230330521,0.282525181770325,0.380569040775299,-1.12277030944824
0,0.719444488186035,-0.594444461812454,-0.409722230330521,0.169820532202721,0.317649930715561,-1.06198918819427
0,0.591666678045946,-0.555555586329055,-0.305555557893823,0.101098194718361,0.261450320482254,-1.48837316036224
0,0.630555602153203,-0.58611111051293,-0.194444450352783,-0.393091797828674,0.0974330082535744,-2.45048594474792
0,0.795833347269579,-0.591666678045946,-0.238888893369199,-0.917825043201447,-0.102014496922493,-2.26722645759583
0,0.86805557932722,-0.561111153862072,-0.279166685047782,-0.587652385234833,0.981965899467468,-1.82007300853729
0,0.812500049868629,-0.552777802562547,-0.234722242031366,0.0381790772080422,1.88971161842346,-1.71928024291992
0,0.781944477060896,-0.4194444735133,-0.295833339022973,-0.339030206203461,-0.294742494821549,-1.10810959339142
0,1.0125000434425,-0.418055581630046,-0.495833332596844,0.615446746349335,0.621555387973785,0.465173870325089
0,1.10555560512509,-0.380555573717971,-0.420833365396554,-0.683863639831543,0.360105067491531,-1.13987457752228
0,0.888888957576031,-0.216666671860991,-0.312500017310094,-1.06809782981873,0.694859206676483,-2.27730560302734
0,0.833333379493583,-0.383333357484479,-0.513888927079148,0.179288953542709,-0.456010907888412,-2.7324001789093
0,1.11805563207438,-0.545833343146276,-0.204166669223633,0.106290549039841,0.813977956771851,-1.30267012119293
0,1.15416672379127,-0.437500019371745,-0.276388901281273,0.0934623852372169,1.23852932453155,0.0323758572340012
0,1.09305557817581,-0.252777787889811,-0.437500019371745,0.189979091286659,0.437990367412567,-0.109955742955208
0,0.983333411141879,-0.359722244093018,-0.252777787889811,-0.142026171088219,0.109955742955208,-0.423024177551269
0,0.902777779160856,-0.358333352209763,-0.2194444556275,-0.135612085461616,-0.109039448201656,-0.69730269908905
0,0.840277838909853,-0.297222230906227,-0.233333350148112,-0.13744467496872,-0.0592539273202419,-1.0445796251297
0,0.856944444261187,-0.20972223675665,-0.308333341660331,-0.159435823559761,0.301767438650131,-1.12948977947235
0,0.993055557076942,-0.216666671860991,-0.325000019947452,0.0345138870179653,0.5128213763237,-0.884838283061981
0,1.09166668629255,-0.233333350148112,-0.293055555256465,0.00152716308366507,0.653320372104645,-0.333532422780991
0,1.01527782720901,-0.236111109602691,-0.279166685047782,0.104152522981167,0.5555819272995,-0.401338458061218
0,0.901388887277602,-0.187500003092477,-0.243055569018962,-0.027488935738802,0.355218142271042,-0.594066441059113
0,0.913888914226889,-0.202777789496344,-0.205555561106887,-0.0222965814173222,0.332310706377029,-0.667981147766113
0,0.923611157409668,-0.20972223675665,-0.213888888094483,-0.0665843114256859,0.249538451433182,-0.93554013967514
0,0.94305554652751,-0.187500003092477,-0.187500003092477,-0.0946841165423393,0.417831838130951,-0.996015787124634
0,0.93750007624221,-0.168055565350778,-0.216666671860991,-0.0357356183230877,0.377820163965225,-1.08092606067657
0,0.977777843608863,-0.112499999424294,-0.215277779977737,-0.0406225398182869,0.224187538027763,-1.13132238388062
0,1.04583335139288,-0.1194444466846,-0.223611131277262,-0.105068825185299,0.0983493030071259,-1.22967171669006
0,1.09722225382557,-0.0930555616825939,-0.265277790527169,-0.102625362575054,0.451123982667923,-0.659429013729095
0,1.14444448060849,0.00833333382532574,-0.240277785252453,-0.0842994004487991,0.519540905952454,-0.252898216247559
0,1.02500007039179,-0.00833333382532574,-0.163888889701015,-0.0329867228865623,0.501214921474457,0.172263994812965
0,0.608333332021137,0.0416666683668809,-0.223611131277262,0.0253509078174829,0.831082165241241,1.71286618709564
0,1.0513889189259,-0.123611110178398,-0.0986111170596459,0.0430659987032413,-0.599564254283905,1.96484804153442
0,1.29861118790655,-0.259722222994153,-0.205555561106887,0.140804439783096,-0.275805652141571,0.6139195561409
0,1.3750000469901,-0.243055569018962,-0.213888888094483,0.144164204597473,-0.0207694191485643,-0.0232128798961639
0,1.1708333291426,-0.169444445078067,-0.238888893369199,0.0983493030071259,0.406225383281708,0.000610865245107561
0,1.06250005399193,-0.14722222356986,-0.250000004123303,0.0412334054708481,0.69730269908905,0.0103847095742822
0,0.956944465360051,-0.130555557438704,-0.112499999424294,0.0439822971820831,0.0571159012615681,-0.0268780700862408
0,0.930555616825939,-0.113888891307548,-0.0777777813567098,0.128587126731873,-0.299629390239716,0.076052725315094
0,0.973611167959101,-0.150000007336368,-0.14722222356986,0.277943700551987,-0.0229074470698834,0.0965167060494423
0,0.990277773310434,-0.144444451959316,-0.198611113846581,0.114537231624126,0.177761793136597,0.147523954510689
0,1.11944452395763,-0.195833342236038,-0.238888893369199,-0.0320704244077206,-0.249233022332191,0.214108273386955
0,1.0513889189259,-0.169444445078067,-0.0986111170596459,-0.0128281703218818,0.0488692186772823,-0.0620028227567673
0,1.00555558402623,-0.190277786858986,-0.259722222994153,0.00763581553474069,-0.309403240680695,-0.0580321997404099
0,0.968055600426084,-0.206944452990142,-0.163888889701015,-0.293826192617416,1.13804197311401,-0.15851953625679
0,0.82222224442755,-0.0763888894734557,-0.0152777788063885,-0.182343274354935,-0.01191187184304,0.0531452745199203
0,0.94305554652751,-0.0972222251763917,-0.126388893944906,-0.0949895456433296,-0.180510684847832,0.119424156844616
0,0.962500032893068,-0.162500009973726,-0.176388892338373,-0.234266817569733,0.123700208961964,0.480445504188538
0,1.05833337834217,-0.197222234119292,-0.13750000469901,-0.102014496922493,0.263282924890518,0.426383942365646
0,1.05416670269241,-0.205555561106887,-0.130555557438704,0.0537561401724815,0.150883719325066,0.217773467302322
0,1.05416670269241,-0.205555561106887,-0.130555557438704,0.0485637858510017,0.270918726921081,-0.282830595970154
0,1.10555560512509,-0.118055554801345,-0.140277788465518,-0.0442877300083637,0.478612929582596,-0.182037845253944
0,1.00555558402623,-0.134722233088466,-0.118055554801345,-0.0207694191485643,0.46059238910675,-0.0671951770782471
0,1.00555558402623,-0.134722233088466,-0.118055554801345,-0.0830776765942574,0.305432617664337,-0.4544837474823
0,0.852777768611424,-0.187500003092477,-0.101388894748172,-0.261450320482254,-0.0934623852372169,0.0033597587607801
0,0.856944444261187,-0.156944454596674,-0.125000002061652,-0.110261179506779,-0.364075690507889,0.38576140999794
0,0.89166674134254,-0.168055565350778,-0.0625000010308258,0.017409659922123,-0.320093393325806,0.623693406581879
0,0.862500011794203,-0.14722222356986,-0.0666666706026059,-0.0134390350431204,-0.18509216606617,0.430965423583984
0,1.13472223742571,-0.188888894975731,-0.12777778582816,0.0164933614432812,0.101403631269932,0.155159771442413
0,1.03888889197661,-0.163888889701015,-0.12916666555545,0.08460483700037,0.191811680793762,0.0995710343122482
0,1.16805564262381,-0.20972223675665,-0.0986111170596459,0.0965167060494423,0.283136039972305,-0.16951510310173
0,1.0902777944093,-0.216666671860991,-0.134722233088466,-0.0293215326964855,0.0366519130766392,-0.214108273386955
0,1.07916665934326,-0.213888888094483,-0.125000002061652,-0.0623082555830479,-0.0675006061792374,-0.121256753802299
0,1.04305556762637,-0.187500003092477,-0.125000002061652,-0.204945296049118,-0.0418442711234093,-0.0968221426010132
0,0.991666665193688,-0.170833336961321,-0.122222230451108,-0.118202425539494,0.0482583530247212,-0.0748309940099716
0,0.991666665193688,-0.170833336961321,-0.122222230451108,-0.0687223374843597,0.211053937673569,-0.0894917547702789
0,1.0125000434425,-0.176388892338373,-0.100000002864918,-0.0372627787292004,0.0849102661013603,-0.114537231624126
0,0.986111194908388,-0.18333333959868,-0.111111119697004,-0.108428582549095,-0.0983493030071259,-0.05283984541893
0,1.04166667574312,-0.180555567988136,-0.113888891307548,-0.0897971913218498,-0.0345138870179653,-0.0452040284872055
0,1.0513889189259,-0.176388892338373,-0.106944444047242,-0.0134390350431204,0.220827788114548,-0.0256563406437635
0,1.0513889189259,-0.176388892338373,-0.106944444047242,-0.00183259579353034,0.24312436580658,-0.0201585534960032
0,1.00972225967599,-0.156944454596674,-0.112499999424294,0.0708603709936142,0.210748508572578,-0.0152716310694814
0,0.990277773310434,-0.151388899219622,-0.101388894748172,0.0531452745199203,-0.0531452745199203,-0.00702495034784079
0,0.998611124609959,-0.169444445078067,-0.104166672436698,0.0198531206697226,-0.0183259565383196,-0.0131336031481624
0,1.02222228662528,-0.186111123365188,-0.113888891307548,-0.0128281703218818,0.156992360949516,-0.0366519130766392
0,1.0513889189259,-0.197222234119292,-0.1194444466846,0.0171042270958424,0.376903861761093,-0.0348193198442459
0,1.04027778385987,-0.180555567988136,-0.118055554801345,-0.0143553335219622,0.505185544490814,-0.0467311926186085
0,1.03888889197661,-0.169444445078067,-0.111111119697004,-0.0894917547702789,0.784656405448914,0.00794124789535999
0,1.07777786470773,-0.154166670830166,-0.055555559848502,0.145691365003586,1.10291719436646,0.103847093880177
0,1.04861113515939,-0.154166670830166,-0.0458333348996699,0.223882108926773,1.13040614128113,0.118507854640484
0,0.972222276075846,-0.184722231481934,0.00972222266958873,0.18539759516716,0.528092980384827,0.00763581553474069
0,0.969444492309338,-0.202777789496344,0.00833333382532574,0.164628177881241,-0.208305045962334,-0.0778853222727776
0,0.970833384192592,-0.200000005729836,0.0583333375370279,-0.111788339912891,-1.00426244735718,0.0149661982432008
0,1.02777785415829,-0.18333333959868,0.0388888906783549,0.0213802829384804,-1.07634460926056,-0.0403171069920063
0,1.00277780025972,-0.170833336961321,-0.0541666679652478,0.371100634336472,-1.12521374225616,-0.168293371796608
0,1.04583335139288,-0.141666668192807,-0.150000007336368,0.256563395261765,-0.425467640161514,-0.0671951770782471
0,1.06388894587519,-0.154166670830166,-0.104166672436698,0.0980438739061356,0.101709060370922,-0.0305432621389627
0,1.00277780025972,-0.154166670830166,-0.0847222225390337,0.0806342139840126,0.0222965814173222,0.00763581553474069
0,0.990277773310434,-0.16527778158427,-0.0666666706026059,0.0632245540618896,-0.189368233084679,-0.0164933614432812
0,0.986111194908388,-0.166666673467524,-0.0694444482911319,-0.0781907513737679,-0.130419731140137,0.0201585534960032
0,1.01527782720901,-0.166666673467524,-0.0930555616825939,0.029626963660121,0.0128281703218818,0.00244346098043024
0,1.02777785415829,-0.158333334323963,-0.113888891307548,0.0314595587551594,0.0033597587607801,-0.00946841109544039
0,1.02916674604155,-0.166666673467524,-0.105555564319952,0.00702495034784079,0.0949895456433296,-0.0226020142436027
0,1.00277780025972,-0.168055565350778,-0.0805555590452358,0.00977384392172098,0.0021380283869803,0.013744467869401
0,1.00000001649321,-0.162500009973726,-0.0833333367337618,-0.00885754637420177,-0.0742201283574104,0.000305432622553781
0,1.00972225967599,-0.163888889701015,-0.0888888921108138,0.00397062394768,-0.0916297882795334,-0.0033597587607801
0,1.00972225967599,-0.18333333959868,-0.0138888899621255,0.207694187760353,-0.0959058403968811,-0.0595593601465225
0,1.00277780025972,-0.168055565350778,-0.154166670830166,-0.207999616861343,0.0687223374843597,0.0833831056952477
0,1.02777785415829,-0.168055565350778,-0.0916666697993398,-0.0412334054708481,0.137139245867729,0.0143553335219622
0,1.01527782720901,-0.180555567988136,-0.0736111117849297,-0.0479529201984406,-0.0390953756868839,0.00916297826915979
0,1.00694447590948,-0.177777784221628,-0.0875000002275597,0.0589484944939613,-0.0183259565383196,-0.0113010071218014
0,1.00277780025972,-0.161111118090472,-0.100000002864918,0.00244346098043024,-0.0543670058250427,-0.00702495034784079
0,1.00277780025972,-0.161111118090472,-0.100000002864918,0.00580321997404099,-0.0500909499824047,-0.00305432616733015
0,1.02638896227504,-0.156944454596674,-0.125000002061652,-0.0021380283869803,-0.0247400421649218,0.0027488935738802
0,1.02222228662528,-0.163888889701015,-0.112499999424294,0.01191187184304,0.00519235478714108,-0.00610865233466029
0,1.02222228662528,-0.163888889701015,-0.112499999424294,0.0210748501121998,-0.0424551330506802,-0.00733038317412138
0,0.984722303025134,-0.163888889701015,-0.0958333393711199,-0.0177150927484035,-0.124921940267086,0.0033597587607801
0,1.04166667574312,-0.169444445078067,-0.113888891307548,-0.01191187184304,-0.0183259565383196,0.00427605677396059
0,1.04166667574312,-0.169444445078067,-0.113888891307548,-0.0500909499824047,-0.0534507073462009,0.0125227374956012
0,1.01944450285877,-0.163888889701015,-0.0986111170596459,0.0262672062963247,0.0690277740359306,-0.00671951752156019
0,1.03194452980806,-0.176388892338373,-0.108333335930496,0.0351247526705265,0.120951317250729,-0.0149661982432008
0,1.02916674604155,-0.176388892338373,-0.113888891307548,-0.000610865245107561,0.265726387500763,0.00671951752156019
0,1.06527783775844,-0.163888889701015,-0.14722222356986,-0.0177150927484035,0.425467640161514,0.01191187184304
0,1.0125000434425,-0.14722222356986,-0.0930555616825939,-0.0589484944939613,0.0519235469400883,-0.0253509078174829
0,0.976388951725609,-0.179166676104882,-0.055555559848502,-0.0641408488154411,-0.183870434761047,-0.0479529201984406
0,0.963888924776322,-0.175000000455119,-0.0569444456537738,-0.0290160998702049,-0.193644285202026,0.00824668072164059
0,0.993055557076942,-0.150000007336368,-0.0763888894734557,-0.0696386396884918,-0.162184715270996,0.05283984541893
0,1.02500007039179,-0.144444451959316,-0.0930555616825939,0.0131336031481624,-0.126143679022789,0.0311541277915239
0,1.0305556379248,-0.162500009973726,-0.0861111144222878,0.112399205565453,-0.0439822971820831,-0.017409659922123
0,1.04027778385987,-0.181944447715425,-0.0902777839940679,0.0519235469400883,0.0106901414692402,-0.0146607663482428
0,1.00277780025972,-0.16527778158427,-0.0986111170596459,0.0519235469400883,0.0345138870179653,0.00519235478714108
0,1.02222228662528,-0.170833336961321,-0.10972222781375,0.0442877300083637,0.130725160241127,-0.0610865242779255
0,1.02083339474202,-0.180555567988136,-0.108333335930496,0.0549778714776039,0.131641462445259,-0.120340451598167
0,1.0305556379248,-0.186111123365188,-0.0972222251763917,0.0342084541916847,0.0879645943641663,-0.0681114718317986
0,0.970833384192592,-0.154166670830166,-0.0916666697993398,-0.019547687843442,-0.137139245867729,0.0604756586253643
0,0.977777843608863,-0.144444451959316,-0.104166672436698,0.00885754637420177,-0.0583376325666905,0.0323758572340012
0,1.01111115155925,-0.154166670830166,-0.0875000002275597,0.0323758572340012,-0.0601702257990837,-0.00427605677396059
0,1.01111115155925,-0.154166670830166,-0.0875000002275597,0.0284052342176437,-0.0149661982432008,-0.0192422550171614
0,1.02222228662528,-0.151388899219622,-0.111111119697004,0.027488935738802,0.0189368221908808,-0.000916297896765172
0,1.00277780025972,-0.144444451959316,-0.0944444474878658,0.0207694191485643,-0.029626963660121,0.0409279726445675
0,1.00972225967599,-0.151388899219622,-0.0916666697993398,0.0143553335219622,-0.0522289797663689,0.0390953756868839
0,1.01666671909226,-0.156944454596674,-0.150000007336368,0.107206851243973,0.171653136610985,-0.00549778714776039
0,1.02916674604155,-0.163888889701015,-0.0944444474878658,0.0458148941397667,0.300545692443848,0.0204639863222837
0,1.01944450285877,-0.176388892338373,-0.0597222233422998,0.01588249579072,-0.015577063895762,0.0109955742955208
0,1.03472221632685,-0.172222228844576,-0.0805555590452358,0.0479529201984406,0.0213802829384804,-0.0201585534960032
0,1.03472221632685,-0.172222228844576,-0.0805555590452358,0.0149661982432008,0.00580321997404099,-0.0302378293126821
0,1.01527782720901,-0.156944454596674,-0.0819444448505077,0.00122173049021512,-0.0623082555830479,-0.0229074470698834
0,0.973611167959101,-0.151388899219622,-0.0625000010308258,0.00427605677396059,-0.105374254286289,-0.0167987942695618
0,0.973611167959101,-0.151388899219622,-0.0625000010308258,-0.0482583530247212,-0.356134444475174,-0.00519235478714108
0,1.03194452980806,-0.154166670830166,-0.1194444466846,0.0253509078174829,-0.0021380283869803,0.00366519158706069
0,1.00555558402623,-0.161111118090472,-0.102777780553444,0.015577063895762,-0.0513126812875271,-0.00946841109544039
0,1.00555558402623,-0.161111118090472,-0.102777780553444,-0.0363464802503586,-0.282830595970154,0.0103847095742822
0,1.00277780025972,-0.161111118090472,-0.0847222225390337,0.0519235469400883,0.00397062394768,0.00519235478714108
0,0.987499989543926,-0.163888889701015,-0.0986111170596459,-0.0384845100343227,-0.459370672702789,-0.0467311926186085
0,0.987499989543926,-0.163888889701015,-0.0986111170596459,0.0152716310694814,-0.2379320114851,-0.0491746515035629
0,1.02638896227504,-0.151388899219622,-0.144444451959316,-0.00305432616733015,-0.0980438739061356,0.013744467869401
0,1.02222228662528,-0.148611115453114,-0.125000002061652,-0.0595593601465225,-0.523206055164337,-0.0253509078174829
0,0.927777833059431,-0.152777778946911,-0.0930555616825939,-0.0329867228865623,-0.439822971820831,-0.0775798857212067
0,1.00416669214298,-0.177777784221628,-0.12916666555545,-0.017409659922123,-0.284357786178589,-0.0232128798961639
0,1.03194452980806,-0.156944454596674,-0.126388893944906,-0.0332921557128429,-0.376598417758942,0.0461203269660473
0,1.02222228662528,-0.138888896582264,-0.12916666555545,-0.0152716310694814,-0.576351344585419,-0.0201585534960032
0,1.02083339474202,-0.16527778158427,-0.15555556271342,-0.0503963828086853,-0.426078498363495,-0.0565050356090069
0,0.98888888142718,-0.150000007336368,-0.14722222356986,-0.149356558918953,-1.38269352912903,-0.0824668109416962
0,0.952777789710289,-0.150000007336368,-0.0875000002275597,-0.134695783257484,-1.66460776329041,-0.0537561401724815
0,1.00555558402623,-0.181944447715425,-0.0777777813567098,0.0280998013913631,-1.19363069534302,-0.0858265683054924
0,1.04861113515939,-0.175000000455119,-0.300000014672736,-0.000305432622553781,-0.402560204267502,-0.0873537287116051
0,1.02916674604155,-0.158333334323963,-0.29166668768514,-0.0161879286170006,-0.241597205400467,-0.0668897479772568
0,1.02777785415829,-0.136111112815755,-0.295833339022973,0.0561996027827263,0.243735238909721,0.0222965814173222
0,1.00277780025972,-0.12916666555545,-0.262500006760661,0.0152716310694814,0.209526777267456,0.0412334054708481
0,0.940277860008718,-0.14722222356986,-0.194444450352783,-0.0754418596625328,-0.439822971820831,-0.000916297896765172
0,0.979166735492117,-0.166666673467524,-0.238888893369199,-0.0739146918058395,-0.34330627322197,-0.0332921557128429
0,1.00416669214298,-0.162500009973726,-0.275000009398019,-0.00855211354792118,-0.0033597587607801,-0.03176499158144
0,1.01111115155925,-0.150000007336368,-0.288888903918631,0.0210748501121998,0.279470860958099,0.00733038317412138
0,0.972222276075846,-0.151388899219622,-0.243055569018962,-0.00366519158706069,0.124311074614525,-0.00916297826915979
0,0.926388941176177,-0.15555556271342,-0.175000000455119,-0.137750118970871,-0.71959924697876,-0.0678060427308083
0,0.987499989543926,-0.144444451959316,-0.266666682410424,-0.0757472887635231,-0.593761026859283,-0.081855945289135
0,1.01527782720901,-0.12777778582816,-0.344444457689151,-0.0445931628346443,-0.162184715270996,0.00183259579353034
0,1.04027778385987,-0.134722233088466,-0.368055571080613,0.0561996027827263,0.419358998537064,0.0424551330506802
0,0.994444448960196,-0.151388899219622,-0.280555576931036,0.0720821022987366,0.525649547576904,0.00671951752156019
0,0.947222222177272,-0.151388899219622,-0.223611131277262,-0.0244346093386412,-0.0925460830330849,-0.0394008085131645
0,0.969444492309338,-0.14722222356986,-0.237500001485945,0.0167987942695618,-0.00427605677396059,-0.0302378293126821
0,0.997222232726705,-0.13750000469901,-0.287500012035377,0.05283984541893,0.161879286170006,0.00366519158706069
0,0.987499989543926,-0.14722222356986,-0.280555576931036,0.0678060427308083,0.213802829384804,0.0122173046693206
0,0.979166735492117,-0.150000007336368,-0.250000004123303,0.01191187184304,0.0394008085131645,-0.0149661982432008
0,0.961111141009813,-0.140277788465518,-0.241666677135707,-0.0452040284872055,-0.126449108123779,-0.0210748501121998
0,0.987499989543926,-0.143055560076062,-0.265277790527169,-0.0534507073462009,-0.225714713335037,-0.0277943685650826
0,1.00000001649321,-0.140277788465518,-0.288888903918631,-0.00824668072164059,0.0308486949652433,0.0021380283869803
0,1.00000001649321,-0.140277788465518,-0.288888903918631,-0.0027488935738802,0.150272846221924,-0.0271835029125214
0,0.984722303025134,-0.14722222356986,-0.269444466176932,-0.000610865245107561,0.166460782289505,-0.0464257597923279
0,0.975000059842355,-0.143055560076062,-0.259722222994153,0.0406225398182869,0.170736834406853,-0.00763581553474069
0,0.975000059842355,-0.143055560076062,-0.259722222994153,0.0629191175103188,0.264810085296631,0.0167987942695618
0,1.01666671909226,-0.126388893944906,-0.298611122789481,0.0821613743901253,0.546418964862823,0.090408056974411
0,1.03888889197661,-0.12916666555545,-0.295833339022973,0.0809396430850029,0.958752989768982,0.179288953542709
0,1.03888889197661,-0.12916666555545,-0.295833339022973,0.00549778714776039,0.770606517791748,0.160657554864883
0,0.993055557076942,-0.154166670830166,-0.211111128639904,0.108123145997524,0.963029086589813,0.0937678143382072
0,1.05833337834217,-0.18333333959868,-0.224999998848587,0.0821613743901253,1.12124311923981,0.0656680166721344
0,1.01527782720901,-0.156944454596674,-0.143055560076062,0.0815505087375641,0.717766642570496,0.0992656052112579
0,0.981944519258625,-0.180555567988136,-0.055555559848502,0.0558941699564457,0.299934834241867,0.0757472887635231
0,0.980555627375371,-0.156944454596674,-0.133333341205212,0.0345138870179653,0.282830595970154,0.0632245540618896
0,0.940277860008718,-0.150000007336368,-0.115277783190802,-0.00702495034784079,0.0305432621389627,0.011606439948082
0,0.958333357243305,-0.163888889701015,-0.13750000469901,-0.00885754637420177,0.0687223374843597,0.0021380283869803
0,1.00833336779274,-0.169444445078067,-0.150000007336368,0.017409659922123,0.120951317250729,-0.00824668072164059
0,1.03194452980806,-0.161111118090472,-0.13750000469901,0.0384845100343227,0.153938040137291,-0.00733038317412138
0,1.02361117850853,-0.144444451959316,-0.172222228844576,-0.0219911485910416,-0.00397062394768,0.0320704244077206
0,0.997222232726705,-0.150000007336368,-0.10972222781375,-0.0103847095742822,-0.0280998013913631,0.00580321997404099
0,1.01111115155925,-0.161111118090472,-0.150000007336368,0.0247400421649218,0.0403171069920063,-0.00549778714776039
0,1.00277780025972,-0.15555556271342,-0.138888896582264,-0.00366519158706069,-0.0662788823246956,0.02382374368608
0,1.00000001649321,-0.154166670830166,-0.13750000469901,-0.0161879286170006,-0.360105067491531,0.0342084541916847
0,0.983333411141879,-0.14583334384257,-0.141666668192807,-0.0390953756868839,-0.131030589342117,0.0464257597923279
0,1.01666671909226,-0.14583334384257,-0.159722226207217,-0.0378736443817616,-0.0894917547702789,0.03176499158144
0,0.977777843608863,-0.175000000455119,-0.15555556271342,-0.0186313893646002,0.0229074470698834,0.0598647929728031
0,1.03472221632685,-0.184722231481934,-0.140277788465518,0.0146607663482428,0.0461203269660473,0.0192422550171614
0,0.983333411141879,-0.181944447715425,-0.133333341205212,-0.0378736443817616,-0.0888808965682983,0.0189368221908808
0,1.03194452980806,-0.17361112072783,-0.18333333959868,0.0161879286170006,0.271835029125214,0.00610865233466029
0,1.03194452980806,-0.16527778158427,-0.170833336961321,-0.0210748501121998,0.257785141468048,0.00152716308366507
0,1.01388893532575,-0.154166670830166,-0.13750000469901,-0.308486938476563,0.0687223374843597,0.00977384392172098
0,1.00972225967599,-0.156944454596674,-0.205555561106887,-0.53481251001358,0.152410879731178,0.0342084541916847
0,1.00972225967599,-0.175000000455119,-0.0930555616825939,-0.309708684682846,0.0522289797663689,0.0222965814173222
0,0.997222232726705,-0.184722231481934,-0.0708333340964038,0.0152716310694814,-0.0378736443817616,-0.0329867228865623
0,0.993055557076942,-0.170833336961321,-0.0930555616825939,0.152716308832169,-0.143858760595322,-0.027488935738802
0,1.01388893532575,-0.14722222356986,-0.0430555572111439,0.589484989643097,-0.116675265133381,0.0357356183230877
0,0.980555627375371,-0.111111119697004,-0.248611112240049,0.0345138870179653,-0.211970239877701,0.0372627787292004
0,1.01944450285877,-0.14722222356986,-0.216666671860991,-0.0384845100343227,-0.0287106670439243,0.0222965814173222
0,1.03472221632685,-0.163888889701015,-0.175000000455119,-0.162795588374138,0.107206851243973,0.00427605677396059
0,1.00000001649321,-0.172222228844576,-0.151388899219622,-0.139277279376984,-0.0693332031369209,-0.0149661982432008
0,0.976388951725609,-0.169444445078067,-0.111111119697004,-0.0287106670439243,-0.172874867916107,-0.00366519158706069
0,0.98888888142718,-0.163888889701015,-0.130555557438704,-0.164322748780251,-0.217773467302322,0.0122173046693206
0,1.00000001649321,-0.156944454596674,-0.172222228844576,-0.26419922709465,-0.218689754605293,-0.00519235478714108
0,1.04583335139288,-0.152777778946911,-0.187500003092477,-0.136222943663597,0.0183259565383196,0.0400116741657257
0,1.05277781080915,-0.15555556271342,-0.17361112072783,0.0464257597923279,0.101709060370922,0.017409659922123
0,0.986111194908388,-0.188888894975731,-0.12777778582816,0.142331600189209,-0.00733038317412138,-0.0290160998702049
0,0.977777843608863,-0.180555567988136,-0.113888891307548,0.130725160241127,0.0552833043038845,-0.0833831056952477
0,0.993055557076942,-0.158333334323963,-0.18333333959868,-0.0635299831628799,0.129808858036995,0.00244346098043024
0,0.993055557076942,-0.161111118090472,-0.163888889701015,-0.132863193750381,0.087659165263176,0.029626963660121
0,1.00972225967599,-0.150000007336368,-0.125000002061652,-0.0342084541916847,0.0461203269660473,0.0271835029125214
0,1.00000001649321,-0.151388899219622,-0.14583334384257,-0.0284052342176437,0.0329867228865623,-0.00641408516094089
0,1.00277780025972,-0.163888889701015,-0.150000007336368,0.000610865245107561,0.0149661982432008,-0.019547687843442
0,0.987499989543926,-0.163888889701015,-0.131944449321958,0.0940732508897781,-0.143858760595322,0.0045814891345799
0,1.02222228662528,-0.154166670830166,-0.226388890731841,-0.144164204597473,-0.027488935738802,0.0531452745199203
0,1.05694448645892,-0.15555556271342,-0.202777789496344,-0.213497400283814,0.0977384373545647,0.00977384392172098
0,0.991666665193688,-0.176388892338373,-0.120833338567854,-0.142942473292351,-0.0791070461273193,-0.00916297826915979
0,0.940277860008718,-0.176388892338373,-0.0833333367337618,0.0800233483314514,-0.410806864500046,-0.00702495034784079
0,0.975000059842355,-0.162500009973726,-0.195833342236038,0.0311541277915239,-0.521068036556244,0.0311541277915239
0,1.05277781080915,-0.151388899219622,-0.243055569018962,-0.116980694234371,-0.273973047733307,0.00733038317412138
0,1.03750000009336,-0.154166670830166,-0.197222234119292,-0.111482910811901,-0.192727982997894,-0.0335975885391235
0,0.994444448960196,-0.150000007336368,-0.176388892338373,-0.0390953756868839,-0.0464257597923279,-0.0345138870179653
0,0.987499989543926,-0.150000007336368,-0.170833336961321,0.0739146918058395,0.0290160998702049,-0.00244346098043024
0,1.00972225967599,-0.154166670830166,-0.187500003092477,0.107817716896534,0.0455094613134861,0.0219911485910416
0,1.01388893532575,-0.161111118090472,-0.197222234119292,0.0812450796365738,0.11636982858181,0.0445931628346443
0,1.00277780025972,-0.156944454596674,-0.187500003092477,0.0152716310694814,0.124921940267086,0.0143553335219622
0,0.990277773310434,-0.15555556271342,-0.184722231481934,0.00366519158706069,0.150578290224075,0.00733038317412138
0,0.997222232726705,-0.163888889701015,-0.190277786858986,0.00855211354792118,0.178372651338577,0.0192422550171614
0,1.01805561097552,-0.168055565350778,-0.175000000455119,0.0659734457731247,0.248316720128059,0.00916297826915979
0,1.0305556379248,-0.17361112072783,-0.156944454596674,0.199447497725487,0.340251952409744,-0.019547687843442
0,1.01527782720901,-0.161111118090472,-0.13750000469901,0.267864406108856,0.334754168987274,-0.0488692186772823
0,0.984722303025134,-0.161111118090472,-0.134722233088466,0.262977480888367,0.245567828416824,-0.0308486949652433
0,0.984722303025134,-0.161111118090472,-0.134722233088466,0.197614908218384,0.122173048555851,-0.0210748501121998
0,1.00000001649321,-0.161111118090472,-0.16527778158427,0.105374254286289,-0.00794124789535999,-0.00427605677396059
0,1.01944450285877,-0.168055565350778,-0.158333334323963,0.03176499158144,0.0250454749912024,0.000610865245107561
0,1.01944450285877,-0.168055565350778,-0.158333334323963,0.0638354197144508,0.0696386396884918,0.000916297896765172
0,1.00694447590948,-0.163888889701015,-0.120833338567854,0.12675453722477,0.0436768643558025,-0.0167987942695618
0,1.00694447590948,-0.133333341205212,-0.161111118090472,0.221133217215538,0.0568104684352875,-0.0204639863222837
0,1.00694447590948,-0.133333341205212,-0.161111118090472,-0.176234617829323,-0.109955742955208,0.00885754637420177
0,0.98888888142718,-0.140277788465518,-0.170833336961321,-0.153021737933159,-0.116675265133381,-0.015577063895762
0,1.0305556379248,-0.163888889701015,-0.144444451959316,-0.105068825185299,-0.122478485107422,-0.00152716308366507
0,1.01666671909226,-0.169444445078067,-0.122222230451108,0.0656680166721344,-0.104152522981167,0.0100792767480016
0,1.00138890837647,-0.156944454596674,-0.12777778582816,0.0537561401724815,-0.0894917547702789,0.0204639863222837
0,1.0125000434425,-0.154166670830166,-0.176388892338373,-0.000610865245107561,-0.0763581544160843,0.0167987942695618
0,1.01388893532575,-0.152777778946911,-0.18333333959868,0.0219911485910416,-0.0357356183230877,0.0183259565383196
0,1.0125000434425,-0.159722226207217,-0.156944454596674,0.0916297882795334,0.00152716308366507,-0.00519235478714108
0,1.00555558402623,-0.163888889701015,-0.136111112815755,0.101709060370922,0.0442877300083637,0.00122173049021512
0,1.00694447590948,-0.170833336961321,-0.144444451959316,0.10567969083786,0.138666406273842,-0.0033597587607801
0,1.01944450285877,-0.170833336961321,-0.150000007336368,0.098960168659687,0.224492982029915,0.00366519158706069
0,1.02500007039179,-0.166666673467524,-0.148611115453114,0.0910189226269722,0.208305045962334,-0.0171042270958424
0,1.00277780025972,-0.156944454596674,-0.143055560076062,0.116675265133381,0.167377084493637,-0.0421497002243996
0,1.0125000434425,-0.162500009973726,-0.156944454596674,0.0913243517279625,0.137139245867729,-0.000610865245107561
5,0.98888888142718,-0.154166670830166,-0.152777778946911,-0.0543670058250427,-0.0161879286170006,0.0271835029125214
5,1.00000001649321,-0.16527778158427,-0.133333341205212,0.0103847095742822,0.0650571510195732,-0.00794124789535999
5,0.993055557076942,-0.168055565350778,-0.122222230451108,0.0305432621389627,-0.0146607663482428,-0.00946841109544039
5,1.00555558402623,-0.162500009973726,-0.130555557438704,0.0226020142436027,0.00488692196086049,-0.0140499006956816
5,1.01527782720901,-0.168055565350778,-0.141666668192807,0.0280998013913631,0.0134390350431204,-0.00702495034784079
5,1.01388893532575,-0.166666673467524,-0.140277788465518,0.0342084541916847,0.00549778714776039,-0.00794124789535999
5,1.0125000434425,-0.170833336961321,-0.143055560076062,0.03176499158144,0.0161879286170006,-0.00763581553474069
5,1.00972225967599,-0.16527778158427,-0.131944449321958,0.0171042270958424,0.0103847095742822,-0.00549778714776039
5,1.00555558402623,-0.163888889701015,-0.131944449321958,0.0109955742955208,0.01191187184304,-0.00366519158706069
5,1.00555558402623,-0.161111118090472,-0.13750000469901,0.00885754637420177,0.0033597587607801,-0.00549778714776039
5,1.01527782720901,-0.156944454596674,-0.120833338567854,0.0189368221908808,0.0100792767480016,-0.00488692196086049
5,1.00972225967599,-0.163888889701015,-0.131944449321958,0.015577063895762,0.00519235478714108,-0.00519235478714108
5,1.00972225967599,-0.163888889701015,-0.134722233088466,0.00702495034784079,0.00763581553474069,-0.0143553335219622
5,1.0125000434425,-0.170833336961321,-0.136111112815755,0.0167987942695618,0.0128281703218818,-0.00702495034784079
5,1.01111115155925,-0.166666673467524,-0.13750000469901,0.0177150927484035,0.0122173046693206,-0.00763581553474069
5,1.00555558402623,-0.16527778158427,-0.130555557438704,0.013744467869401,0.00244346098043024,-0.000916297896765172
5,1.00555558402623,-0.16527778158427,-0.140277788465518,0.0131336031481624,-0.0021380283869803,-0.00977384392172098
5,1.00833336779274,-0.158333334323963,-0.134722233088466,0.015577063895762,-0.0171042270958424,-0.00794124789535999
5,1.00833336779274,-0.162500009973726,-0.113888891307548,0.0171042270958424,-0.00488692196086049,-0.0045814891345799
5,1.00555558402623,-0.166666673467524,-0.12777778582816,0.0180205255746841,-0.0045814891345799,-0.000916297896765172
5,1.0125000434425,-0.159722226207217,-0.12777778582816,0.0235183127224445,-0.00794124789535999,0.000916297896765172
5,1.00972225967599,-0.163888889701015,-0.130555557438704,0.017409659922123,-0.00152716308366507,-0.00397062394768
5,1.00555558402623,-0.163888889701015,-0.130555557438704,0.0113010071218014,-0.0033597587607801,-0.00519235478714108
5,1.00972225967599,-0.163888889701015,-0.136111112815755,0.0177150927484035,-0.000305432622553781,-0.00580321997404099
5,1.01111115155925,-0.166666673467524,-0.13750000469901,0.00855211354792118,0.0033597587607801,-0.00794124789535999
5,1.00972225967599,-0.161111118090472,-0.134722233088466,0.00610865233466029,0.0027488935738802,0.00641408516094089
5,1.01388893532575,-0.161111118090472,-0.133333341205212,0.0106901414692402,0.00152716308366507,-0.0027488935738802
5,1.0125000434425,-0.154166670830166,-0.134722233088466,0.00794124789535999,-0.00488692196086049,0.00610865233466029
5,1.00555558402623,-0.15555556271342,-0.122222230451108,0.00366519158706069,-0.00794124789535999,0.000610865245107561
5,1.00972225967599,-0.156944454596674,-0.12777778582816,0.00824668072164059,-0.00305432616733015,-0.00122173049021512
5,1.01111115155925,-0.158333334323963,-0.134722233088466,0.00733038317412138,-0.00427605677396059,0.000610865245107561
5,1.01111115155925,-0.161111118090472,-0.13750000469901,-0.000610865245107561,0.000916297896765172,0.000916297896765172
5,1.01111115155925,-0.161111118090472,-0.13750000469901,0.00610865233466029,-0.00305432616733015,-0.00244346098043024
5,1.00555558402623,-0.161111118090472,-0.13750000469901,0.00824668072164059,-0.000610865245107561,0.00244346098043024
5,1.00555558402623,-0.163888889701015,-0.140277788465518,0.0113010071218014,-0.00733038317412138,0.00183259579353034
5,1.01111115155925,-0.159722226207217,-0.125000002061652,0.015577063895762,-0.0128281703218818,-0.00244346098043024
5,1.00972225967599,-0.162500009973726,-0.130555557438704,0.0186313893646002,-0.00885754637420177,-0.0027488935738802
5,1.0125000434425,-0.158333334323963,-0.136111112815755,0.01191187184304,-0.0109955742955208,0.000916297896765172
5,1.0125000434425,-0.154166670830166,-0.134722233088466,0.00610865233466029,-0.0128281703218818,0.00519235478714108
5,1.00972225967599,-0.156944454596674,-0.12777778582816,0.0045814891345799,-0.0152716310694814,-0.00488692196086049
5,1.00555558402623,-0.162500009973726,-0.12777778582816,0.0149661982432008,-0.019547687843442,0.00305432616733015
5,1.00833336779274,-0.156944454596674,-0.12916666555545,0.0100792767480016,-0.019547687843442,-0.00427605677396059
5,1.0125000434425,-0.161111118090472,-0.134722233088466,0.0146607663482428,-0.0146607663482428,0.00366519158706069
5,1.00833336779274,-0.152777778946911,-0.134722233088466,0.0100792767480016,-0.0146607663482428,0.0027488935738802
5,1.00972225967599,-0.156944454596674,-0.126388893944906,0.00977384392172098,-0.00641408516094089,0.00916297826915979
5,1.00972225967599,-0.163888889701015,-0.130555557438704,0.00977384392172098,-0.0210748501121998,0.00671951752156019
5,1.01111115155925,-0.163888889701015,-0.134722233088466,0.00152716308366507,-0.0290160998702049,0.0033597587607801
5,1.01527782720901,-0.159722226207217,-0.133333341205212,0.0021380283869803,-0.00977384392172098,0.00519235478714108
5,1.01527782720901,-0.159722226207217,-0.133333341205212,0.00763581553474069,-0.0143553335219622,0.01191187184304
5,1.00833336779274,-0.158333334323963,-0.141666668192807,-0.00580321997404099,-0.017409659922123,0.0128281703218818
5,1.00694447590948,-0.156944454596674,-0.12916666555545,-0.00519235478714108,-0.0247400421649218,0.00916297826915979
5,1.01111115155925,-0.162500009973726,-0.134722233088466,-0.00397062394768,-0.0213802829384804,0.013744467869401
5,1.01111115155925,-0.162500009973726,-0.134722233088466,-0.00305432616733015,-0.0259617734700441,0.00977384392172098
5,1.00972225967599,-0.163888889701015,-0.13750000469901,0.00152716308366507,-0.0180205255746841,0.0131336031481624
5,1.00972225967599,-0.162500009973726,-0.134722233088466,0.000916297896765172,-0.0167987942695618,0.00671951752156019
5,1.0125000434425,-0.161111118090472,-0.141666668192807,-0.00427605677396059,-0.019547687843442,0.0103847095742822
5,1.01388893532575,-0.159722226207217,-0.14583334384257,0.000305432622553781,-0.0241291765123606,0.00916297826915979
5,1.00972225967599,-0.166666673467524,-0.13750000469901,-0.00244346098043024,-0.0311541277915239,0.0109955742955208
5,1.00416669214298,-0.163888889701015,-0.134722233088466,0.00885754637420177,-0.0268780700862408,0.013744467869401
5,1.00555558402623,-0.162500009973726,-0.134722233088466,0.0122173046693206,-0.0284052342176437,0.011606439948082
5,1.00972225967599,-0.162500009973726,-0.143055560076062,0.0045814891345799,-0.0241291765123606,0.00671951752156019
5,1.00972225967599,-0.158333334323963,-0.140277788465518,0.00610865233466029,-0.0177150927484035,0.0149661982432008
5,1.0125000434425,-0.161111118090472,-0.14722222356986,0.00733038317412138,-0.0171042270958424,0.0177150927484035
5,1.00972225967599,-0.162500009973726,-0.140277788465518,0.00488692196086049,-0.0229074470698834,0.00610865233466029
5,1.0125000434425,-0.168055565350778,-0.14722222356986,0.0045814891345799,-0.0213802829384804,0.0125227374956012
5,1.00972225967599,-0.161111118090472,-0.144444451959316,-0.00366519158706069,-0.0186313893646002,0.0021380283869803
5,1.01111115155925,-0.161111118090472,-0.14583334384257,-0.0027488935738802,-0.0186313893646002,0.00977384392172098
5,1.00972225967599,-0.16527778158427,-0.152777778946911,-0.0149661982432008,-0.00763581553474069,0.0103847095742822
5,1.00694447590948,-0.166666673467524,-0.141666668192807,-0.00702495034784079,-0.0131336031481624,0.00519235478714108
5,1.00416669214298,-0.163888889701015,-0.144444451959316,-0.0128281703218818,-0.0149661982432008,0.0027488935738802
5,1.00694447590948,-0.161111118090472,-0.141666668192807,-0.0167987942695618,-0.0229074470698834,0.00702495034784079
5,1.00555558402623,-0.166666673467524,-0.134722233088466,-0.011606439948082,-0.0293215326964855,0.00977384392172098
5,1.0125000434425,-0.166666673467524,-0.143055560076062,-0.0189368221908808,-0.021685715764761,0.0146607663482428
5,1.00972225967599,-0.166666673467524,-0.150000007336368,-0.0189368221908808,-0.0192422550171614,0.00763581553474069
5,1.00972225967599,-0.170833336961321,-0.148611115453114,-0.0226020142436027,-0.0167987942695618,0.013744467869401
5,1.00555558402623,-0.166666673467524,-0.150000007336368,-0.0171042270958424,-0.0189368221908808,0.00824668072164059
5,1.00972225967599,-0.170833336961321,-0.14722222356986,-0.0177150927484035,-0.0204639863222837,0.00733038317412138
5,1.00555558402623,-0.166666673467524,-0.161111118090472,-0.01588249579072,-0.0167987942695618,0.00885754637420177
5,1.00833336779274,-0.169444445078067,-0.154166670830166,-0.0189368221908808,-0.0140499006956816,0.00824668072164059
5,1.00555558402623,-0.170833336961321,-0.150000007336368,-0.0192422550171614,-0.0171042270958424,0.011606439948082
5,1.00416669214298,-0.170833336961321,-0.154166670830166,-0.0204639863222837,-0.0140499006956816,0.0045814891345799
5,1.00972225967599,-0.17361112072783,-0.150000007336368,-0.0113010071218014,-0.00427605677396059,0.00366519158706069
5,1.00972225967599,-0.176388892338373,-0.152777778946911,-0.0131336031481624,-0.00519235478714108,0.00702495034784079
5,1.00694447590948,-0.17361112072783,-0.151388899219622,-0.00855211354792118,0.00183259579353034,0.00580321997404099
5,1.00972225967599,-0.166666673467524,-0.161111118090472,-0.0100792767480016,-0.00610865233466029,0.000610865245107561
5,1.00277780025972,-0.163888889701015,-0.156944454596674,-0.00824668072164059,-0.019547687843442,0.000916297896765172
5,1.00694447590948,-0.170833336961321,-0.161111118090472,-0.0106901414692402,-0.0167987942695618,0.0125227374956012
5,1.00555558402623,-0.170833336961321,-0.150000007336368,-0.00763581553474069,-0.0122173046693206,0.00763581553474069
5,1.00972225967599,-0.17361112072783,-0.154166670830166,0.000305432622553781,-0.00427605677396059,0.00671951752156019
5,1.00972225967599,-0.17361112072783,-0.154166670830166,-0.0100792767480016,0.000305432622553781,0.00916297826915979
5,1.00972225967599,-0.16527778158427,-0.150000007336368,-0.0171042270958424,-0.0100792767480016,0.00855211354792118
5,1.00972225967599,-0.16527778158427,-0.150000007336368,-0.0140499006956816,-0.00610865233466029,0.00763581553474069
5,1.01111115155925,-0.163888889701015,-0.156944454596674,-0.0213802829384804,-0.00549778714776039,-0.00580321997404099
5,1.00972225967599,-0.163888889701015,-0.156944454596674,-0.0244346093386412,-0.00366519158706069,0.00397062394768
5,1.00972225967599,-0.168055565350778,-0.161111118090472,-0.0329867228865623,0.00824668072164059,0.0100792767480016
5,1.00416669214298,-0.169444445078067,-0.156944454596674,-0.0280998013913631,0.00519235478714108,0.00427605677396059
5,1.00416669214298,-0.17361112072783,-0.156944454596674,-0.0290160998702049,-0.00305432616733015,0.00122173049021512
5,1.00694447590948,-0.17361112072783,-0.163888889701015,-0.0253509078174829,-0.00305432616733015,0.000305432622553781
5,1.00555558402623,-0.166666673467524,-0.152777778946911,-0.0259617734700441,-0.00427605677396059,0.00183259579353034
5,1.00555558402623,-0.16527778158427,-0.143055560076062,-0.0229074470698834,0.0045814891345799,0.00916297826915979
5,1.00972225967599,-0.169444445078067,-0.150000007336368,-0.0259617734700441,0.00916297826915979,0.00824668072164059
5,1.00277780025972,-0.166666673467524,-0.162500009973726,-0.0293215326964855,0.00122173049021512,0.0021380283869803
5,1.00277780025972,-0.175000000455119,-0.170833336961321,-0.0287106670439243,-0.00824668072164059,0.00397062394768
5,1.00694447590948,-0.170833336961321,-0.156944454596674,-0.027488935738802,0.00427605677396059,0.00916297826915979
5,1.00694447590948,-0.17361112072783,-0.151388899219622,-0.0268780700862408,0.00183259579353034,0.0128281703218818
5,1.00972225967599,-0.172222228844576,-0.159722226207217,-0.0232128798961639,0.00641408516094089,0.000610865245107561
5,1.00416669214298,-0.172222228844576,-0.161111118090472,-0.0262672062963247,0.00427605677396059,0.00549778714776039
5,1.00694447590948,-0.166666673467524,-0.163888889701015,-0.0256563406437635,0.0033597587607801,-0.0027488935738802
5,1.00833336779274,-0.166666673467524,-0.169444445078067,-0.0226020142436027,0.00397062394768,-0.000610865245107561
5,1.00555558402623,-0.166666673467524,-0.162500009973726,-0.0280998013913631,0.00580321997404099,-0.00824668072164059
5,1.00555558402623,-0.172222228844576,-0.152777778946911,-0.0329867228865623,0.00244346098043024,0.00580321997404099
5,1.00416669214298,-0.170833336961321,-0.156944454596674,-0.0268780700862408,-0.00519235478714108,-0.0027488935738802
5,1.00972225967599,-0.168055565350778,-0.159722226207217,-0.0329867228865623,-0.0128281703218818,0.000610865245107561
5,1.00694447590948,-0.159722226207217,-0.163888889701015,-0.0366519130766392,-0.00366519158706069,0.00183259579353034
5,1.00972225967599,-0.16527778158427,-0.163888889701015,-0.0424551330506802,0.00488692196086049,0.00152716308366507
5,1.00555558402623,-0.163888889701015,-0.166666673467524,-0.0427605658769607,-0.0027488935738802,0.0021380283869803
5,1.00694447590948,-0.166666673467524,-0.166666673467524,-0.0507018156349659,0.000305432622553781,0.00244346098043024
5,1.01111115155925,-0.161111118090472,-0.161111118090472,-0.0513126812875271,0.0021380283869803,0.00519235478714108
5,1.00972225967599,-0.161111118090472,-0.169444445078067,-0.04764748737216,0.0033597587607801,0.000610865245107561
5,1.00138890837647,-0.16527778158427,-0.154166670830166,-0.0464257597923279,0.00366519158706069,-0.000916297896765172
5,1.00277780025972,-0.166666673467524,-0.154166670830166,-0.0421497002243996,0.00397062394768,-0.00152716308366507
5,1.00694447590948,-0.169444445078067,-0.151388899219622,-0.0421497002243996,0.0106901414692402,0.0021380283869803
5,1.00694447590948,-0.17361112072783,-0.162500009973726,-0.0339030213654041,0.0109955742955208,0.0106901414692402
5,1.00277780025972,-0.170833336961321,-0.15555556271342,-0.0323758572340012,0.013744467869401,-0.00671951752156019
5,1.00972225967599,-0.17361112072783,-0.163888889701015,-0.0232128798961639,0.0186313893646002,-0.00488692196086049
5,1.00555558402623,-0.176388892338373,-0.176388892338373,-0.019547687843442,0.0164933614432812,0.00152716308366507
5,1.00555558402623,-0.17361112072783,-0.162500009973726,-0.0134390350431204,0.0100792767480016,0.000305432622553781
5,1.00555558402623,-0.179166676104882,-0.166666673467524,-0.00183259579353034,0.0226020142436027,-0.000916297896765172
5,1.00833336779274,-0.170833336961321,-0.168055565350778,0.000305432622553781,0.0189368221908808,-0.00702495034784079
5,1.00277780025972,-0.169444445078067,-0.163888889701015,0.00519235478714108,0.019547687843442,-0.01191187184304
5,1.00833336779274,-0.17361112072783,-0.169444445078067,0.0045814891345799,0.0186313893646002,-0.00885754637420177
5,1.00416669214298,-0.170833336961321,-0.159722226207217,0.000916297896765172,0.0128281703218818,0.000610865245107561
5,1.00138890837647,-0.169444445078067,-0.156944454596674,-0.00122173049021512,0.00702495034784079,-0.000610865245107561
5,1.00972225967599,-0.163888889701015,-0.150000007336368,0.00885754637420177,0.01588249579072,-0.000305432622553781
5,1.00416669214298,-0.162500009973726,-0.150000007336368,0.000916297896765172,0.00488692196086049,-0.000610865245107561
5,0.997222232726705,-0.159722226207217,-0.161111118090472,-0.00152716308366507,-0.0045814891345799,0.00946841109544039
5,1.00416669214298,-0.168055565350778,-0.159722226207217,-0.00244346098043024,-0.00977384392172098,0.013744467869401
5,1.01388893532575,-0.166666673467524,-0.16527778158427,0.00549778714776039,0.000305432622553781,0.00183259579353034
5,1.0125000434425,-0.169444445078067,-0.163888889701015,0.000610865245107561,0.00733038317412138,0.0045814891345799
5,1.00277780025972,-0.16527778158427,-0.162500009973726,0.0033597587607801,0.0027488935738802,-0.00305432616733015
5,1.00555558402623,-0.159722226207217,-0.159722226207217,0.00733038317412138,-0.00427605677396059,0.0033597587607801
5,1.00694447590948,-0.163888889701015,-0.159722226207217,0.00733038317412138,0.00122173049021512,0.0021380283869803
5,1.00416669214298,-0.162500009973726,-0.161111118090472,0.013744467869401,-0.000305432622553781,0.00519235478714108
5,1.00972225967599,-0.166666673467524,-0.148611115453114,0.0128281703218818,-0.0033597587607801,0.0045814891345799
5,1.01388893532575,-0.163888889701015,-0.156944454596674,0.0149661982432008,0.0125227374956012,0.00183259579353034
5,1.00972225967599,-0.163888889701015,-0.156944454596674,0.0045814891345799,0.0152716310694814,-0.0033597587607801
5,1.00555558402623,-0.161111118090472,-0.166666673467524,0.00183259579353034,0.0033597587607801,-0.00519235478714108
5,1.00555558402623,-0.161111118090472,-0.150000007336368,0.00366519158706069,0.00183259579353034,-0.00488692196086049
5,1.00833336779274,-0.169444445078067,-0.15555556271342,0.015577063895762,0.000916297896765172,-0.0149661982432008
5,1.00694447590948,-0.163888889701015,-0.154166670830166,0.01191187184304,0.00427605677396059,0.000305432622553781
5,1.00972225967599,-0.163888889701015,-0.156944454596674,0.0122173046693206,0.00549778714776039,-0.00671951752156019
5,1.00833336779274,-0.166666673467524,-0.156944454596674,0.0177150927484035,0.0045814891345799,-0.00733038317412138
5,1.00694447590948,-0.168055565350778,-0.150000007336368,0.0213802829384804,0.00305432616733015,-0.00733038317412138
5,1.00694447590948,-0.163888889701015,-0.152777778946911,0.0164933614432812,0.00916297826915979,-0.00885754637420177
5,1.00972225967599,-0.162500009973726,-0.158333334323963,0.0259617734700441,0.00702495034784079,-0.00977384392172098
5,1.00972225967599,-0.162500009973726,-0.158333334323963,0.0244346093386412,0.00366519158706069,-0.00946841109544039
5,1.0125000434425,-0.159722226207217,-0.154166670830166,0.021685715764761,0.0033597587607801,-0.00977384392172098
5,1.01111115155925,-0.16527778158427,-0.141666668192807,0.0198531206697226,-0.000610865245107561,0.0021380283869803
5,1.01111115155925,-0.16527778158427,-0.141666668192807,0.0284052342176437,-0.0033597587607801,-0.0146607663482428
5,1.00833336779274,-0.161111118090472,-0.141666668192807,0.0253509078174829,-0.0021380283869803,-0.00641408516094089
5,1.00972225967599,-0.163888889701015,-0.14722222356986,0.0262672062963247,0.00427605677396059,-0.00122173049021512
5,1.00555558402623,-0.161111118090472,-0.148611115453114,0.0241291765123606,-0.000916297896765172,-0.00641408516094089
5,1.00277780025972,-0.163888889701015,-0.148611115453114,0.0143553335219622,-0.0177150927484035,-0.00122173049021512
5,1.00833336779274,-0.163888889701015,-0.14722222356986,0.0204639863222837,-0.00244346098043024,-0.00885754637420177
5,1.00972225967599,-0.161111118090472,-0.156944454596674,0.02382374368608,-0.00794124789535999,-0.00702495034784079
5,1.01388893532575,-0.161111118090472,-0.158333334323963,0.019547687843442,0.00855211354792118,-0.00244346098043024
5,1.00972225967599,-0.162500009973726,-0.156944454596674,0.0247400421649218,0.0125227374956012,-0.00641408516094089
5,1.00138890837647,-0.162500009973726,-0.154166670830166,0.0177150927484035,0.000610865245107561,-0.00733038317412138
5,1.00833336779274,-0.163888889701015,-0.148611115453114,0.0146607663482428,0.000610865245107561,-0.00305432616733015
5,1.00555558402623,-0.163888889701015,-0.144444451959316,0.0109955742955208,-0.00122173049021512,-0.0027488935738802
5,1.00416669214298,-0.163888889701015,-0.140277788465518,0.0106901414692402,-0.00397062394768,0.00122173049021512
5,1.00972225967599,-0.156944454596674,-0.14722222356986,0.00824668072164059,0.0033597587607801,-0.00885754637420177
5,1.01111115155925,-0.156944454596674,-0.154166670830166,0.00549778714776039,-0.000610865245107561,-0.000610865245107561
5,1.0125000434425,-0.163888889701015,-0.14722222356986,-0.00305432616733015,-0.00122173049021512,-0.0033597587607801
5,1.0125000434425,-0.161111118090472,-0.150000007336368,-0.00733038317412138,-0.00610865233466029,-0.00244346098043024
5,1.0125000434425,-0.161111118090472,-0.148611115453114,-0.00122173049021512,0.0045814891345799,0.000916297896765172
5,1.00555558402623,-0.166666673467524,-0.14722222356986,-0.00152716308366507,-0.00183259579353034,0.00305432616733015
5,1.00555558402623,-0.163888889701015,-0.150000007336368,-0.0106901414692402,0.00152716308366507,-0.00397062394768
5,1.00833336779274,-0.166666673467524,-0.154166670830166,0.000916297896765172,-0.00122173049021512,0.0021380283869803
5,1.00694447590948,-0.16527778158427,-0.150000007336368,0.00122173049021512,0.0021380283869803,-0.000916297896765172
5,1.00694447590948,-0.163888889701015,-0.151388899219622,-0.00885754637420177,-0.00549778714776039,0.00427605677396059
5,1.00277780025972,-0.162500009973726,-0.150000007336368,-0.00305432616733015,-0.0164933614432812,0.00183259579353034
5,1.00555558402623,-0.163888889701015,-0.154166670830166,0.000610865245107561,-0.0177150927484035,-0.00671951752156019
5,1.00416669214298,-0.166666673467524,-0.154166670830166,0.00671951752156019,-0.0149661982432008,0.000610865245107561
5,1.00416669214298,-0.163888889701015,-0.161111118090472,-0.00122173049021512,-0.00641408516094089,0.000610865245107561
5,1.00972225967599,-0.163888889701015,-0.156944454596674,0.00427605677396059,-0.00702495034784079,0.00183259579353034
5,1.00416669214298,-0.168055565350778,-0.150000007336368,0.00855211354792118,-0.00733038317412138,0.00641408516094089
5,1.00416669214298,-0.166666673467524,-0.152777778946911,0.00397062394768,-0.00641408516094089,-0.00946841109544039
5,1.00277780025972,-0.163888889701015,-0.162500009973726,0.00488692196086049,-0.00671951752156019,0.00122173049021512
5,1.00972225967599,-0.166666673467524,-0.162500009973726,0.000610865245107561,-0.00488692196086049,0.00702495034784079
5,1.00833336779274,-0.166666673467524,-0.15555556271342,-0.0033597587607801,-0.00977384392172098,0.000610865245107561
5,1.00416669214298,-0.163888889701015,-0.14722222356986,0.000610865245107561,-0.00549778714776039,0.0021380283869803
5,1.00277780025972,-0.163888889701015,-0.151388899219622,0.0033597587607801,-0.013744467869401,0.000305432622553781
5,1.00277780025972,-0.166666673467524,-0.161111118090472,0.00763581553474069,-0.0186313893646002,0.0021380283869803
5,1.00694447590948,-0.161111118090472,-0.166666673467524,-0.00366519158706069,-0.0122173046693206,-0.00122173049021512
5,1.00277780025972,-0.168055565350778,-0.16527778158427,0.00610865233466029,-0.0134390350431204,0.00580321997404099
5,1.00416669214298,-0.163888889701015,-0.148611115453114,0.00305432616733015,-0.0109955742955208,0.0103847095742822
5,1.00277780025972,-0.161111118090472,-0.159722226207217,-0.00305432616733015,-0.0219911485910416,0.00488692196086049
5,1.00277780025972,-0.161111118090472,-0.161111118090472,0.000916297896765172,-0.0152716310694814,0.00763581553474069
5,1.00555558402623,-0.162500009973726,-0.152777778946911,0.0021380283869803,-0.0167987942695618,0.0134390350431204
5,1.00972225967599,-0.161111118090472,-0.148611115453114,-0.0045814891345799,-0.0125227374956012,0.0146607663482428
5,1.0125000434425,-0.163888889701015,-0.152777778946911,-0.0033597587607801,-0.0128281703218818,0.00824668072164059
5,1.00555558402623,-0.158333334323963,-0.161111118090472,-0.00305432616733015,-0.0167987942695618,0.00946841109544039
5,1.00833336779274,-0.162500009973726,-0.156944454596674,-0.0134390350431204,-0.0180205255746841,0.0027488935738802
5,1.00833336779274,-0.162500009973726,-0.156944454596674,-0.0045814891345799,-0.0134390350431204,0.0045814891345799
5,1.00694447590948,-0.163888889701015,-0.161111118090472,-0.00916297826915979,-0.00977384392172098,-0.000610865245107561
5,1.00972225967599,-0.163888889701015,-0.166666673467524,-0.00519235478714108,-0.00549778714776039,-0.00152716308366507
5,1.00416669214298,-0.166666673467524,-0.159722226207217,-0.00427605677396059,-0.00885754637420177,0.00427605677396059
5,1.00277780025972,-0.163888889701015,-0.156944454596674,-0.0128281703218818,-0.00305432616733015,0.000305432622553781
5,1.00277780025972,-0.170833336961321,-0.16527778158427,-0.00946841109544039,-0.0143553335219622,0.00671951752156019
5,1.00833336779274,-0.166666673467524,-0.161111118090472,-0.00610865233466029,-0.00916297826915979,0.0021380283869803
5,1.00555558402623,-0.169444445078067,-0.152777778946911,-0.00824668072164059,-0.00855211354792118,0.00244346098043024
5,1.00138890837647,-0.168055565350778,-0.163888889701015,-0.00885754637420177,0.000305432622553781,-0.00183259579353034
5,1.00138890837647,-0.170833336961321,-0.16527778158427,-0.0146607663482428,-0.0106901414692402,0.00671951752156019
5,1.00555558402623,-0.169444445078067,-0.163888889701015,-0.0122173046693206,-0.0241291765123606,0.0180205255746841
5,1.00416669214298,-0.168055565350778,-0.163888889701015,-0.013744467869401,-0.0247400421649218,0.0125227374956012
5,1.00972225967599,-0.166666673467524,-0.161111118090472,-0.00549778714776039,-0.0201585534960032,0.0134390350431204
5,1.0125000434425,-0.163888889701015,-0.168055565350778,0.00183259579353034,-0.0253509078174829,0.0171042270958424
5,1.00694447590948,-0.170833336961321,-0.158333334323963,-0.00305432616733015,-0.011606439948082,0.0122173046693206
5,1.00416669214298,-0.170833336961321,-0.17361112072783,0.00641408516094089,-0.0207694191485643,0.0134390350431204
5,1.00277780025972,-0.169444445078067,-0.17361112072783,0.0106901414692402,-0.0232128798961639,0.0113010071218014
5,1.00416669214298,-0.166666673467524,-0.168055565350778,0.00671951752156019,-0.0183259565383196,0.00580321997404099
5,1.00277780025972,-0.166666673467524,-0.176388892338373,0.0128281703218818,-0.00733038317412138,0.00671951752156019
5,1.00277780025972,-0.166666673467524,-0.176388892338373,0.00519235478714108,-0.0226020142436027,-0.00519235478714108
5,1.00555558402623,-0.162500009973726,-0.180555567988136,0.00397062394768,-0.015577063895762,0.00488692196086049
5,1.01111115155925,-0.163888889701015,-0.176388892338373,-0.0027488935738802,-0.00824668072164059,0.0146607663482428
5,1.01111115155925,-0.163888889701015,-0.176388892338373,-0.000916297896765172,-0.00977384392172098,0.00977384392172098
5,1.00138890837647,-0.169444445078067,-0.166666673467524,-0.00885754637420177,-0.00580321997404099,0.00488692196086049
5,1.00277780025972,-0.166666673467524,-0.176388892338373,-0.0100792767480016,0.00305432616733015,0.00610865233466029
5,1.00277780025972,-0.166666673467524,-0.176388892338373,-0.0161879286170006,-0.00549778714776039,0.00824668072164059
5,1.00555558402623,-0.172222228844576,-0.166666673467524,-0.00733038317412138,-0.00641408516094089,0.00519235478714108
5,1.00416669214298,-0.17361112072783,-0.166666673467524,-0.00641408516094089,-0.0100792767480016,-0.000916297896765172
5,1.00416669214298,-0.17361112072783,-0.166666673467524,-0.00366519158706069,-0.00366519158706069,0.0109955742955208
5,1.00833336779274,-0.169444445078067,-0.16527778158427,-0.0033597587607801,-0.00366519158706069,0.00916297826915979
5,1.00555558402623,-0.158333334323963,-0.16527778158427,-0.00519235478714108,-0.00244346098043024,0.00183259579353034
5,1.00555558402623,-0.169444445078067,-0.175000000455119,-0.00427605677396059,-0.00244346098043024,0.00671951752156019
5,1.00138890837647,-0.17361112072783,-0.162500009973726,-0.000305432622553781,-0.00183259579353034,0.00671951752156019
5,1.00277780025972,-0.172222228844576,-0.158333334323963,-0.0027488935738802,-0.00702495034784079,0.00183259579353034
5,1.00555558402623,-0.170833336961321,-0.166666673467524,0.00519235478714108,-0.00244346098043024,0.00305432616733015
5,1.00277780025972,-0.170833336961321,-0.166666673467524,0.00183259579353034,-0.00549778714776039,0.00305432616733015
5,1.00416669214298,-0.166666673467524,-0.166666673467524,0.00488692196086049,-0.0033597587607801,0.00763581553474069
5,1.00694447590948,-0.170833336961321,-0.168055565350778,0.0021380283869803,-0.00152716308366507,0.00916297826915979
5,1.00277780025972,-0.170833336961321,-0.17361112072783,0.00183259579353034,0.000610865245107561,0.00794124789535999
5,1.00416669214298,-0.170833336961321,-0.170833336961321,-0.000305432622553781,-0.00733038317412138,-0.00152716308366507
5,1.00555558402623,-0.172222228844576,-0.166666673467524,-0.000305432622553781,-0.01588249579072,0.0146607663482428
5,1.00277780025972,-0.172222228844576,-0.168055565350778,0.00244346098043024,0.0033597587607801,0.00671951752156019
5,1.00277780025972,-0.172222228844576,-0.170833336961321,0.00305432616733015,-0.000916297896765172,0.00702495034784079
5,1.00000001649321,-0.17361112072783,-0.175000000455119,0.000305432622553781,0.000916297896765172,0.00122173049021512
5,1.00138890837647,-0.17361112072783,-0.169444445078067,0.0143553335219622,-0.00824668072164059,0.00488692196086049
5,1.00555558402623,-0.169444445078067,-0.176388892338373,0.00916297826915979,-0.00580321997404099,-0.0027488935738802
5,1.00972225967599,-0.175000000455119,-0.166666673467524,0.00580321997404099,0.000610865245107561,-0.00366519158706069
5,1.00694447590948,-0.170833336961321,-0.175000000455119,0.0164933614432812,0.00122173049021512,0.00488692196086049
5,1.00138890837647,-0.170833336961321,-0.170833336961321,0.0027488935738802,-0.00397062394768,0.000305432622553781
5,1.00416669214298,-0.166666673467524,-0.170833336961321,-0.000305432622553781,-0.00427605677396059,0.00122173049021512
5,1.00277780025972,-0.163888889701015,-0.161111118090472,0.00366519158706069,0.00152716308366507,-0.00580321997404099
5,1.00277780025972,-0.163888889701015,-0.161111118090472,0.000305432622553781,0.00397062394768,-0.00549778714776039
5,1.00277780025972,-0.172222228844576,-0.166666673467524,0.0021380283869803,-0.00824668072164059,0.0021380283869803
5,1.00416669214298,-0.17361112072783,-0.176388892338373,0.00794124789535999,0.000305432622553781,0.00152716308366507
5,1.00416669214298,-0.17361112072783,-0.176388892338373,0.00671951752156019,0.00519235478714108,0.0033597587607801
5,1.00694447590948,-0.170833336961321,-0.181944447715425,0.00794124789535999,0.00244346098043024,0.00641408516094089
5,1.00416669214298,-0.170833336961321,-0.172222228844576,0.0186313893646002,-0.0033597587607801,-0.00794124789535999
5,1.00416669214298,-0.170833336961321,-0.172222228844576,0.0113010071218014,-0.0140499006956816,0.00397062394768
5,1.00277780025972,-0.170833336961321,-0.170833336961321,0.00946841109544039,-0.00549778714776039,-0.00427605677396059
5,1.00277780025972,-0.170833336961321,-0.170833336961321,0.0128281703218818,-0.00702495034784079,-0.00671951752156019
5,1.00277780025972,-0.176388892338373,-0.170833336961321,0.0198531206697226,-0.000610865245107561,0.00397062394768
5,1.00972225967599,-0.176388892338373,-0.17361112072783,0.0183259565383196,0.00183259579353034,-0.00122173049021512
5,1.00277780025972,-0.17361112072783,-0.17361112072783,0.0149661982432008,0.00427605677396059,0.00733038317412138
5,1.00277780025972,-0.17361112072783,-0.17361112072783,0.01191187184304,-0.00794124789535999,-0.00183259579353034
5,1.00555558402623,-0.170833336961321,-0.186111123365188,0.00916297826915979,0.000610865245107561,0.000610865245107561
5,1.01111115155925,-0.166666673467524,-0.180555567988136,0.0109955742955208,0.00427605677396059,0.00671951752156019
5,1.00694447590948,-0.163888889701015,-0.17361112072783,-0.00305432616733015,0.00366519158706069,0.00366519158706069
5,1.00555558402623,-0.16527778158427,-0.169444445078067,0.00488692196086049,-0.000916297896765172,0.00244346098043024
5,1.00277780025972,-0.166666673467524,-0.166666673467524,0.00305432616733015,-0.0033597587607801,-0.00122173049021512
5,1.00416669214298,-0.170833336961321,-0.17361112072783,0.00152716308366507,-0.00916297826915979,-0.00244346098043024
5,1.00555558402623,-0.170833336961321,-0.175000000455119,0.0027488935738802,0.00122173049021512,-0.00122173049021512
5,1.00416669214298,-0.170833336961321,-0.176388892338373,-0.0045814891345799,-0.0027488935738802,-0.0045814891345799
5,1.00416669214298,-0.163888889701015,-0.176388892338373,-0.00152716308366507,0.00794124789535999,-0.00641408516094089
5,1.00694447590948,-0.169444445078067,-0.166666673467524,-0.00152716308366507,0.01191187184304,-0.00641408516094089
5,1.00277780025972,-0.169444445078067,-0.161111118090472,0.00427605677396059,0.00977384392172098,0.0033597587607801
5,1.00000001649321,-0.168055565350778,-0.161111118090472,-0.00122173049021512,0.00488692196086049,0.00763581553474069
5,1.00138890837647,-0.166666673467524,-0.166666673467524,-0.00580321997404099,-0.00580321997404099,0.000305432622553781
5,1.00694447590948,-0.168055565350778,-0.166666673467524,-0.00641408516094089,-0.00366519158706069,0.00122173049021512
5,1.00694447590948,-0.169444445078067,-0.161111118090472,0.000305432622553781,-0.00671951752156019,0.000610865245107561
5,1.00555558402623,-0.163888889701015,-0.161111118090472,0.00397062394768,-0.00671951752156019,0.00549778714776039
5,1.00555558402623,-0.175000000455119,-0.163888889701015,0.0106901414692402,0.00122173049021512,0.00305432616733015
5,1.00416669214298,-0.175000000455119,-0.16527778158427,0.00610865233466029,0.00855211354792118,0.00519235478714108
5,1.00277780025972,-0.168055565350778,-0.169444445078067,0.00488692196086049,0.00366519158706069,0.000610865245107561
5,1.00277780025972,-0.170833336961321,-0.168055565350778,0.00152716308366507,-0.0033597587607801,-0.00855211354792118
5,1.00277780025972,-0.172222228844576,-0.168055565350778,0.00549778714776039,-0.0021380283869803,-0.00122173049021512
5,1.00555558402623,-0.172222228844576,-0.170833336961321,0.0161879286170006,-0.00488692196086049,-0.00427605677396059
5,1.00972225967599,-0.172222228844576,-0.166666673467524,0.0128281703218818,0.00702495034784079,-0.00946841109544039
5,1.00972225967599,-0.166666673467524,-0.170833336961321,0.0164933614432812,0.0045814891345799,0.00549778714776039
5,1.00277780025972,-0.168055565350778,-0.176388892338373,0.00885754637420177,0.0027488935738802,-0.00366519158706069
5,1.00138890837647,-0.175000000455119,-0.166666673467524,0.0100792767480016,-0.000305432622553781,-0.0027488935738802
5,1.00138890837647,-0.172222228844576,-0.161111118090472,0.00671951752156019,0.0100792767480016,-0.00152716308366507
5,1.00138890837647,-0.16527778158427,-0.170833336961321,0.00702495034784079,-0.000916297896765172,0.000305432622553781
5,1.00416669214298,-0.16527778158427,-0.175000000455119,-0.0021380283869803,-0.00122173049021512,0.000610865245107561
5,1.00555558402623,-0.166666673467524,-0.168055565350778,-0.00244346098043024,-0.0027488935738802,-0.00397062394768
5,1.00833336779274,-0.16527778158427,-0.163888889701015,-0.00152716308366507,-0.00519235478714108,0.00702495034784079
5,1.00833336779274,-0.169444445078067,-0.163888889701015,0.00549778714776039,-0.00152716308366507,0.00397062394768
5,1.00833336779274,-0.17361112072783,-0.184722231481934,0.00824668072164059,0.00152716308366507,-0.00183259579353034
5,1.00138890837647,-0.172222228844576,-0.17361112072783,0.00549778714776039,0.00427605677396059,-0.00305432616733015
5,1.00277780025972,-0.172222228844576,-0.170833336961321,0.0113010071218014,0.00977384392172098,0.00366519158706069
5,1.00277780025972,-0.166666673467524,-0.170833336961321,0.0143553335219622,0.00244346098043024,0.00305432616733015
5,1.00972225967599,-0.166666673467524,-0.166666673467524,0.0204639863222837,-0.0045814891345799,-0.0021380283869803
5,1.00833336779274,-0.168055565350778,-0.17361112072783,0.0134390350431204,-0.0021380283869803,0.00733038317412138
5,1.01111115155925,-0.16527778158427,-0.170833336961321,0.0164933614432812,0.00122173049021512,-0.0027488935738802
5,1.00694447590948,-0.166666673467524,-0.17361112072783,0.00916297826915979,-0.00824668072164059,-0.00519235478714108
5,1.00972225967599,-0.17361112072783,-0.16527778158427,0.0164933614432812,-0.00519235478714108,0.00305432616733015
5,1.00694447590948,-0.168055565350778,-0.170833336961321,0.0219911485910416,-0.00305432616733015,0.00244346098043024
5,1.00833336779274,-0.172222228844576,-0.176388892338373,0.0268780700862408,-0.000305432622553781,-0.00122173049021512
5,1.00694447590948,-0.166666673467524,-0.175000000455119,0.0177150927484035,0.00183259579353034,-0.00733038317412138
5,1.00555558402623,-0.170833336961321,-0.168055565350778,0.0143553335219622,0.00244346098043024,-0.0027488935738802
5,1.00416669214298,-0.169444445078067,-0.169444445078067,0.0149661982432008,-0.00610865233466029,0.00183259579353034
5,1.00555558402623,-0.161111118090472,-0.168055565350778,0.00580321997404099,-0.00610865233466029,-0.000305432622553781
5,1.00694447590948,-0.168055565350778,-0.159722226207217,0.000305432622553781,-0.000916297896765172,-0.00671951752156019
5,1.00833336779274,-0.170833336961321,-0.176388892338373,0.00855211354792118,-0.00427605677396059,0.00977384392172098
5,1.00555558402623,-0.17361112072783,-0.175000000455119,0.00488692196086049,0.0027488935738802,0.0033597587607801
5,1.00555558402623,-0.17361112072783,-0.175000000455119,0.00183259579353034,0.00610865233466029,-0.00977384392172098
5,1.00277780025972,-0.163888889701015,-0.170833336961321,0.00366519158706069,0.00397062394768,0.000610865245107561
5,1.00555558402623,-0.159722226207217,-0.16527778158427,0.00122173049021512,-0.000610865245107561,0.00580321997404099
5,1.00694447590948,-0.170833336961321,-0.163888889701015,0.00519235478714108,0.00305432616733015,0.00244346098043024
5,1.00277780025972,-0.169444445078067,-0.16527778158427,-0.00366519158706069,0.00122173049021512,-0.00152716308366507
5,1.00416669214298,-0.166666673467524,-0.166666673467524,-0.0021380283869803,0.0021380283869803,-0.000916297896765172
5,1.00555558402623,-0.172222228844576,-0.166666673467524,-0.00305432616733015,0.0027488935738802,0.0045814891345799
5,1.00555558402623,-0.175000000455119,-0.169444445078067,-0.0021380283869803,0.00427605677396059,0.00427605677396059
5,1.00555558402623,-0.170833336961321,-0.166666673467524,0.00610865233466029,-0.000916297896765172,-0.00122173049021512
5,1.00277780025972,-0.17361112072783,-0.158333334323963,0.00824668072164059,-0.00244346098043024,0.00580321997404099
5,1.00694447590948,-0.176388892338373,-0.16527778158427,0.00549778714776039,-0.0027488935738802,0.000916297896765172
5,1.00555558402623,-0.172222228844576,-0.166666673467524,0.00946841109544039,-0.000916297896765172,-0.00244346098043024
5,1.00277780025972,-0.17361112072783,-0.172222228844576,0.0103847095742822,0.00152716308366507,0.00244346098043024
5,1.00277780025972,-0.170833336961321,-0.17361112072783,0.013744467869401,0.00488692196086049,0.00366519158706069
5,1.00277780025972,-0.170833336961321,-0.17361112072783,0.000610865245107561,-0.00671951752156019,0.0021380283869803
5,1.00416669214298,-0.163888889701015,-0.170833336961321,0.000916297896765172,-0.00580321997404099,0.00244346098043024
5,1.00416669214298,-0.166666673467524,-0.163888889701015,-0.000305432622553781,0.00122173049021512,-0.00580321997404099
5,1.00416669214298,-0.166666673467524,-0.163888889701015,0.01191187184304,0.00794124789535999,-0.00366519158706069
5,1.00833336779274,-0.16527778158427,-0.169444445078067,0.00733038317412138,0.00794124789535999,-0.00152716308366507
5,1.00972225967599,-0.170833336961321,-0.17361112072783,0.00397062394768,0.0021380283869803,-0.00244346098043024
5,1.00972225967599,-0.170833336961321,-0.17361112072783,0.00122173049021512,0.00794124789535999,0.00702495034784079
5,1.00416669214298,-0.17361112072783,-0.161111118090472,-0.0045814891345799,0.00183259579353034,-0.00244346098043024
5,1.00972225967599,-0.169444445078067,-0.168055565350778,0.0125227374956012,-0.00366519158706069,0.00397062394768
5,1.00972225967599,-0.169444445078067,-0.168055565350778,0.00885754637420177,0.0021380283869803,-0.00366519158706069
5,1.00555558402623,-0.168055565350778,-0.170833336961321,0.0131336031481624,-0.00519235478714108,-0.00152716308366507
5,1.00555558402623,-0.170833336961321,-0.170833336961321,0.013744467869401,-0.00183259579353034,0.0027488935738802
5,1.00694447590948,-0.170833336961321,-0.176388892338373,0.000916297896765172,-0.000916297896765172,0.00549778714776039
5,1.00416669214298,-0.168055565350778,-0.16527778158427,0.0027488935738802,-0.00183259579353034,0.00427605677396059
5,1.00694447590948,-0.169444445078067,-0.161111118090472,0.000305432622553781,-0.00488692196086049,-0.0027488935738802
5,1.00277780025972,-0.166666673467524,-0.166666673467524,0.00244346098043024,-0.0125227374956012,0.000305432622553781
5,1.00694447590948,-0.172222228844576,-0.16527778158427,0.00152716308366507,0.000305432622553781,-0.0045814891345799
5,1.00555558402623,-0.176388892338373,-0.172222228844576,-0.00519235478714108,0.00183259579353034,-0.000610865245107561
5,1.00555558402623,-0.17361112072783,-0.163888889701015,0.0021380283869803,0.00641408516094089,-0.0027488935738802
5,0.998611124609959,-0.168055565350778,-0.163888889701015,0.00152716308366507,0.0021380283869803,-0.000305432622553781
5,1.00277780025972,-0.175000000455119,-0.162500009973726,-0.000916297896765172,-0.00305432616733015,-0.0027488935738802
5,1.00277780025972,-0.172222228844576,-0.169444445078067,0.00244346098043024,-0.0045814891345799,-0.00671951752156019
5,1.00833336779274,-0.16527778158427,-0.169444445078067,0.0033597587607801,-0.00152716308366507,0.000610865245107561
5,1.00555558402623,-0.166666673467524,-0.169444445078067,0.00733038317412138,0.00244346098043024,0.000305432622553781
5,1.00138890837647,-0.172222228844576,-0.161111118090472,0.00794124789535999,-0.000916297896765172,0.00366519158706069
5,1.00555558402623,-0.17361112072783,-0.170833336961321,0.00580321997404099,0.00122173049021512,-0.00183259579353034
5,1.00555558402623,-0.169444445078067,-0.170833336961321,0.00580321997404099,0.0027488935738802,-0.0045814891345799
5,1.00833336779274,-0.168055565350778,-0.163888889701015,0.0113010071218014,0.00183259579353034,0.00488692196086049
5,1.00277780025972,-0.168055565350778,-0.166666673467524,0.00794124789535999,-0.00152716308366507,0.000305432622553781
5,1.00138890837647,-0.168055565350778,-0.170833336961321,0.0021380283869803,0.00519235478714108,-0.00397062394768
5,1.00277780025972,-0.172222228844576,-0.163888889701015,0.0106901414692402,-0.0021380283869803,-0.00763581553474069
5,1.00277780025972,-0.172222228844576,-0.166666673467524,0.00885754637420177,-0.000916297896765172,0.00366519158706069
5,1.00555558402623,-0.170833336961321,-0.154166670830166,0.0143553335219622,0.000610865245107561,0.00641408516094089
5,1.00555558402623,-0.17361112072783,-0.163888889701015,0.0192422550171614,-0.00641408516094089,0.00519235478714108
5,1.00000001649321,-0.172222228844576,-0.16527778158427,0.00580321997404099,-0.0033597587607801,-0.00122173049021512
5,1.00277780025972,-0.170833336961321,-0.18333333959868,0.0128281703218818,-0.0027488935738802,-0.00549778714776039
5,1.00277780025972,-0.166666673467524,-0.177777784221628,0.00397062394768,0.0106901414692402,-0.00427605677396059
5,1.00972225967599,-0.163888889701015,-0.176388892338373,0.0106901414692402,0.000610865245107561,0.0045814891345799
5,1.00972225967599,-0.166666673467524,-0.175000000455119,0.0122173046693206,-0.00366519158706069,-0.00244346098043024
5,1.00833336779274,-0.170833336961321,-0.170833336961321,0.00397062394768,0.00366519158706069,0.000916297896765172
5,1.00833336779274,-0.166666673467524,-0.168055565350778,-0.00488692196086049,0.00580321997404099,0.00122173049021512
5,1.00277780025972,-0.166666673467524,-0.172222228844576,-0.0106901414692402,-0.000305432622553781,0.0033597587607801
5,1.00000001649321,-0.168055565350778,-0.163888889701015,-0.015577063895762,-0.00580321997404099,0.00366519158706069
5,1.00416669214298,-0.17361112072783,-0.17361112072783,0.0021380283869803,-0.00122173049021512,-0.00397062394768
5,1.00277780025972,-0.168055565350778,-0.17361112072783,0.00610865233466029,-0.00397062394768,0.0033597587607801
5,1.00555558402623,-0.16527778158427,-0.180555567988136,-0.00244346098043024,-0.000305432622553781,0.000305432622553781
5,1.00555558402623,-0.170833336961321,-0.175000000455119,-0.0045814891345799,0.0106901414692402,0.00916297826915979
5,1.00555558402623,-0.17361112072783,-0.175000000455119,-0.00916297826915979,0.00977384392172098,0.00427605677396059
5,1.00416669214298,-0.172222228844576,-0.172222228844576,-0.00488692196086049,0.0033597587607801,0.0045814891345799
5,1.00416669214298,-0.176388892338373,-0.161111118090472,0.00763581553474069,-0.00519235478714108,0.0045814891345799
5,1.00138890837647,-0.17361112072783,-0.15555556271342,0.0103847095742822,-0.00885754637420177,0.00427605677396059
5,1.00555558402623,-0.175000000455119,-0.166666673467524,0.0180205255746841,0.000610865245107561,-0.0033597587607801
5,1.00416669214298,-0.170833336961321,-0.16527778158427,0.0192422550171614,-0.0021380283869803,-0.0021380283869803
5,1.00138890837647,-0.169444445078067,-0.169444445078067,0.0106901414692402,0.000305432622553781,0.00152716308366507
5,1.00416669214298,-0.170833336961321,-0.168055565350778,0.0103847095742822,-0.00366519158706069,0.00397062394768
5,1.00972225967599,-0.168055565350778,-0.176388892338373,0.0152716310694814,-0.00794124789535999,0.00122173049021512
5,1.00694447590948,-0.170833336961321,-0.176388892338373,0.0143553335219622,-0.0113010071218014,-0.0131336031481624
5,1.00833336779274,-0.17361112072783,-0.17361112072783,0.01191187184304,-0.00824668072164059,-0.00244346098043024
5,1.00555558402623,-0.170833336961321,-0.170833336961321,0.0128281703218818,0.0045814891345799,0.00702495034784079
5,1.00416669214298,-0.172222228844576,-0.169444445078067,0.0152716310694814,0.00549778714776039,0.000610865245107561
5,1.00000001649321,-0.169444445078067,-0.169444445078067,0.00977384392172098,0.00183259579353034,0.00122173049021512
5,1.00000001649321,-0.169444445078067,-0.170833336961321,0.00763581553474069,-0.00580321997404099,-0.0027488935738802
5,1.00138890837647,-0.170833336961321,-0.161111118090472,0.00671951752156019,-0.000916297896765172,0.00122173049021512
5,0.997222232726705,-0.166666673467524,-0.169444445078067,0.00946841109544039,-0.00549778714776039,-0.000610865245107561
5,1.00000001649321,-0.166666673467524,-0.168055565350778,0.000916297896765172,-0.00122173049021512,-0.00183259579353034
5,1.00000001649321,-0.168055565350778,-0.168055565350778,0.00855211354792118,-0.00580321997404099,0.00733038317412138
5,1.00555558402623,-0.166666673467524,-0.16527778158427,0.0122173046693206,0.0027488935738802,-0.000610865245107561
5,1.00555558402623,-0.168055565350778,-0.161111118090472,0.00549778714776039,0.00397062394768,0.0021380283869803
5,1.00694447590948,-0.17361112072783,-0.163888889701015,0.00733038317412138,-0.0033597587607801,-0.0109955742955208
5,1.00555558402623,-0.170833336961321,-0.170833336961321,0.0122173046693206,0.00152716308366507,-0.00427605677396059
5,1.00277780025972,-0.170833336961321,-0.170833336961321,0.0109955742955208,-0.00366519158706069,0.00366519158706069
5,1.00555558402623,-0.170833336961321,-0.17361112072783,0.00671951752156019,0.00427605677396059,-0.00488692196086049
5,1.00555558402623,-0.170833336961321,-0.17361112072783,0.00671951752156019,-0.0033597587607801,0.00305432616733015
5,1.00555558402623,-0.176388892338373,-0.17361112072783,0.00855211354792118,-0.0103847095742822,-0.00305432616733015
5,1.00694447590948,-0.169444445078067,-0.168055565350778,0.00885754637420177,0.00183259579353034,-0.00183259579353034
5,1.00555558402623,-0.166666673467524,-0.181944447715425,0.0113010071218014,0.00549778714776039,-0.000916297896765172
5,1.00555558402623,-0.166666673467524,-0.179166676104882,0.00794124789535999,-0.0033597587607801,-0.00152716308366507
5,1.00694447590948,-0.17361112072783,-0.180555567988136,0.00641408516094089,-0.0122173046693206,-0.00397062394768
5,1.00555558402623,-0.166666673467524,-0.176388892338373,0.00763581553474069,-0.00549778714776039,-0.00488692196086049
5,1.00694447590948,-0.169444445078067,-0.181944447715425,0.00549778714776039,0.00946841109544039,-0.0128281703218818
5,1.00694447590948,-0.169444445078067,-0.181944447715425,0.00671951752156019,0.00610865233466029,-0.0045814891345799
5,1.00416669214298,-0.16527778158427,-0.172222228844576,0.00366519158706069,0.0146607663482428,0.00183259579353034
5,0.998611124609959,-0.163888889701015,-0.175000000455119,-0.00794124789535999,0.000916297896765172,0.00610865233466029
5,0.998611124609959,-0.163888889701015,-0.175000000455119,-0.00244346098043024,-0.000305432622553781,-0.0027488935738802
5,1.00555558402623,-0.172222228844576,-0.16527778158427,0.0140499006956816,0.00580321997404099,-0.00305432616733015
5,1.00000001649321,-0.175000000455119,-0.168055565350778,0.0100792767480016,-0.000916297896765172,-0.000305432622553781
5,1.00000001649321,-0.175000000455119,-0.168055565350778,0.00885754637420177,0.00427605677396059,0.00122173049021512
5,1.00555558402623,-0.17361112072783,-0.170833336961321,0.00824668072164059,0.013744467869401,-0.00122173049021512
5,1.00694447590948,-0.172222228844576,-0.166666673467524,0.00671951752156019,0.0045814891345799,-0.00122173049021512
5,1.00277780025972,-0.177777784221628,-0.177777784221628,0.0131336031481624,-0.00183259579353034,-0.00488692196086049
5,1.00138890837647,-0.17361112072783,-0.169444445078067,0.00946841109544039,-0.00610865233466029,0.0033597587607801
5,1.00416669214298,-0.168055565350778,-0.176388892338373,0.0125227374956012,-0.00122173049021512,-0.000610865245107561
5,1.00277780025972,-0.17361112072783,-0.169444445078067,0.01191187184304,0.00580321997404099,0.000916297896765172
5,1.00000001649321,-0.170833336961321,-0.170833336961321,0.00641408516094089,0.0021380283869803,0.00366519158706069
5,1.00416669214298,-0.166666673467524,-0.175000000455119,0.00244346098043024,0.00641408516094089,0.00183259579353034
5,1.00138890837647,-0.168055565350778,-0.170833336961321,0.00244346098043024,-0.000610865245107561,-0.0033597587607801
5,1.00277780025972,-0.170833336961321,-0.156944454596674,0.00122173049021512,-0.0027488935738802,-0.00244346098043024
5,1.00277780025972,-0.170833336961321,-0.168055565350778,0.000916297896765172,0.00183259579353034,-0.0033597587607801
5,1.00833336779274,-0.166666673467524,-0.17361112072783,0.00183259579353034,-0.00122173049021512,0.00580321997404099
5,1.00694447590948,-0.162500009973726,-0.170833336961321,0.0033597587607801,0.00916297826915979,-0.00671951752156019
5,1.00416669214298,-0.168055565350778,-0.177777784221628,0.00488692196086049,0.0033597587607801,0.000916297896765172
5,1.00555558402623,-0.175000000455119,-0.170833336961321,0.00580321997404099,-0.000916297896765172,-0.00702495034784079
5,1.00277780025972,-0.172222228844576,-0.161111118090472,0.00733038317412138,-0.00122173049021512,-0.00427605677396059
5,1.00416669214298,-0.17361112072783,-0.169444445078067,0.00610865233466029,0.0045814891345799,-0.00641408516094089
5,1.00555558402623,-0.172222228844576,-0.170833336961321,0.00916297826915979,0.00488692196086049,-0.00244346098043024
5,1.00277780025972,-0.170833336961321,-0.166666673467524,0.00183259579353034,-0.000610865245107561,-0.00427605677396059
5,1.00277780025972,-0.172222228844576,-0.168055565350778,0.00794124789535999,0.000610865245107561,-0.00183259579353034
5,1.00277780025972,-0.172222228844576,-0.17361112072783,0.00733038317412138,0.00488692196086049,-0.0045814891345799
5,0.998611124609959,-0.170833336961321,-0.180555567988136,0.00244346098043024,0.00397062394768,0.00122173049021512
5,1.00277780025972,-0.170833336961321,-0.180555567988136,0.00610865233466029,0.00366519158706069,-0.00305432616733015
5,1.00416669214298,-0.166666673467524,-0.161111118090472,0.00824668072164059,0.0027488935738802,-0.0033597587607801
5,1.00555558402623,-0.163888889701015,-0.180555567988136,0.00122173049021512,0.00519235478714108,0.00977384392172098
5,1.00416669214298,-0.166666673467524,-0.17361112072783,0.00427605677396059,0.00152716308366507,-0.00519235478714108
5,1.00277780025972,-0.166666673467524,-0.163888889701015,0.00794124789535999,0.00580321997404099,-0.00122173049021512
5,1.00277780025972,-0.169444445078067,-0.175000000455119,-0.000916297896765172,-0.00183259579353034,0.00152716308366507
5,1.00555558402623,-0.175000000455119,-0.166666673467524,0.0125227374956012,-0.00519235478714108,-0.000610865245107561
5,1.00555558402623,-0.168055565350778,-0.17361112072783,0.00824668072164059,0.00305432616733015,-0.00183259579353034
5,1.00694447590948,-0.170833336961321,-0.170833336961321,0.011606439948082,-0.0027488935738802,-0.00244346098043024
5,1.00277780025972,-0.17361112072783,-0.166666673467524,0.011606439948082,0.00397062394768,-0.000610865245107561
5,1.00277780025972,-0.17361112072783,-0.166666673467524,0.0100792767480016,0.00183259579353034,0.00152716308366507
5,1.00138890837647,-0.163888889701015,-0.176388892338373,-0.00183259579353034,0.00641408516094089,0.0045814891345799
5,1.00277780025972,-0.166666673467524,-0.166666673467524,-0.00733038317412138,-0.00702495034784079,0.000916297896765172
5,1.00277780025972,-0.166666673467524,-0.166666673467524,0.00366519158706069,-0.00885754637420177,0.00152716308366507
5,1.00555558402623,-0.175000000455119,-0.166666673467524,0.0143553335219622,-0.00366519158706069,-0.0033597587607801
5,1.00416669214298,-0.166666673467524,-0.17361112072783,0.013744467869401,0.00244346098043024,0.0033597587607801
5,1.00416669214298,-0.166666673467524,-0.17361112072783,0.00855211354792118,0.00916297826915979,-0.00122173049021512
5,1.00555558402623,-0.17361112072783,-0.163888889701015,0.0140499006956816,0.00702495034784079,0.000916297896765172
5,1.00277780025972,-0.166666673467524,-0.16527778158427,0.0143553335219622,-0.00549778714776039,-0.00549778714776039
5,1.00277780025972,-0.166666673467524,-0.16527778158427,0.01191187184304,-0.0021380283869803,-0.0027488935738802
5,0.998611124609959,-0.170833336961321,-0.161111118090472,0.00885754637420177,-0.0033597587607801,-0.00152716308366507
5,1.00277780025972,-0.17361112072783,-0.17361112072783,0.0128281703218818,0.00488692196086049,-0.00549778714776039
5,1.00277780025972,-0.170833336961321,-0.17361112072783,0.0149661982432008,0.00641408516094089,0.00152716308366507
5,1.00277780025972,-0.172222228844576,-0.166666673467524,0.0131336031481624,0.000305432622553781,0.0021380283869803
5,1.00277780025972,-0.170833336961321,-0.175000000455119,0.00641408516094089,-0.0027488935738802,-0.00152716308366507
5,0.998611124609959,-0.170833336961321,-0.176388892338373,0.0131336031481624,0.000305432622553781,-0.000610865245107561
5,1.00555558402623,-0.170833336961321,-0.170833336961321,0.0045814891345799,0.00244346098043024,0.00610865233466029
5,1.00555558402623,-0.16527778158427,-0.170833336961321,0.0113010071218014,-0.000916297896765172,0.000305432622553781
5,1.00555558402623,-0.168055565350778,-0.170833336961321,0.000610865245107561,-0.0027488935738802,0.0045814891345799
5,1.00277780025972,-0.17361112072783,-0.163888889701015,0.0113010071218014,-0.00671951752156019,0.00702495034784079
5,1.00694447590948,-0.168055565350778,-0.15555556271342,0.0146607663482428,-0.00610865233466029,0.00183259579353034
5,1.00833336779274,-0.172222228844576,-0.170833336961321,0.0143553335219622,-0.000305432622553781,0.00305432616733015
5,1.00694447590948,-0.17361112072783,-0.169444445078067,0.011606439948082,0.00519235478714108,0.00366519158706069
5,1.00555558402623,-0.168055565350778,-0.166666673467524,0.0164933614432812,0.00977384392172098,0.00152716308366507
5,1.00833336779274,-0.169444445078067,-0.161111118090472,0.0106901414692402,0.0021380283869803,-0.00183259579353034
5,1.00416669214298,-0.166666673467524,-0.169444445078067,0.011606439948082,-0.000610865245107561,-0.00794124789535999
5,1.00000001649321,-0.163888889701015,-0.168055565350778,0.0103847095742822,-0.00305432616733015,0.0021380283869803
5,1.00138890837647,-0.16527778158427,-0.170833336961321,0.0128281703218818,-0.00916297826915979,0.00519235478714108
5,1.00555558402623,-0.170833336961321,-0.166666673467524,0.0109955742955208,-0.00885754637420177,0.00305432616733015
5,1.00833336779274,-0.169444445078067,-0.166666673467524,0.00946841109544039,0.000610865245107561,-0.0021380283869803
5,1.00277780025972,-0.168055565350778,-0.162500009973726,0.00671951752156019,0.00763581553474069,0.00671951752156019
5,1.00277780025972,-0.162500009973726,-0.166666673467524,0.00733038317412138,-0.00702495034784079,0.00702495034784079
5,1.00277780025972,-0.166666673467524,-0.172222228844576,0.00671951752156019,0.00305432616733015,-0.00152716308366507
5,1.00277780025972,-0.166666673467524,-0.163888889701015,0.00244346098043024,0.00152716308366507,0.00152716308366507
5,1.00277780025972,-0.166666673467524,-0.162500009973726,0.0125227374956012,-0.00183259579353034,-0.000305432622553781
5,1.00277780025972,-0.166666673467524,-0.176388892338373,0.0161879286170006,0.000610865245107561,-0.0027488935738802
5,1.00416669214298,-0.170833336961321,-0.176388892338373,0.0125227374956012,-0.00366519158706069,0.00183259579353034
5,1.00277780025972,-0.170833336961321,-0.175000000455119,0.00946841109544039,0.00702495034784079,-0.0045814891345799
5,1.00416669214298,-0.169444445078067,-0.166666673467524,0.00946841109544039,0.0021380283869803,-0.00610865233466029
5,1.00277780025972,-0.169444445078067,-0.169444445078067,0.0106901414692402,-0.00366519158706069,0.00641408516094089
5,1.00277780025972,-0.175000000455119,-0.150000007336368,-0.00610865233466029,-0.00733038317412138,0.0021380283869803
5,1.00416669214298,-0.169444445078067,-0.166666673467524,0.0045814891345799,-0.00183259579353034,-0.00122173049021512
5,1.00555558402623,-0.168055565350778,-0.163888889701015,0.00671951752156019,-0.00702495034784079,-0.00488692196086049
5,1.00416669214298,-0.17361112072783,-0.163888889701015,0.0021380283869803,0.00122173049021512,0.00427605677396059
5,1.00555558402623,-0.176388892338373,-0.166666673467524,0.00610865233466029,0.00641408516094089,0.00305432616733015
5,1.00694447590948,-0.170833336961321,-0.163888889701015,0.00366519158706069,0.00397062394768,0.00152716308366507
5,1.00694447590948,-0.170833336961321,-0.169444445078067,0.00183259579353034,0.00183259579353034,0.000305432622553781
5,1.00138890837647,-0.166666673467524,-0.170833336961321,0.00366519158706069,-0.000916297896765172,0.000610865245107561
5,1.00138890837647,-0.166666673467524,-0.170833336961321,0.0113010071218014,-0.00733038317412138,0.00580321997404099
5,1.00555558402623,-0.169444445078067,-0.166666673467524,0.0125227374956012,-0.00641408516094089,0.00427605677396059
5,1.00277780025972,-0.170833336961321,-0.16527778158427,0.00977384392172098,0.00122173049021512,0.00733038317412138
5,1.00277780025972,-0.166666673467524,-0.163888889701015,0.00641408516094089,0.000610865245107561,0.0109955742955208
5,1.00555558402623,-0.166666673467524,-0.168055565350778,0.0021380283869803,0.0033597587607801,0.0033597587607801
5,1.00416669214298,-0.168055565350778,-0.16527778158427,0.0027488935738802,-0.0045814891345799,-0.00427605677396059
5,0.998611124609959,-0.166666673467524,-0.176388892338373,0.00427605677396059,-0.011606439948082,0.00244346098043024
5,1.00277780025972,-0.166666673467524,-0.17361112072783,-0.00244346098043024,-0.000305432622553781,0.0109955742955208
5,1.00694447590948,-0.170833336961321,-0.170833336961321,-0.00122173049021512,0.00855211354792118,0.00366519158706069
5,1.00694447590948,-0.170833336961321,-0.170833336961321,0.0033597587607801,-0.00305432616733015,0.00580321997404099
5,1.00138890837647,-0.176388892338373,-0.17361112072783,0.00122173049021512,0.000916297896765172,0.00427605677396059
5,1.00416669214298,-0.175000000455119,-0.168055565350778,0.0021380283869803,-0.00549778714776039,0.000916297896765172
5,1.00555558402623,-0.170833336961321,-0.172222228844576,0.0033597587607801,0.0045814891345799,0.0021380283869803
5,1.00694447590948,-0.17361112072783,-0.161111118090472,0.011606439948082,-0.00855211354792118,0.00397062394768
5,1.00694447590948,-0.170833336961321,-0.16527778158427,0.00702495034784079,-0.00946841109544039,-0.00122173049021512
5,1.00555558402623,-0.168055565350778,-0.170833336961321,0.00427605677396059,-0.00519235478714108,-0.000610865245107561
5,1.00555558402623,-0.17361112072783,-0.166666673467524,0.0109955742955208,-0.00305432616733015,0.00549778714776039
5,1.00555558402623,-0.169444445078067,-0.170833336961321,0.0106901414692402,-0.0103847095742822,0.00152716308366507
5,1.00555558402623,-0.176388892338373,-0.163888889701015,0.00641408516094089,-0.00305432616733015,-0.00488692196086049
5,1.00972225967599,-0.176388892338373,-0.170833336961321,0.00824668072164059,0.00244346098043024,-0.00183259579353034
5,1.00416669214298,-0.168055565350778,-0.172222228844576,0.0033597587607801,0.0109955742955208,-0.00610865233466029
5,1.00277780025972,-0.168055565350778,-0.168055565350778,-0.0027488935738802,0.00488692196086049,0.00122173049021512
5,1.00277780025972,-0.166666673467524,-0.169444445078067,-0.00183259579353034,-0.00366519158706069,0.00549778714776039
5,1.00277780025972,-0.169444445078067,-0.163888889701015,0.00397062394768,-0.00794124789535999,-0.0045814891345799
5,1.00555558402623,-0.172222228844576,-0.166666673467524,0.00488692196086049,-0.00549778714776039,0.00305432616733015
5,1.00555558402623,-0.176388892338373,-0.162500009973726,0.0100792767480016,-0.0045814891345799,0.000305432622553781
5,1.00555558402623,-0.175000000455119,-0.166666673467524,0.00733038317412138,-0.00885754637420177,0.00183259579353034
5,1.00000001649321,-0.170833336961321,-0.169444445078067,0.011606439948082,-0.00733038317412138,0.00397062394768
5,1.00138890837647,-0.169444445078067,-0.17361112072783,0.00824668072164059,-0.00702495034784079,0.00885754637420177
5,1.00416669214298,-0.170833336961321,-0.170833336961321,0.00855211354792118,-0.0207694191485643,0.013744467869401
5,1.00555558402623,-0.166666673467524,-0.161111118090472,0.0100792767480016,-0.0146607663482428,0.00671951752156019
5,1.00277780025972,-0.163888889701015,-0.166666673467524,0.0128281703218818,-0.013744467869401,-0.000305432622553781
5,1.00277780025972,-0.170833336961321,-0.176388892338373,0.0106901414692402,-0.00824668072164059,0.00733038317412138
5,1.00277780025972,-0.169444445078067,-0.16527778158427,0.0109955742955208,-0.00946841109544039,0.0113010071218014
5,1.00416669214298,-0.170833336961321,-0.176388892338373,0.0134390350431204,-0.00641408516094089,0.00671951752156019
5,1.00277780025972,-0.172222228844576,-0.17361112072783,0.0045814891345799,-0.00397062394768,0.00763581553474069
5,1.00138890837647,-0.170833336961321,-0.179166676104882,0.011606439948082,-0.00610865233466029,0.0103847095742822
5,1.00000001649321,-0.172222228844576,-0.17361112072783,0.0045814891345799,-0.00794124789535999,0.0021380283869803
5,1.00277780025972,-0.175000000455119,-0.180555567988136,0.00855211354792118,-0.0106901414692402,0.00305432616733015
5,1.00277780025972,-0.170833336961321,-0.177777784221628,0.0146607663482428,-0.0143553335219622,0.00122173049021512
5,1.01111115155925,-0.17361112072783,-0.179166676104882,0.00885754637420177,-0.00427605677396059,0.00794124789535999
5,1.00555558402623,-0.176388892338373,-0.163888889701015,0.00671951752156019,-0.0045814891345799,0.0045814891345799
5,1.00000001649321,-0.175000000455119,-0.162500009973726,0.00397062394768,0.00702495034784079,-0.00244346098043024
5,1.00000001649321,-0.176388892338373,-0.170833336961321,0.00580321997404099,-0.000610865245107561,-0.0021380283869803
5,1.00000001649321,-0.17361112072783,-0.177777784221628,-0.00244346098043024,-0.0033597587607801,0.00183259579353034
5,1.00555558402623,-0.170833336961321,-0.169444445078067,0.00794124789535999,-0.00702495034784079,0.00397062394768
5,1.00000001649321,-0.175000000455119,-0.172222228844576,0.00519235478714108,-0.00183259579353034,0.00122173049021512
5,1.00000001649321,-0.175000000455119,-0.166666673467524,0.00977384392172098,0.00122173049021512,0.00916297826915979
5,0.998611124609959,-0.170833336961321,-0.16527778158427,0.00763581553474069,-0.00916297826915979,0.00824668072164059
5,1.00277780025972,-0.170833336961321,-0.17361112072783,0.00549778714776039,-0.00549778714776039,0.00855211354792118
5,1.00277780025972,-0.17361112072783,-0.176388892338373,0.00702495034784079,-0.0113010071218014,0.00427605677396059
5,1.00555558402623,-0.170833336961321,-0.179166676104882,0.0131336031481624,-0.00580321997404099,0.0021380283869803
5,1.00277780025972,-0.176388892338373,-0.180555567988136,0.0106901414692402,-0.0045814891345799,-0.000305432622553781
5,1.00277780025972,-0.169444445078067,-0.187500003092477,0.00763581553474069,-0.00610865233466029,0.00427605677396059
5,1.00277780025972,-0.170833336961321,-0.181944447715425,0.00580321997404099,-0.00519235478714108,-0.000610865245107561
5,1.00416669214298,-0.17361112072783,-0.176388892338373,0.0128281703218818,-0.00122173049021512,-0.000610865245107561
