Activity,acc_x,acc_y,acc_z,gyro_x,gyro_y,gyro_z
0,0.488888921804431,0.0430555572111439,0.880555606276507,0.00916297826915979,0.0387899428606033,-0.0354301854968071
0,0.488888921804431,0.0416666683668809,0.894444525109048,-0.0235183127224445,0.0210748501121998,-0.0293215326964855
0,0.481944462388161,0.0416666683668809,0.880555606276507,-0.0284052342176437,0.0552833043038845,-0.0256563406437635
0,0.480555570504907,0.0416666683668809,0.880555606276507,-0.00519235478714108,0.0549778714776039,-0.0226020142436027
0,0.480555570504907,0.0416666683668809,0.880555606276507,-0.00885754637420177,0.0406225398182869,-0.0293215326964855
0,0.473611111088636,0.0361111129898289,0.880555606276507,-0.0222965814173222,0.017409659922123,-0.0241291765123606
0,0.47500000297189,0.0361111129898289,0.888888957576031,-0.0293215326964855,0.0348193198442459,-0.00488692196086049
0,0.469444484062732,0.0416666683668809,0.877777822509998,-0.0268780700862408,0.0189368221908808,0.00916297826915979
0,0.476388894855144,0.0388888906783549,0.883333390043015,-0.0409279726445675,0.0265726372599602,-0.0027488935738802
0,0.481944462388161,0.0375000018340919,0.87500003874349,-0.021685715764761,0.0384845100343227,-0.00519235478714108
0,0.477777786738398,0.0375000018340919,0.870833363093728,-0.0192422550171614,0.0433714315295219,-0.015577063895762
0,0.476388894855144,0.0388888906783549,0.876388930626744,-0.0268780700862408,0.0974330082535744,-0.0113010071218014
0,0.468055592179478,0.0402777795226179,0.880555606276507,-0.058643065392971,0.156686931848526,0.00733038317412138
0,0.466666700296224,0.0541666679652478,0.887500065692777,-0.0781907513737679,0.167682513594627,0.0647517144680023
0,0.449999997697174,0.0472222237439329,0.899999995394348,0.00794124789535999,0.0543670058250427,0.019547687843442
0,0.480555570504907,0.0375000018340919,0.916666697993398,0.0445931628346443,0.0192422550171614,0.0045814891345799
0,0.469444484062732,0.0444444460554069,0.908333346693873,0.0357356183230877,0.0522289797663689,0.00733038317412138
0,0.462500024646461,0.0416666683668809,0.89722221162784,0.0540615729987621,0.0149661982432008,-0.00397062394768
0,0.473611111088636,0.0361111129898289,0.895833319744586,0.0794124826788902,-0.0183259565383196,-0.011606439948082
0,0.473611111088636,0.0347222241455659,0.902777779160856,0.0901026204228401,-0.0332921557128429,-0.0164933614432812
0,0.472222219205382,0.0402777795226179,0.89166674134254,0.0833831056952477,-0.00946841109544039,0.0219911485910416
0,0.468055592179478,0.0388888906783549,0.893055633225794,0.0797179117798805,0.0357356183230877,-0.0027488935738802
0,0.473611111088636,0.0402777795226179,0.880555606276507,0.0946841165423393,-0.00549778714776039,-0.00427605677396059
0,0.466666700296224,0.0472222237439329,0.887500065692777,0.0959058403968811,-0.00183259579353034,0.0256563406437635
0,0.452777781463682,0.055555559848502,0.89722221162784,0.0733038261532784,0.00916297826915979,0.0171042270958424
0,0.469444484062732,0.052777782159976,0.894444525109048,0.0241291765123606,0.0122173046693206,0.021685715764761
0,0.466666700296224,0.0486111125881959,0.89166674134254,0.0284052342176437,0.0265726372599602,0.00702495034784079
0,0.466666700296224,0.0472222237439329,0.895833319744586,0.0436768643558025,0.0207694191485643,0.00794124789535999
0,0.462500024646461,0.0486111125881959,0.893055633225794,0.0415388382971287,-0.017409659922123,0.011606439948082
0,0.466666700296224,0.0486111125881959,0.884722281926269,0.037568211555481,-0.0326812900602817,0.00671951752156019
0,0.470833327322128,0.0416666683668809,0.887500065692777,0.0149661982432008,-0.0351247526705265,0.0045814891345799
0,0.473611111088636,0.0361111129898289,0.904166671044111,0.00366519158706069,-0.115148097276688,0.0192422550171614
0,0.46527780841297,0.0430555572111439,0.930555616825939,0.0311541277915239,-0.218689754605293,0.0210748501121998
0,0.483333354271415,0.0416666683668809,0.933333400592447,0.0109955742955208,-0.242208063602448,0.0280998013913631
0,0.49444444071359,0.0416666683668809,0.926388941176177,-0.0204639863222837,-0.229685336351395,0.0378736443817616
0,0.493055597454194,0.0458333348996699,0.911111130460381,-0.0140499006956816,-0.237626582384109,0.0268780700862408
0,0.486111138037923,0.055555559848502,0.886111173809523,0.0198531206697226,-0.280387133359909,0.0103847095742822
0,0.456944457113445,0.0652777787193518,0.854166660494678,0.0390953756868839,-0.29107728600502,-0.0406225398182869
0,0.430555559955475,0.0680555564078778,0.805555590452358,0.0394008085131645,-0.17989981174469,-0.0977384373545647
0,0.406944470875941,0.0625000010308258,0.769444450111609,0.0748309940099716,-0.0201585534960032,-0.123700208961964
0,0.411111122213775,0.055555559848502,0.737500034044481,0.0797179117798805,0.204334422945976,-0.129503428936005
0,0.416666689746791,0.0486111125881959,0.725000007095193,0.0800233483314514,0.302683740854263,-0.129503428936005
0,0.423611149163062,0.0513888902767219,0.737500034044481,0.0378736443817616,0.265420943498612,-0.117896988987923
0,0.46527780841297,0.0486111125881959,0.790277828360421,0.0106901414692402,0.252592772245407,-0.134390354156494
0,0.512500035195893,0.0583333375370279,0.855555552377932,-0.0885754600167274,0.224492982029915,-0.096211276948452
0,0.548611126912784,0.0541666679652478,0.954166681593543,-0.0748309940099716,0.200058370828629,-0.0494800843298435
0,0.569444456537738,0.055555559848502,1.02500007039179,-0.00916297826915979,0.0928515195846558,0.00152716308366507
0,0.609722223904392,0.0513888902767219,1.08194444310977,0.00671951752156019,-0.0839939713478088,0.0623082555830479
0,0.633333337295854,0.0541666679652478,1.09166668629255,-0.0745255574584007,-0.257174253463745,0.130419731140137
0,0.627777818386695,0.0486111125881959,1.06388894587519,-0.181426972150803,-0.299629390239716,0.175929188728332
0,0.587500002396184,0.0430555572111439,1.00555558402623,-0.228158175945282,-0.324674874544144,0.196393176913261
0,0.533333364820847,0.0388888906783549,0.93750007624221,-0.223271250724793,-0.34941491484642,0.183565005660057
0,0.490277813687686,0.029166668768514,0.86805557932722,-0.143858760595322,-0.325285732746124,0.119424156844616
0,0.490277813687686,0.029166668768514,0.86805557932722,-0.0177150927484035,-0.273362189531326,0.0436768643558025
0,0.404166687109433,0.03194444645704,0.781944477060896,0.209221348166466,-0.153632611036301,-0.0522289797663689
0,0.363888895430851,0.0347222241455659,0.725000007095193,0.351552963256836,-0.0461203269660473,-0.104763388633728
0,0.354166676560001,0.0375000018340919,0.687500023495048,0.408057987689972,-0.0806342139840126,-0.134695783257484
0,0.381944465601225,0.0513888902767219,0.668055585753349,0.389732033014297,-0.137750118970871,-0.129197999835014
0,0.4194444735133,0.0388888906783549,0.702777785586986,0.222660377621651,-0.0268780700862408,-0.100792765617371
0,0.47500000297189,0.0708333340964038,0.770833341994863,0.0931569486856461,0.0791070461273193,-0.0616973899304867
0,0.480555570504907,0.0833333367337618,0.82916670384382,-0.0519235469400883,0.187230199575424,0.00519235478714108
0,0.483333354271415,0.0861111144222878,0.85138887672817,-0.171653136610985,0.259006857872009,0.0574213340878487
0,0.497222224480098,0.0763888894734557,0.87500003874349,-0.258090555667877,0.302378296852112,0.108734011650086
0,0.516666662221798,0.0666666706026059,0.915277806110144,-0.230907067656517,0.230907067656517,0.157908663153648
0,0.548611126912784,0.0652777787193518,0.940277860008718,-0.167682513594627,0.189062789082527,0.195171445608139
0,0.554166694445801,0.0597222233422998,0.930555616825939,-0.129503428936005,0.16951510310173,0.214719131588936
0,0.531944472937593,0.0583333375370279,0.919444481759906,-0.0949895456433296,0.147218525409698,0.22785273194313
0,0.538888932353864,0.0500000014324589,0.905555562927365,-0.01191187184304,0.0836885422468185,0.180816113948822
0,0.536111148587356,0.0416666683668809,0.918055589876652,0.0913243517279625,-0.0720821022987366,0.160046696662903
0,0.488888921804431,0.0388888906783549,0.916666697993398,0.160046696662903,-0.175623759627342,0.22174409031868
0,0.504166683896369,0.0388888906783549,0.909722238577127,0.279165416955948,-0.234877690672875,0.183565005660057
0,0.516666662221798,0.0444444460554069,0.902777779160856,0.29596421122551,-0.276721954345703,0.121256753802299
0,0.563888889004722,0.029166668768514,0.870833363093728,0.25411993265152,-0.372322380542755,0.0635299831628799
0,0.563888889004722,0.029166668768514,0.870833363093728,0.193338856101036,-0.388204872608185,0.0540615729987621
0,0.53750004047061,0.027777779924251,0.85138887672817,0.161879286170006,-0.329561799764633,0.0406225398182869
0,0.525000013521323,0.0388888906783549,0.844444514559616,0.145080491900444,-0.301156580448151,0.0500909499824047
0,0.525000013521323,0.0388888906783549,0.844444514559616,0.119424156844616,-0.199142068624496,0.0372627787292004
0,0.530555581054339,0.0444444460554069,0.819444460661041,0.0580321997404099,-0.161879286170006,-0.0143553335219622
0,0.584722267253534,0.029166668768514,0.831944487610329,0.0113010071218014,-0.230907067656517,-0.0583376325666905
0,0.54027777561326,0.0402777795226179,0.843055622676362,-0.0427605658769607,-0.251676470041275,-0.0305432621389627
0,0.497222224480098,0.0486111125881959,0.85138887672817,0.01191187184304,0.0629191175103188,-0.0198531206697226
0,0.50138890012986,0.0513888902767219,0.808333374218867,0.064446285367012,0.114231802523136,-0.013744467869401
0,0.529166689171085,0.0194444453391775,0.765277823085705,0.0491746515035629,0.0607810914516449,-0.029626963660121
0,0.529166689171085,0.0194444453391775,0.765277823085705,-0.473115146160126,-1.3567316532135,0.775187969207764
0,0.587500002396184,0.0513888902767219,0.647222256128395,-0.994488596916199,-1.46821463108063,0.649655163288116
0,0.52083333787156,-0.0638888929140799,0.644444472361887,-1.29747772216797,-1.15087008476257,0.949590027332306
0,0.52083333787156,-0.0638888929140799,0.644444472361887,-1.09925198554993,-1.29778325557709,0.990517973899841
0,0.562499997121468,0.0375000018340919,0.780555585177642,-0.57604593038559,-1.10749864578247,0.691499471664429
0,0.615277791437408,0.0375000018340919,0.826388920077312,-0.0546724386513233,-1.21440005302429,0.564439475536346
0,0.733333358394718,-0.029166668768514,0.831944487610329,-0.118507854640484,-1.45752441883087,0.362243086099625
0,0.806944482335612,-0.0208333341834404,0.697222266677827,-0.439212113618851,-1.03633284568787,0.125838235020638
0,0.863888903677457,-0.0819444448505077,0.722222271952543,-0.402865618467331,-0.800233483314514,-0.0354301854968071
0,0.862500011794203,-0.130555557438704,0.768055606852213,0.143247902393341,-0.774271726608276,-0.243735238909721
0,0.848611190209378,-0.112499999424294,0.834722271376837,0.406225383281708,-1.25471723079681,-0.17470745742321
0,0.762500039319197,-0.144444451959316,0.745833336720147,-0.0384845100343227,-1.28159523010254,0.745561003684998
0,0.656944450687316,-0.111111119697004,0.637500012945616,0.129808858036995,-1.70064878463745,0.991128861904144
0,0.863888903677457,-0.148611115453114,0.676388937052873,0.523511528968811,-1.80266332626343,0.690583169460297
0,1.01666671909226,-0.202777789496344,0.673611153286365,0.904691457748413,-1.99508583545685,0.390953749418259
0,0.975000059842355,-0.226388890731841,0.679166672195524,0.843604922294617,-2.42421865463257,0.340251952409744
0,0.990277773310434,-0.175000000455119,0.618055575203916,0.681420207023621,-2.43185448646545,0.0681114718317986
0,0.973611167959101,-0.141666668192807,0.531944472937593,0.31703907251358,-2.81120181083679,0.101098194718361
0,0.940277860008718,-0.187500003092477,0.459722240879953,0.436768651008606,-2.7513370513916,-0.183870434761047
0,0.872222254976982,-0.188888894975731,0.412500014097029,0.328034639358521,-3.68504452705383,-0.03176499158144
0,0.863888903677457,-0.233333350148112,0.340277782039389,-0.134390354156494,-5.67035675048828,0.273056775331497
0,0.869444471210474,-0.275000009398019,0.177777784221628,-0.423024177551269,-6.77602291107178,0.298407673835754
0,0.818055568777787,-0.0388888906783549,0.0958333393711199,-0.811534464359283,-6.98402214050293,-0.0827722400426865
0,0.880555606276507,-0.0250000007162294,0.00277777787846293,-1.69606733322144,-8.85724067687988,-1.38391518592834
0,0.862500011794203,-0.130555557438704,0.393055576355329,1.43889307975769,-1.17652642726898,-1.58305728435516
0,1.13194445365921,-0.144444451959316,0.176388892338373,2.35091495513916,0.367740869522095,-0.989907145500183
0,0.911111130460381,0.0152777788063885,-0.118055554801345,0.853073298931122,-1.6111570596695,-0.250760197639465
0,1.00555558402623,0.159722226207217,-0.236111109602691,-0.00885754637420177,-2.66489958763123,0.0045814891345799
0,1.01944450285877,-0.00277777787846293,-0.181944447715425,-0.425467640161514,-2.83533096313477,0.350025773048401
0,0.784722260827405,-0.126388893944906,-0.283333336385615,-0.793208539485931,-3.32310700416565,0.98929625749588
0,0.758333363669434,-0.102777780553444,-0.370833354847121,-0.839023411273956,-3.10044646263123,1.35489916801453
0,0.887500065692777,-0.116666675074056,-0.226388890731841,0.69272118806839,0.647517144680023,1.22478485107422
0,0.887500065692777,-0.116666675074056,-0.226388890731841,0.705854773521423,0.184786736965179,0.812756180763245
0,1.11527784830787,-0.104166672436698,-0.279166685047782,0.328950941562653,-0.420886158943176,0.0726929605007172
0,0.962500032893068,-0.0777777813567098,-0.288888903918631,0.290771842002869,-0.0537561401724815,-0.143858760595322
0,1.01111115155925,-0.0638888929140799,-0.354166676560001,0.10048733651638,-0.01588249579072,-0.159435823559761
0,0.95000000594378,-0.0888888921108138,-0.390277792588821,0.224798411130905,0.749837100505829,-0.0403171069920063
0,0.869444471210474,-0.0861111144222878,-0.411111122213775,0.0351247526705265,0.997237503528595,-0.0824668109416962
0,0.743055601577497,-0.181944447715425,-0.49444444071359,0.206472456455231,0.923628270626068,1.89337682723999
0,0.89722221162784,-0.187500003092477,-0.404166687109433,-0.146302223205566,0.328340083360672,1.55190312862396
0,1.17916668044213,-0.150000007336368,-0.345833349572405,-0.153632611036301,0.16920967400074,1.2400563955307
0,0.940277860008718,-0.169444445078067,-0.363888895430851,-0.0525344125926495,0.30695977807045,1.45660817623138
0,0.933333400592447,-0.2194444556275,-0.373611114301701,0.037568211555481,0.822530031204224,1.25410640239716
0,0.931944508709193,-0.154166670830166,-0.354166676560001,0.0109955742955208,1.40743350982666,1.04671764373779
0,0.965277816659576,-0.29166668768514,-0.275000009398019,0.281303435564041,1.82587623596191,0.380569040775299
0,0.983333411141879,-0.287500012035377,-0.369444462963867,-0.156076073646545,0.367130011320114,0.261755764484406
0,1.06527783775844,-0.252777787889811,-0.263888898643915,-0.147218525409698,0.579405665397644,0.0167987942695618
0,1.11666674019113,-0.218055563744246,-0.294444447139719,-0.337197601795196,0.021685715764761,-0.495717138051987
0,1.34166673903971,-0.400000011459671,-0.272222225631511,-0.483499854803085,-0.83474737405777,-0.0647517144680023
0,1.12638888612619,-0.333333346935047,-0.248611112240049,-0.661567032337189,-0.389426589012146,-0.2379320114851
0,0.911111130460381,-0.380555573717971,-0.397222227693163,-0.178372651338577,-0.616363048553467,0.120340451598167
0,0.887500065692777,-0.325000019947452,-0.294444447139719,-0.0778853222727776,-0.197004035115242,0.217468023300171
0,0.930555616825939,-0.212499996211229,-0.372222246730376,-0.112093769013882,-0.514043092727661,0.282525181770325
0,0.973611167959101,-0.261111114877407,-0.315277801076602,-0.154854342341423,-0.183565005660057,0.249843880534172
0,1.0125000434425,-0.325000019947452,-0.286111120152123,-0.021685715764761,-0.182037845253944,0.0455094613134861
0,1.0125000434425,-0.325000019947452,-0.286111120152123,0.167071640491486,0.103236228227615,-0.233350530266762
0,1.0125000434425,-0.325000019947452,-0.286111120152123,0.11087204515934,0.0183259565383196,-0.249233022332191
0,0.993055557076942,-0.258333331110899,-0.366666679197359,0.116675265133381,0.0458148941397667,-0.186924770474434
0,1.00833336779274,-0.297222230906227,-0.397222227693163,-0.0775798857212067,-0.0403171069920063,-0.106901414692402
0,1.07777786470773,-0.2194444556275,-0.394444468238583,-0.289855569601059,-0.365602850914002,-0.0656680166721344
0,1.12638888612619,-0.143055560076062,-0.4194444735133,-0.368962615728378,-0.824973523616791,-0.692110300064087
0,1.0694445134082,-0.143055560076062,-0.49166670557094,-0.456316351890564,-0.51740288734436,-1.82068383693695
0,0.904166671044111,-0.44583337067127,-0.275000009398019,0.0510072484612465,0.547335267066956,-1.15758967399597
0,0.819444460661041,-0.436111127488491,-0.301388906555989,0.207083314657211,0.623998820781708,-0.785267293453217
0,0.702777785586986,-0.170833336961321,-0.344444457689151,0.0299323964864016,0.95783668756485,-0.670119166374207
0,0.670833369519857,-0.144444451959316,-0.390277792588821,-0.142026171088219,0.733649134635925,-0.689972281455994
0,0.812500049868629,-0.138888896582264,-0.320833344297689,-0.190895393490791,0.677144110202789,-0.507323563098907
0,0.938888968125464,-0.17361112072783,-0.261111114877407,-0.0253509078174829,0.294437050819397,-0.799317181110382
0,0.938888968125464,-0.17361112072783,-0.261111114877407,-0.0253509078174829,0.294437050819397,-0.799317181110382
0,0.938888968125464,-0.17361112072783,-0.261111114877407,-0.0253509078174829,0.294437050819397,-0.799317181110382
0,0.938888968125464,-0.17361112072783,-0.261111114877407,-0.0253509078174829,0.294437050819397,-0.799317181110382
0,0.938888968125464,-0.17361112072783,-0.261111114877407,0.241597205400467,1.42026174068451,0.948979139328003
0,0.938888968125464,-0.17361112072783,-0.261111114877407,0.395840674638748,1.67774140834808,1.61176800727844
0,1.10000003759208,-0.158333334323963,-0.17361112072783,0.107512280344963,0.800538897514343,1.1844676733017
0,1.34305563092297,-0.263888898643915,-0.131944449321958,0.273056775331497,0.0531452745199203,0.32192599773407
0,1.12083341584089,-0.2194444556275,-0.172222228844576,0.234266817569733,-0.0207694191485643,0.398589581251144
0,1.08194444310977,-0.2194444556275,-0.25555557165632,-0.0262672062963247,0.111788339912891,0.327729195356369
0,1.08472222687628,-0.213888888094483,-0.20972223675665,0.0949895456433296,0.191506251692772,0.270307868719101
0,1.04444445950963,-0.243055569018962,-0.18333333959868,0.0415388382971287,0.218078896403313,0.0436768643558025
0,1.08472222687628,-0.236111109602691,-0.181944447715425,0.0519235469400883,0.183870434761047,-0.111788339912891
0,1.05555559457566,-0.2194444556275,-0.115277783190802,0.170431405305862,-0.107512280344963,-0.132863193750381
0,1.03750000009336,-0.200000005729836,-0.143055560076062,0.317649930715561,-0.229990765452385,-0.168598800897598
0,0.983333411141879,-0.204166669223633,-0.250000004123303,0.107817716896534,0.111482910811901,-0.106290549039841
0,1.08888890252604,-0.140277788465518,-0.556944478212309,0.173791155219078,2.70888185501099,0.205556154251099
0,0.929166724942685,-0.20972223675665,-0.0222222230277034,-0.0311541277915239,2.00638699531555,0.115453533828259
0,0.884722281926269,-0.233333350148112,0.187500003092477,0.136222943663597,-0.704022169113159,0.00244346098043024
0,0.947222222177272,-0.193055558469529,-0.0819444448505077,-0.0448985956609249,-0.598953366279602,0.0222965814173222
0,1.00833336779274,-0.202777789496344,-0.166666673467524,0.102930791676045,0.168598800897598,0.00855211354792118
0,1.04583335139288,-0.204166669223633,-0.176388892338373,-0.0659734457731247,0.218995183706284,-0.0207694191485643
0,1.00972225967599,-0.212499996211229,-0.0666666706026059,0.0204639863222837,-0.0381790772080422,-0.00733038317412138
0,0.99583334084345,-0.205555561106887,-0.104166672436698,0.233350530266762,0.531452775001526,-0.0305432621389627
0,1.04027778385987,-0.224999998848587,-0.187500003092477,0.10598511993885,0.991739749908447,-0.0186313893646002
0,1.00694447590948,-0.211111128639904,-0.0541666679652478,0.148440256714821,0.610254406929016,-0.0491746515035629
0,1.00138890837647,-0.20138889761309,-0.0430555572111439,0.01191187184304,0.201585531234741,-0.0131336031481624
0,0.984722303025134,-0.170833336961321,0.0125000003581147,-0.0568104684352875,-0.238542884588242,0.00733038317412138
0,1.01944450285877,-0.212499996211229,-0.0416666683668809,-0.0342084541916847,-0.236099421977997,0.0803287774324417
0,1.00694447590948,-0.212499996211229,-0.0625000010308258,-0.0708603709936142,-0.383928805589676,0.00183259579353034
0,1.02777785415829,-0.2194444556275,-0.0847222225390337,0.011606439948082,-0.311846703290939,-0.0363464802503586
0,1.04861113515939,-0.198611113846581,-0.0972222251763917,-0.00641408516094089,-0.168293371796608,-0.0690277740359306
0,1.00833336779274,-0.197222234119292,-0.108333335930496,-0.0555887371301651,-0.081855945289135,-0.0140499006956816
0,1.00000001649321,-0.190277786858986,-0.0986111170596459,-0.0329867228865623,-0.00122173049021512,0.00824668072164059
0,0.990277773310434,-0.204166669223633,-0.0833333367337618,-0.00152716308366507,0.0128281703218818,0.0122173046693206
0,1.02916674604155,-0.212499996211229,-0.0833333367337618,0.0360410511493683,0.0888808965682983,-0.00122173049021512
0,0.991666665193688,-0.243055569018962,-0.0458333348996699,0.144775062799454,-0.0821613743901253,0.0210748501121998
0,0.991666665193688,-0.243055569018962,-0.0458333348996699,0.122783914208412,-0.076052725315094,0.0100792767480016
0,0.984722303025134,-0.184722231481934,-0.0833333367337618,-0.139582708477974,-0.34330627322197,-0.0433714315295219
0,1.03194452980806,-0.197222234119292,-0.0875000002275597,0.0442877300083637,-0.386066824197769,-0.0812450796365738
0,1.03888889197661,-0.172222228844576,-0.181944447715425,-0.194255143404007,-0.0384845100343227,-0.0598647929728031
0,1.02500007039179,-0.200000005729836,-0.14722222356986,-0.142331600189209,0.0134390350431204,-0.00305432616733015
0,1.0125000434425,-0.20972223675665,-0.0847222225390337,-0.0433714315295219,-0.00977384392172098,0.01191187184304
0,1.0125000434425,-0.20972223675665,-0.0847222225390337,0.176540061831474,-0.1750128865242,-0.0183259565383196
0,0.970833384192592,-0.213888888094483,-0.0541666679652478,0.124616511166096,-0.419664412736893,-0.0833831056952477
0,0.970833384192592,-0.220833347510754,-0.176388892338373,-0.0592539273202419,-0.423329621553421,-0.0757472887635231
0,0.970833384192592,-0.220833347510754,-0.176388892338373,-0.109039448201656,-0.2165517359972,-0.613003253936768
0,0.956944465360051,-0.197222234119292,-0.154166670830166,-0.00916297826915979,0.0525344125926495,-0.766025006771088
0,1.0125000434425,-0.181944447715425,-0.134722233088466,0.0910189226269722,0.18020524084568,-0.986241936683655
0,1.02916674604155,-0.162500009973726,-0.141666668192807,0.110566608607769,0.568410098552704,-1.0378600358963
0,0.880555606276507,-0.163888889701015,-0.126388893944906,0.275194793939591,0.741284966468811,-0.585208892822266
0,0.693055591028065,-0.026388891079988,-0.0250000007162294,0.11636982858181,0.156686931848526,0.423940479755402
0,0.788888936477167,-0.0847222225390337,-0.0888888921108138,0.0800233483314514,0.160352125763893,0.0397062413394451
0,0.970833384192592,-0.150000007336368,-0.0541666679652478,0.157908663153648,0.202196389436722,0.318566232919693
0,1.22916669099156,-0.120833338567854,-0.141666668192807,0.103847093880177,0.616363048553467,0.121256753802299
0,1.27777780965774,-0.198611113846581,-0.190277786858986,-0.110566608607769,1.25654983520508,-0.300545692443848
0,1.20694451810721,-0.133333341205212,-0.125000002061652,-0.124005645513535,1.25349545478821,-0.161879286170006
0,1.08611111875954,-0.133333341205212,-0.0708333340964038,-0.189673662185669,0.988074541091919,-0.138055548071861
0,1.04305556762637,-0.120833338567854,0.00138888893923146,-0.191506251692772,0.645073711872101,-0.113926365971565
0,1.0361111082101,-0.122222230451108,0.033333335301303,-0.027488935738802,0.377209275960922,-0.0794124826788902
0,1.02500007039179,-0.125000002061652,0.055555559848502,0.103236228227615,0.169820532202721,-0.00885754637420177
0,1.03194452980806,-0.118055554801345,0.0486111125881959,0.176845490932465,-0.0167987942695618,0.0458148941397667
0,1.07500008094122,-0.12916666555545,0.0444444460554069,0.183870434761047,-0.1795943826437,-0.00122173049021512
0,1.00555558402623,-0.101388894748172,0.0402777795226179,0.0949895456433296,-0.505491018295288,-0.0140499006956816
0,0.994444448960196,-0.12777778582816,0.029166668768514,0.0381790772080422,-0.809701859951019,0.0210748501121998
0,1.02361117850853,-0.123611110178398,0.0250000007162294,0.0271835029125214,-0.955393254756927,0.0891863256692886
0,1.03194452980806,-0.102777780553444,-0.00555555575692586,0.273362189531326,-1.50517201423645,-0.155159771442413
0,0.96666670854283,-0.0916666697993398,-0.0152777788063885,0.0293215326964855,-1.111163854599,0.00885754637420177
0,1.10000003759208,-0.140277788465518,-0.0722222259796579,0.253509074449539,-0.0656680166721344,0.0507018156349659
0,1.11527784830787,-0.144444451959316,-0.323611128064198,-0.824362635612488,2.54608631134033,0.140804439783096
0,1.06527783775844,-0.105555564319952,-0.390277792588821,0.0372627787292004,-0.0592539273202419,0.027488935738802
0,0.925000049292922,-0.12777778582816,0.281944444502361,0.0259617734700441,-0.412334054708481,-0.0235183127224445
0,1.00555558402623,-0.130555557438704,-0.0388888906783549,-0.00397062394768,0.0445931628346443,0.0271835029125214
0,1.02222228662528,-0.130555557438704,-0.0430555572111439,-0.00916297826915979,-0.00885754637420177,0.0134390350431204
0,1.02777785415829,-0.12777778582816,-0.0361111129898289,-0.0268780700862408,0.00855211354792118,0.0232128798961639
0,1.02222228662528,-0.130555557438704,-0.0347222241455659,0.0161879286170006,0.0348193198442459,0.0311541277915239
0,1.02500007039179,-0.12777778582816,-0.029166668768514,0.0693332031369209,0.0919352173805237,0.0207694191485643
0,1.02222228662528,-0.13750000469901,-0.055555559848502,-0.00610865233466029,0.0574213340878487,0.0213802829384804
0,1.03750000009336,-0.126388893944906,-0.0444444460554069,0.0766635909676552,0.18020524084568,0.0369573459029198
0,1.04861113515939,-0.133333341205212,-0.0513888902767219,-0.03176499158144,0.192117124795914,0.144164204597473
0,1.04861113515939,-0.133333341205212,-0.0513888902767219,-0.0809396430850029,-0.0885754600167274,-0.0290160998702049
0,1.01666671909226,-0.154166670830166,-0.0180555564949145,0.05283984541893,-0.0690277740359306,-0.00946841109544039
0,1.01805561097552,-0.144444451959316,-0.0208333341834404,0.0656680166721344,-0.0855211317539215,-0.0143553335219622
0,1.01666671909226,-0.138888896582264,-0.0361111129898289,0.0681114718317986,-0.0873537287116051,-0.00610865233466029
0,1.01944450285877,-0.156944454596674,-0.0722222259796579,0.123700208961964,-0.143553331494331,-0.0186313893646002
0,1.05694448645892,-0.144444451959316,-0.027777779924251,0.126143679022789,0.102319926023483,-0.00824668072164059
0,1.03750000009336,-0.13750000469901,-0.027777779924251,0.151189148426056,-0.000916297896765172,-0.0516181141138077
0,1.04027778385987,-0.12777778582816,-0.0388888906783549,0.139277279376984,0.0406225398182869,-0.0687223374843597
0,1.07361118905796,-0.106944444047242,-0.0486111125881959,0.250454753637314,0.373544096946716,0.00977384392172098
0,1.02083339474202,-0.111111119697004,-0.0347222241455659,0.141720741987228,0.325591176748276,0.0351247526705265
0,0.986111194908388,-0.118055554801345,-0.0125000003581147,0.0772744566202164,-0.130725160241127,-0.00794124789535999
0,1.0125000434425,-0.120833338567854,-0.0250000007162294,0.0668897479772568,0.0400116741657257,0.0299323964864016
0,1.02638896227504,-0.12777778582816,-0.0180555564949145,0.0971275717020035,0.0577267669141293,0.0222965814173222
0,1.02638896227504,-0.12777778582816,-0.0180555564949145,0.0778853222727776,-0.0180205255746841,0.013744467869401
0,1.02222228662528,-0.122222230451108,-0.0194444453391775,0.0580321997404099,-0.0412334054708481,0.00977384392172098
0,1.02361117850853,-0.125000002061652,-0.0236111118719664,0.117896988987923,-0.0736092627048492,-0.0140499006956816
0,0.979166735492117,-0.111111119697004,-0.0125000003581147,0.027488935738802,-0.295047909021378,0.00733038317412138
0,1.06527783775844,-0.136111112815755,-0.0763888894734557,0.0659734457731247,0.186619326472282,0.0635299831628799
0,1.01527782720901,-0.130555557438704,-0.03194444645704,-0.0956004112958908,-0.204639852046967,0.0369573459029198
0,1.00833336779274,-0.143055560076062,-0.0194444453391775,0.245262399315834,0.138971850275993,-0.0543670058250427
0,1.03750000009336,-0.115277783190802,-0.0361111129898289,0.0659734457731247,0.140499010682106,0.0555887371301651
0,1.04305556762637,-0.118055554801345,-0.00694444498106275,0.2165517359972,0.207999616861343,-0.0956004112958908
0,1.03888889197661,-0.133333341205212,0.00416666691266287,0.152716308832169,-0.0354301854968071,-0.0433714315295219
0,1.04722224327614,-0.116666675074056,-0.026388891079988,0.124616511166096,-0.00305432616733015,0.0390953756868839
0,1.01111115155925,-0.140277788465518,-0.0250000007162294,-0.0717766657471657,-0.168293371796608,-0.00885754637420177
0,0.95000000594378,-0.125000002061652,-0.0194444453391775,-0.0668897479772568,-0.390037447214127,-0.0641408488154411
0,1.04722224327614,-0.123611110178398,-0.0652777787193518,-0.260839462280273,-0.0739146918058395,-0.0131336031481624
0,1.07916665934326,-0.125000002061652,-0.0458333348996699,-0.216246291995048,0.102625362575054,-0.0620028227567673
0,1.02361117850853,-0.125000002061652,-0.0152777788063885,0.0146607663482428,-0.0262672062963247,-0.0345138870179653
0,1.01944450285877,-0.0972222251763917,-0.0222222230277034,0.081855945289135,-0.0213802829384804,0.0394008085131645
0,1.02222228662528,-0.100000002864918,-0.0250000007162294,0.0568104684352875,-0.0604756586253643,0.0448985956609249
0,1.04027778385987,-0.130555557438704,-0.0777777813567098,-0.0595593601465225,-0.0858265683054924,0.0128281703218818
0,1.03888889197661,-0.154166670830166,-0.0736111117849297,-0.172874867916107,0.0754418596625328,-0.0027488935738802
0,1.0361111082101,-0.158333334323963,-0.0222222230277034,-0.137750118970871,0.101098194718361,-0.0213802829384804
0,1.00694447590948,-0.126388893944906,-0.0180555564949145,-0.176845490932465,0.0943786799907684,-0.00152716308366507
0,1.00416669214298,-0.122222230451108,-0.0180555564949145,-0.132863193750381,-0.0607810914516449,0.0164933614432812
0,1.00000001649321,-0.130555557438704,-0.0138888899621255,-0.117286130785942,-0.107817716896534,-0.0369573459029198
0,1.02083339474202,-0.123611110178398,-0.0250000007162294,-0.0971275717020035,-0.0797179117798805,-0.0345138870179653
0,1.02222228662528,-0.116666675074056,-0.0402777795226179,-0.102625362575054,-0.0552833043038845,0.0033597587607801
0,1.0125000434425,-0.12777778582816,-0.0250000007162294,-0.0531452745199203,-0.0684169083833694,0.0473420582711697
0,1.00694447590948,-0.134722233088466,-0.029166668768514,-0.0113010071218014,-0.0757472887635231,0.0687223374843597
0,1.00833336779274,-0.134722233088466,-0.027777779924251,0.0778853222727776,-0.0598647929728031,0.0510072484612465
0,1.02777785415829,-0.125000002061652,-0.0416666683668809,0.0604756586253643,-0.0250454749912024,0.0226020142436027
0,1.02777785415829,-0.125000002061652,-0.0416666683668809,0.0152716310694814,0.0177150927484035,0.0351247526705265
0,1.08333333499303,-0.0819444448505077,-0.0347222241455659,-0.0189368221908808,0.017409659922123,0.0177150927484035
0,1.10000003759208,-0.0944444474878658,-0.029166668768514,-0.357050746679306,0.223882108926773,0.0491746515035629
0,1.09305557817581,-0.123611110178398,-0.0944444474878658,0.0638354197144508,0.372933238744736,0.0858265683054924
0,1.00694447590948,-0.130555557438704,0.027777779924251,-0.136528387665749,-0.0207694191485643,-0.0122173046693206
0,0.926388941176177,-0.113888891307548,-0.00694444498106275,0.0558941699564457,-0.0720821022987366,0.0439822971820831
0,1.00555558402623,-0.136111112815755,-0.0152777788063885,0.0146607663482428,-0.113620936870575,-0.037568211555481
0,1.04583335139288,-0.116666675074056,-0.0611111152255539,-0.0775798857212067,0.0943786799907684,-0.00244346098043024
0,1.0361111082101,-0.118055554801345,-0.0444444460554069,-0.0610865242779255,0.0916297882795334,0.0186313893646002
0,1.0125000434425,-0.122222230451108,-0.0138888899621255,-0.0537561401724815,-0.0122173046693206,-0.0045814891345799
0,1.01527782720901,-0.130555557438704,-0.0125000003581147,-0.0397062413394451,-0.0103847095742822,0.000916297896765172
0,1.01944450285877,-0.126388893944906,-0.0250000007162294,-0.0339030213654041,0.00824668072164059,0.0125227374956012
0,1.01666671909226,-0.12777778582816,-0.0250000007162294,-0.0360410511493683,0.00519235478714108,0.00427605677396059
0,1.02222228662528,-0.130555557438704,-0.00694444498106275,-0.0287106670439243,-0.0122173046693206,0.00519235478714108
0,1.02500007039179,-0.12916666555545,-0.0194444453391775,-0.0198531206697226,-0.00549778714776039,0.00366519158706069
0,1.02916674604155,-0.12916666555545,-0.0152777788063885,-0.0229074470698834,-0.00183259579353034,0.0140499006956816
0,1.02638896227504,-0.130555557438704,-0.0194444453391775,-0.00794124789535999,-0.00671951752156019,0.0140499006956816
0,1.02222228662528,-0.131944449321958,-0.0222222230277034,-0.0021380283869803,-0.00977384392172098,0.0131336031481624
0,1.01944450285877,-0.12916666555545,-0.0222222230277034,-0.00427605677396059,0.0033597587607801,-0.0027488935738802
0,1.0305556379248,-0.133333341205212,-0.0152777788063885,0.00122173049021512,0.00122173049021512,-0.00671951752156019
0,1.02916674604155,-0.134722233088466,-0.0222222230277034,0.00702495034784079,0.0152716310694814,-0.00152716308366507
0,1.02222228662528,-0.13750000469901,-0.0250000007162294,-0.000305432622553781,0.0207694191485643,-0.00763581553474069
0,1.02222228662528,-0.134722233088466,-0.03194444645704,-0.017409659922123,0.0265726372599602,-0.00641408516094089
0,1.02500007039179,-0.12916666555545,-0.0194444453391775,-0.0213802829384804,0.0241291765123606,0.00305432616733015
0,1.02083339474202,-0.130555557438704,-0.00833333382532574,-0.0109955742955208,-0.00580321997404099,-0.00305432616733015
0,1.01666671909226,-0.12916666555545,-0.0111111115138517,-0.0128281703218818,-0.0140499006956816,0.00152716308366507
0,1.02083339474202,-0.12916666555545,-0.0138888899621255,-0.0143553335219622,-0.00946841109544039,0.0125227374956012
0,1.02222228662528,-0.12777778582816,-0.0125000003581147,-0.0122173046693206,-0.00733038317412138,0.0109955742955208
0,1.02222228662528,-0.130555557438704,-0.0180555564949145,-0.00427605677396059,-0.00549778714776039,0.00916297826915979
0,1.02500007039179,-0.12777778582816,-0.0208333341834404,-0.00152716308366507,-0.0128281703218818,0.0146607663482428
0,1.02500007039179,-0.130555557438704,-0.0152777788063885,-0.00519235478714108,-0.0113010071218014,0.0180205255746841
0,1.03194452980806,-0.131944449321958,-0.03194444645704,0.00488692196086049,-0.0125227374956012,0.0164933614432812
0,1.02500007039179,-0.134722233088466,-0.03194444645704,0.00794124789535999,-0.00946841109544039,0.00794124789535999
0,1.02916674604155,-0.140277788465518,-0.029166668768514,-0.000916297896765172,-0.00427605677396059,0.00488692196086049
0,1.02500007039179,-0.13750000469901,-0.0250000007162294,0.00366519158706069,0.0100792767480016,0.0045814891345799
0,1.02361117850853,-0.143055560076062,-0.03194444645704,0.0241291765123606,0.00610865233466029,-0.000610865245107561
0,1.02361117850853,-0.143055560076062,-0.03194444645704,0.0280998013913631,0.00519235478714108,-0.00885754637420177
0,1.02222228662528,-0.134722233088466,-0.03194444645704,0.0381790772080422,0.00824668072164059,-0.00824668072164059
0,1.01944450285877,-0.134722233088466,-0.0347222241455659,0.0329867228865623,0.00702495034784079,-0.000916297896765172
0,1.01944450285877,-0.134722233088466,-0.0347222241455659,0.0329867228865623,0.00488692196086049,0.00366519158706069
0,1.02222228662528,-0.131944449321958,-0.0222222230277034,0.0326812900602817,0.000916297896765172,0.00305432616733015
0,1.02361117850853,-0.122222230451108,-0.026388891079988,0.0277943685650826,-0.00183259579353034,0.01191187184304
0,1.02361117850853,-0.122222230451108,-0.026388891079988,0.0314595587551594,-0.013744467869401,0.0125227374956012
0,1.02222228662528,-0.133333341205212,-0.027777779924251,0.0213802829384804,-0.019547687843442,0.0186313893646002
0,1.02222228662528,-0.13750000469901,-0.029166668768514,0.0131336031481624,-0.00641408516094089,0.0222965814173222
0,1.02222228662528,-0.13750000469901,-0.029166668768514,0.00305432616733015,0.0293215326964855,0.0720821022987366
0,0.990277773310434,-0.134722233088466,-0.0388888906783549,-0.0439822971820831,-0.0424551330506802,0.0546724386513233
0,1.05555559457566,-0.143055560076062,-0.0138888899621255,0.349720358848572,0.00152716308366507,0.128587126731873
0,1.14305558872524,-0.151388899219622,-0.0833333367337618,0.0632245540618896,0.479223787784576,0.0445931628346443
0,0.961111141009813,-0.158333334323963,-0.0125000003581147,-0.01588249579072,0.0262672062963247,-0.0021380283869803
0,0.975000059842355,-0.143055560076062,-0.0125000003581147,-0.00244346098043024,0.123394779860973,0.0436768643558025
0,1.01527782720901,-0.200000005729836,-0.0430555572111439,-0.112399205565453,0.409585148096085,0.0314595587551594
0,1.06250005399193,-0.166666673467524,-0.00416666691266287,0.0470366254448891,0.550389587879181,-0.0632245540618896
0,0.955555573476797,-0.186111123365188,0.0402777795226179,0.248011291027069,0.365602850914002,-0.05283984541893
0,1.08333333499303,-0.108333335930496,-0.029166668768514,-0.0033597587607801,0.495717138051987,0.142331600189209
0,1.05833337834217,-0.113888891307548,-0.029166668768514,0.104763388633728,0.182648703455925,-0.00244346098043024
0,0.930555616825939,-0.12777778582816,0.0444444460554069,0.103236228227615,-0.212886542081833,-0.00733038317412138
0,0.936111184358955,-0.152777778946911,-0.197222234119292,-0.42363503575325,-0.518319189548492,-0.00244346098043024
0,1.01944450285877,-0.161111118090472,-0.0500000014324589,0.295047909021378,0.427605658769607,0.0171042270958424
0,0.884722281926269,-0.00694444498106275,-0.176388892338373,-0.685390830039978,-0.657596409320831,0.137750118970871
0,0.927777833059431,-0.0666666706026059,0.0194444453391775,0.0290160998702049,0.171042263507843,-0.0510072484612465
0,1.15000004814151,-0.205555561106887,0.0250000007162294,0.20616702735424,0.418748140335083,-0.0959058403968811
0,0.983333411141879,-0.29166668768514,0.00555555575692586,0.0641408488154411,-0.0919352173805237,-0.137750118970871
0,0.956944465360051,-0.193055558469529,0.0388888906783549,-0.172874867916107,-0.680503904819489,-0.0888808965682983
0,0.973611167959101,-0.0611111152255539,0.00694444498106275,-0.013744467869401,-0.292909890413284,0.123394779860973
0,1.06388894587519,-0.027777779924251,-0.0625000010308258,-0.29657506942749,-0.0858265683054924,0.189368233084679
0,1.07222229717471,-0.190277786858986,0.0416666683668809,-0.0671951770782471,-0.23823744058609,0.0733038261532784
0,1.00972225967599,-0.187500003092477,0.0458333348996699,0.0473420582711697,-0.395840674638748,0.0192422550171614
0,1.0125000434425,-0.156944454596674,0.00277777787846293,0.0708603709936142,-0.403781920671463,0.0244346093386412
0,1.07916665934326,-0.151388899219622,-0.0416666683668809,0.171958565711975,-0.22693644464016,-0.0665843114256859
0,1.07500008094122,-0.166666673467524,-0.030555557612777,0.140193566679955,0.109650313854218,-0.111788339912891
0,1.04166667574312,-0.123611110178398,-0.0888888921108138,-0.0488692186772823,0.275500237941742,-0.0913243517279625
0,1.01388893532575,-0.130555557438704,0.0152777788063885,-0.076052725315094,-0.00885754637420177,-0.0424551330506802
0,1.00833336779274,-0.126388893944906,-0.0125000003581147,-0.027488935738802,0.00549778714776039,0.0323758572340012
0,1.00833336779274,-0.1194444466846,-0.00555555575692586,-0.109039448201656,-0.113620936870575,0.0726929605007172
0,1.0305556379248,-0.154166670830166,-0.00555555575692586,-0.0122173046693206,-0.133779495954514,0.0192422550171614
0,1.00555558402623,-0.190277786858986,-0.0152777788063885,0.112093769013882,0.0534507073462009,-0.16371189057827
0,1.01527782720901,-0.138888896582264,-0.0250000007162294,0.00244346098043024,-0.0598647929728031,-0.0571159012615681
0,1.01388893532575,-0.122222230451108,-0.029166668768514,0.00366519158706069,-0.0167987942695618,-0.0235183127224445
0,1.00277780025972,-0.118055554801345,-0.0375000018340919,-0.037568211555481,-0.0742201283574104,0.00763581553474069
0,1.01666671909226,-0.116666675074056,-0.00972222266958873,-0.0103847095742822,-0.0742201283574104,0.0705549344420433
0,0.998611124609959,-0.122222230451108,-0.0472222237439329,0.0226020142436027,0.090408056974411,0.0522289797663689
0,1.04166667574312,-0.125000002061652,-0.0375000018340919,-0.0363464802503586,0.193949714303017,0.0717766657471657
0,1.01944450285877,-0.141666668192807,-0.00555555575692586,-0.0595593601465225,0.0415388382971287,0.0131336031481624
0,1.01944450285877,-0.141666668192807,-0.00555555575692586,-0.0442877300083637,-0.119118720293045,-0.0256563406437635
0,1.00555558402623,-0.156944454596674,0.00972222266958873,-0.0320704244077206,-0.194866016507149,-0.04764748737216
0,0.98888888142718,-0.131944449321958,-0.00138888893923146,-0.0864374339580536,-0.495411723852158,-0.0507018156349659
0,0.98888888142718,-0.131944449321958,-0.00138888893923146,-0.13225232064724,-1.03144598007202,-0.0736092627048492
0,1.0125000434425,-0.133333341205212,-0.00555555575692586,-0.0546724386513233,-1.06443274021149,-0.114537231624126
0,1.07361118905796,-0.15555556271342,-0.0569444456537738,0.011606439948082,-0.30695977807045,-0.126449108123779
0,1.06527783775844,-0.161111118090472,-0.17361112072783,0.0232128798961639,0.276111096143722,-0.124005645513535
0,1.01527782720901,-0.134722233088466,-0.115277783190802,-0.0201585534960032,-0.177456349134445,-0.0497855171561241
0,0.997222232726705,-0.112499999424294,-0.0486111125881959,-0.0583376325666905,-0.403476506471634,-0.0284052342176437
0,1.00416669214298,-0.12777778582816,-0.0541666679652478,-0.0140499006956816,-0.548862397670746,-0.0574213340878487
0,1.0361111082101,-0.140277788465518,-0.105555564319952,-0.0045814891345799,-0.36041048169136,-0.0397062413394451
0,1.03750000009336,-0.118055554801345,-0.0944444474878658,0.0143553335219622,-0.421191573143005,0.0226020142436027
0,1.00833336779274,-0.113888891307548,-0.0986111170596459,-0.0647517144680023,-0.619417369365692,0.00610865233466029
0,0.983333411141879,-0.12777778582816,-0.0805555590452358,-0.112704634666443,-0.872315585613251,-0.0189368221908808
0,1.00277780025972,-0.12916666555545,-0.111111119697004,-0.113926365971565,-0.746782779693604,-0.01191187184304
0,1.03888889197661,-0.113888891307548,-0.180555567988136,-0.0992656052112579,-0.584598064422607,0.0109955742955208
0,1.0125000434425,-0.113888891307548,-0.158333334323963,-0.124311074614525,-0.685085356235504,-0.015577063895762
0,0.98888888142718,-0.122222230451108,-0.166666673467524,-0.22235494852066,-0.931874930858612,-0.0836885422468185
0,0.979166735492117,-0.141666668192807,-0.138888896582264,-0.231823354959488,-1.12735176086426,-0.0974330082535744
0,1.0125000434425,-0.113888891307548,-0.240277785252453,-0.197920337319374,-0.696386396884918,-0.0733038261532784
0,1.01388893532575,-0.111111119697004,-0.270833333748257,-0.114231802523136,-0.326812893152237,-0.0641408488154411
0,1.0125000434425,-0.125000002061652,-0.252777787889811,-0.161573857069016,-0.263588339090347,0.00671951752156019
0,1.02083339474202,-0.10972222781375,-0.248611112240049,0.0335975885391235,0.0748309940099716,-0.0464257597923279
0,0.998611124609959,-0.1194444466846,-0.202777789496344,0.0418442711234093,-0.169820532202721,-0.0510072484612465
0,0.99583334084345,-0.111111119697004,-0.261111114877407,0.0540615729987621,0.0839939713478088,-0.0815505087375641
0,1.01805561097552,-0.111111119697004,-0.287500012035377,0.0439822971820831,0.404698222875595,-0.0470366254448891
0,1.03472221632685,-0.1194444466846,-0.252777787889811,0.109039448201656,0.416304677724838,-0.0259617734700441
0,1.01944450285877,-0.113888891307548,-0.218055563744246,0.172569438815117,0.382401645183563,-0.0409279726445675
0,0.96666670854283,-0.0944444474878658,-0.222222239394008,0.0800233483314514,0.153938040137291,-0.0448985956609249
0,0.983333411141879,-0.111111119697004,-0.233333350148112,0.0027488935738802,0.161879286170006,-0.0323758572340012
0,0.979166735492117,-0.111111119697004,-0.19166667874224,0.0244346093386412,-0.0232128798961639,-0.0592539273202419
0,0.98888888142718,-0.115277783190802,-0.206944452990142,0.0167987942695618,-0.128281697630882,-0.0720821022987366
0,1.0333333244436,-0.116666675074056,-0.229166674498349,0.0901026204228401,-0.0733038261532784,-0.0470366254448891
0,1.05277781080915,-0.104166672436698,-0.259722222994153,0.081855945289135,0.17470745742321,-0.0033597587607801
0,1.00000001649321,-0.0847222225390337,-0.229166674498349,0.0638354197144508,0.137139245867729,-0.011606439948082
0,1.00555558402623,-0.0972222251763917,-0.236111109602691,0.0705549344420433,0.279776275157929,-0.00366519158706069
0,1.01527782720901,-0.108333335930496,-0.227777782615095,0.131641462445259,0.468839079141617,0.00610865233466029
0,1.03194452980806,-0.113888891307548,-0.230555566381603,0.138666406273842,0.572991609573364,0.0103847095742822
0,0.970833384192592,-0.105555564319952,-0.163888889701015,-0.00794124789535999,-0.17470745742321,-0.0378736443817616
0,0.961111141009813,-0.10972222781375,-0.12916666555545,0.0335975885391235,-0.399505883455276,-0.0442877300083637
0,1.02916674604155,-0.118055554801345,-0.20972223675665,0.0632245540618896,-0.16371189057827,-0.0171042270958424
0,1.05277781080915,-0.141666668192807,-0.241666677135707,0.096211276948452,0.127670839428902,-0.0033597587607801
0,1.03750000009336,-0.0819444448505077,-0.250000004123303,0.00580321997404099,0.181426972150803,0.0497855171561241
0,0.962500032893068,-0.0944444474878658,-0.170833336961321,-0.0171042270958424,-0.132863193750381,-0.019547687843442
0,0.983333411141879,-0.115277783190802,-0.193055558469529,0.0427605658769607,0.00916297826915979,-0.0290160998702049
0,1.04166667574312,-0.122222230451108,-0.212499996211229,0.101098194718361,0.23823744058609,0.00733038317412138
0,1.01666671909226,-0.105555564319952,-0.200000005729836,0.0546724386513233,0.0488692186772823,0.0106901414692402
0,0.983333411141879,-0.0986111170596459,-0.17361112072783,0.00610865233466029,-0.26419922709465,-0.0109955742955208
0,0.94305554652751,-0.0708333340964038,-0.200000005729836,-0.103847093880177,-0.440433830022812,-0.0293215326964855
0,1.00694447590948,-0.0916666697993398,-0.212499996211229,0.000610865245107561,-0.219300627708435,-0.01588249579072
0,1.02500007039179,-0.108333335930496,-0.231944458264858,0.0201585534960032,-0.0571159012615681,-0.0210748501121998
0,1.00277780025972,-0.104166672436698,-0.206944452990142,0.0235183127224445,-0.111482910811901,-0.0265726372599602
0,1.00138890837647,-0.111111119697004,-0.188888894975731,0.01588249579072,-0.317344486713409,-0.0549778714776039
0,1.0125000434425,-0.104166672436698,-0.216666671860991,0.0403171069920063,-0.350942075252533,-0.0522289797663689
0,1.00694447590948,-0.0916666697993398,-0.240277785252453,0.00397062394768,-0.291688144207001,-0.0280998013913631
0,1.00833336779274,-0.0930555616825939,-0.250000004123303,-0.0171042270958424,-0.159435823559761,0.0045814891345799
0,0.983333411141879,-0.106944444047242,-0.216666671860991,-0.0244346093386412,-0.23273965716362,0.0103847095742822
0,1.00277780025972,-0.115277783190802,-0.238888893369199,0.019547687843442,-0.179288953542709,0.00122173049021512
0,1.00138890837647,-0.111111119697004,-0.240277785252453,0.064446285367012,-0.153938040137291,-0.0259617734700441
0,0.986111194908388,-0.100000002864918,-0.247222220356795,0.0134390350431204,-0.188451930880547,-0.0256563406437635
0,1.01527782720901,-0.0958333393711199,-0.265277790527169,-0.0100792767480016,-0.0601702257990837,-0.00610865233466029
0,1.00972225967599,-0.0986111170596459,-0.259722222994153,0.0128281703218818,0.0500909499824047,0.0045814891345799
0,0.99583334084345,-0.0986111170596459,-0.254166679773066,0.00855211354792118,0.0992656052112579,0.0164933614432812
0,0.973611167959101,-0.100000002864918,-0.229166674498349,0.0033597587607801,-0.17989981174469,-0.00488692196086049
0,0.969444492309338,-0.108333335930496,-0.205555561106887,-0.00702495034784079,-0.228463605046272,-0.029626963660121
0,1.00000001649321,-0.113888891307548,-0.241666677135707,0.0488692186772823,-0.108428582549095,-0.00794124789535999
0,1.01944450285877,-0.105555564319952,-0.288888903918631,0.0369573459029198,0.114842668175697,0.0122173046693206
0,1.01111115155925,-0.0986111170596459,-0.262500006760661,0.0482583530247212,0.375376701354981,0.0314595587551594
0,0.991666665193688,-0.0986111170596459,-0.238888893369199,0.05283984541893,0.215330004692078,0.015577063895762
0,0.963888924776322,-0.101388894748172,-0.212499996211229,0.017409659922123,-0.108734011650086,-0.0128281703218818
0,0.98888888142718,-0.101388894748172,-0.238888893369199,-0.0027488935738802,-0.148440256714821,-0.0131336031481624
0,1.00972225967599,-0.111111119697004,-0.279166685047782,0.0253509078174829,0.0397062413394451,-0.0171042270958424
0,1.0333333244436,-0.10972222781375,-0.266666682410424,0.0580321997404099,0.236710280179977,-0.0021380283869803
0,0.993055557076942,-0.104166672436698,-0.227777782615095,0.0287106670439243,0.0213802829384804,-0.0125227374956012
0,0.980555627375371,-0.0986111170596459,-0.224999998848587,0.00702495034784079,-0.144775062799454,-0.0171042270958424
0,0.983333411141879,-0.100000002864918,-0.254166679773066,-0.00366519158706069,-0.182954147458077,-0.0210748501121998
0,1.0125000434425,-0.101388894748172,-0.265277790527169,0.0403171069920063,-0.121867619454861,0.0128281703218818
0,1.00277780025972,-0.10972222781375,-0.273611117514765,0.0461203269660473,-0.0167987942695618,-0.0027488935738802
0,0.980555627375371,-0.111111119697004,-0.24583335278547,0.0259617734700441,-0.0473420582711697,-0.0152716310694814
0,0.975000059842355,-0.104166672436698,-0.234722242031366,0.0470366254448891,-0.0809396430850029,-0.00855211354792118
0,1.00972225967599,-0.106944444047242,-0.247222220356795,0.070249505341053,0.00794124789535999,0.0219911485910416
0,1.00277780025972,-0.102777780553444,-0.258333331110899,0.0971275717020035,0.0717766657471657,0.0204639863222837
0,1.00277780025972,-0.102777780553444,-0.258333331110899,0.0763581544160843,0.148745685815811,0.0354301854968071
0,0.998611124609959,-0.0944444474878658,-0.229166674498349,0.0510072484612465,-0.0387899428606033,0.0241291765123606
0,1.01388893532575,-0.101388894748172,-0.240277785252453,0.0363464802503586,-0.0143553335219622,0.013744467869401
0,1.01388893532575,-0.101388894748172,-0.240277785252453,0.0510072484612465,0.141415297985077,0.0109955742955208
0,1.02222228662528,-0.104166672436698,-0.258333331110899,0.0210748501121998,0.220522359013557,0.0113010071218014
0,1.02222228662528,-0.0986111170596459,-0.226388890731841,-0.00152716308366507,0.193949714303017,0.0232128798961639
0,1.02222228662528,-0.0986111170596459,-0.226388890731841,0.00733038317412138,0.252592772245407,0.0259617734700441
0,1.02222228662528,-0.104166672436698,-0.233333350148112,0.0378736443817616,0.272140473127365,0.0146607663482428
0,0.99583334084345,-0.106944444047242,-0.212499996211229,0.0287106670439243,0.224798411130905,0.00519235478714108
0,0.99583334084345,-0.106944444047242,-0.212499996211229,0.0277943685650826,0.299629390239716,-0.000916297896765172
0,1.0125000434425,-0.101388894748172,-0.227777782615095,0.0125227374956012,0.35430184006691,-0.00946841109544039
0,1.00000001649321,-0.102777780553444,-0.218055563744246,-0.0183259565383196,0.32284227013588,-0.0284052342176437
0,1.00138890837647,-0.108333335930496,-0.20972223675665,-0.00244346098043024,0.261755764484406,0.00152716308366507
0,1.00000001649321,-0.0986111170596459,-0.198611113846581,-0.0143553335219622,0.223882108926773,0.0103847095742822
0,1.00277780025972,-0.0902777839940679,-0.211111128639904,-0.0262672062963247,0.276721954345703,0.0452040284872055
0,1.01666671909226,-0.0930555616825939,-0.218055563744246,0.00977384392172098,0.511905074119568,0.104763388633728
0,1.06250005399193,-0.106944444047242,-0.226388890731841,0.0403171069920063,0.846048355102539,0.170125976204872
0,1.05694448645892,-0.113888891307548,-0.215277779977737,0.0381790772080422,1.03511118888855,0.186313897371292
0,1.03750000009336,-0.120833338567854,-0.20972223675665,0.0265726372599602,1.26326930522919,0.177761793136597
0,1.00277780025972,-0.125000002061652,-0.177777784221628,0.0397062413394451,1.36589467525482,0.156686931848526
0,1.00972225967599,-0.12777778582816,-0.126388893944906,0.0565050356090069,1.32588303089142,0.198225766420364
0,1.04305556762637,-0.12777778582816,-0.101388894748172,-0.409585148096085,-0.141109868884087,0.112093769013882
0,0.87500003874349,-0.100000002864918,0.140277788465518,0.0717766657471657,-0.267253547906876,0.00885754637420177
0,1.03472221632685,-0.168055565350778,-0.151388899219622,-0.0525344125926495,0.666759431362152,0.142637029290199
0,1.03472221632685,-0.130555557438704,-0.0416666683668809,-0.0531452745199203,0.334448724985123,0.0763581544160843
0,1.00000001649321,-0.13750000469901,-0.0125000003581147,-0.0714712366461754,-0.197920337319374,-0.00885754637420177
0,0.977777843608863,-0.150000007336368,-0.0152777788063885,0.0522289797663689,-0.162490159273148,-0.0671951770782471
0,0.994444448960196,-0.134722233088466,-0.0958333393711199,-0.011606439948082,0.0977384373545647,-0.00427605677396059
0,1.01944450285877,-0.118055554801345,-0.0833333367337618,-0.0366519130766392,0.140499010682106,0.0372627787292004
0,1.02361117850853,-0.12916666555545,-0.0847222225390337,-0.0589484944939613,0.188451930880547,0.0140499006956816
0,1.0305556379248,-0.130555557438704,-0.0513888902767219,-0.0122173046693206,0.0610865242779255,0.0406225398182869
0,1.01666671909226,-0.148611115453114,0.00555555575692586,0.0265726372599602,0.242208063602448,0.015577063895762
0,1.0125000434425,-0.125000002061652,-0.0361111129898289,-0.0458148941397667,-0.177150920033455,0.0253509078174829
0,1.01111115155925,-0.14583334384257,-0.0569444456537738,-0.0461203269660473,-0.0033597587607801,0.0387899428606033
0,1.02222228662528,-0.1194444466846,-0.0944444474878658,-0.136222943663597,0.270307868719101,0.0125227374956012
0,0.990277773310434,-0.206944452990142,0.00972222266958873,0.0293215326964855,0.0803287774324417,-0.124921940267086
0,0.979166735492117,-0.120833338567854,0.00277777787846293,-0.0442877300083637,-0.317955374717712,0.0109955742955208
0,1.04722224327614,-0.136111112815755,-0.0638888929140799,0.109039448201656,0.121256753802299,0.0106901414692402
0,1.02222228662528,-0.1194444466846,-0.0666666706026059,-0.0824668109416962,0.02382374368608,0.0363464802503586
0,0.981944519258625,-0.140277788465518,-0.0416666683668809,-0.0681114718317986,-0.254425376653671,0.0134390350431204
0,0.95000000594378,-0.131944449321958,0.0458333348996699,0.18539759516716,-0.831998467445374,0.0748309940099716
0,1.00694447590948,-0.162500009973726,-0.101388894748172,0.105374254286289,-0.570853590965271,0.0342084541916847
0,1.07083340529146,-0.156944454596674,-0.125000002061652,-0.0436768643558025,-0.455705463886261,0.0690277740359306
0,1.11527784830787,-0.133333341205212,-0.166666673467524,-0.04764748737216,0.193949714303017,0.0140499006956816
0,1.09444447005906,-0.133333341205212,-0.115277783190802,-0.00549778714776039,0.573907911777496,0.0146607663482428
0,1.05972227022542,-0.13750000469901,-0.0777777813567098,0.0696386396884918,0.448069661855698,-0.00305432616733015
0,0.987499989543926,-0.144444451959316,-0.0388888906783549,0.101098194718361,0.311235845088959,0.00977384392172098
0,0.952777789710289,-0.125000002061652,-0.0583333375370279,0.0638354197144508,0.0552833043038845,0.0534507073462009
0,0.997222232726705,-0.13750000469901,-0.118055554801345,-0.413250327110291,0.0558941699564457,0.119118720293045
0,1.12499999424293,-0.144444451959316,-0.113888891307548,-0.562912344932556,0.126143679022789,-0.0271835029125214
0,1.03194452980806,-0.1194444466846,0.0597222233422998,-0.278554558753967,-0.0250454749912024,-0.0525344125926495
0,1.04722224327614,-0.172222228844576,0.0458333348996699,0.311846703290939,0.229379892349243,0.0580321997404099
0,0.969444492309338,-0.156944454596674,0.00972222266958873,0.375987559556961,-0.0708603709936142,-0.0128281703218818
0,0.998611124609959,-0.138888896582264,-0.0486111125881959,0.377514719963074,-0.161573857069016,-0.0186313893646002
0,1.04166667574312,-0.116666675074056,-0.0722222259796579,0.355829000473023,-0.0256563406437635,0.0152716310694814
0,1.0513889189259,-0.12777778582816,-0.0680555564078778,0.339946508407593,0.0852157026529312,-0.0143553335219622
0,1.06805562152495,-0.150000007336368,-0.120833338567854,0.276416510343552,0.306348919868469,-0.0766635909676552
0,1.01388893532575,-0.13750000469901,-0.116666675074056,0.0244346093386412,0.234266817569733,0.00244346098043024
0,0.969444492309338,-0.13750000469901,-0.0375000018340919,0.0140499006956816,-0.00946841109544039,-0.0201585534960032
0,1.02083339474202,-0.138888896582264,-0.0458333348996699,0.0485637858510017,-0.0387899428606033,-0.0103847095742822
0,1.02638896227504,-0.138888896582264,-0.0569444456537738,0.0409279726445675,0.0229074470698834,-0.00488692196086049
0,1.03194452980806,-0.14583334384257,-0.0583333375370279,0.03176499158144,0.0244346093386412,0.000610865245107561
0,1.02777785415829,-0.141666668192807,-0.0500000014324589,0.0439822971820831,0.0235183127224445,-0.0122173046693206
0,1.02500007039179,-0.133333341205212,-0.0541666679652478,0.0418442711234093,0.0290160998702049,-0.00671951752156019
0,1.02083339474202,-0.12916666555545,-0.055555559848502,0.0256563406437635,0.0226020142436027,-0.0106901414692402
0,1.02083339474202,-0.134722233088466,-0.0500000014324589,0.0189368221908808,0.00977384392172098,-0.00946841109544039
0,1.02222228662528,-0.13750000469901,-0.0388888906783549,0.0152716310694814,0.0222965814173222,-0.00702495034784079
0,1.02500007039179,-0.13750000469901,-0.052777782159976,0.000610865245107561,0.0409279726445675,-0.000305432622553781
0,1.02222228662528,-0.130555557438704,-0.0486111125881959,0.000305432622553781,0.058643065392971,0.0103847095742822
0,1.01805561097552,-0.134722233088466,-0.0388888906783549,0.00305432616733015,0.0348193198442459,0.0109955742955208
0,1.01666671909226,-0.13750000469901,-0.052777782159976,0.00152716308366507,0.0161879286170006,0.00610865233466029
0,1.02500007039179,-0.136111112815755,-0.0611111152255539,-0.013744467869401,0.00977384392172098,-0.000305432622553781
5,1.02916674604155,-0.13750000469901,-0.055555559848502,-0.01588249579072,0.0284052342176437,0.0027488935738802
5,1.02222228662528,-0.12916666555545,-0.0486111125881959,-0.00855211354792118,0.0207694191485643,0.011606439948082
5,1.02222228662528,-0.12916666555545,-0.0486111125881959,-0.0140499006956816,0.00183259579353034,0.00733038317412138
5,1.01944450285877,-0.133333341205212,-0.0486111125881959,-0.00671951752156019,0.0100792767480016,0.0177150927484035
5,1.01666671909226,-0.134722233088466,-0.0513888902767219,-0.013744467869401,-0.0106901414692402,0.0140499006956816
5,1.01666671909226,-0.134722233088466,-0.0513888902767219,-0.00977384392172098,-0.0177150927484035,0.00916297826915979
5,1.02083339474202,-0.140277788465518,-0.0472222237439329,-0.015577063895762,-0.0204639863222837,0.0103847095742822
5,1.02500007039179,-0.143055560076062,-0.055555559848502,-0.00916297826915979,-0.0045814891345799,0.00702495034784079
5,1.02500007039179,-0.143055560076062,-0.055555559848502,-0.013744467869401,-0.0033597587607801,0.00152716308366507
5,1.02638896227504,-0.144444451959316,-0.0513888902767219,-0.00519235478714108,-0.01191187184304,-0.00946841109544039
5,1.02361117850853,-0.150000007336368,-0.0388888906783549,-0.00152716308366507,-0.00824668072164059,0.00519235478714108
5,1.02361117850853,-0.150000007336368,-0.0388888906783549,0.0113010071218014,-0.0146607663482428,-0.00397062394768
5,1.02777785415829,-0.14722222356986,-0.0541666679652478,0.0161879286170006,-0.00702495034784079,-0.0125227374956012
5,1.01527782720901,-0.154166670830166,-0.0625000010308258,0.0189368221908808,-0.00946841109544039,-0.00671951752156019
5,1.01527782720901,-0.154166670830166,-0.0625000010308258,0.0149661982432008,-0.000916297896765172,-0.0122173046693206
5,1.01527782720901,-0.152777778946911,-0.052777782159976,0.0299323964864016,-0.0210748501121998,-0.00549778714776039
5,1.01805561097552,-0.140277788465518,-0.0444444460554069,0.0348193198442459,-0.0161879286170006,-0.00733038317412138
5,1.02222228662528,-0.140277788465518,-0.0486111125881959,0.0125227374956012,-0.017409659922123,-0.013744467869401
5,1.02500007039179,-0.130555557438704,-0.0541666679652478,-0.00488692196086049,-0.0201585534960032,-0.0128281703218818
5,1.01944450285877,-0.12777778582816,-0.0486111125881959,-0.0287106670439243,-0.0219911485910416,-0.0293215326964855
5,1.0125000434425,-0.118055554801345,-0.0513888902767219,-0.0626136884093285,-0.0415388382971287,-0.0210748501121998
5,1.01388893532575,-0.12777778582816,-0.052777782159976,-0.0592539273202419,-0.0268780700862408,-0.0271835029125214
5,1.02361117850853,-0.13750000469901,-0.0486111125881959,-0.0467311926186085,-0.00397062394768,-0.00488692196086049
5,1.02638896227504,-0.12916666555545,-0.0541666679652478,-0.0580321997404099,-0.0021380283869803,-0.00549778714776039
5,1.01944450285877,-0.130555557438704,-0.0569444456537738,-0.0687223374843597,-0.019547687843442,-0.00366519158706069
5,1.01388893532575,-0.126388893944906,-0.0388888906783549,-0.0855211317539215,-0.0277943685650826,-0.00122173049021512
5,1.01944450285877,-0.125000002061652,-0.0472222237439329,-0.0867428630590439,-0.0335975885391235,0.0027488935738802
5,1.02500007039179,-0.134722233088466,-0.0500000014324589,-0.0956004112958908,-0.0250454749912024,0.0100792767480016
5,1.03194452980806,-0.141666668192807,-0.0513888902767219,-0.0858265683054924,-0.00152716308366507,0.0167987942695618
5,1.02916674604155,-0.156944454596674,-0.055555559848502,-0.070249505341053,0.00427605677396059,0.0213802829384804
5,1.02083339474202,-0.148611115453114,-0.0444444460554069,-0.0650571510195732,-0.0271835029125214,0.00580321997404099
5,1.01388893532575,-0.136111112815755,-0.0430555572111439,-0.0632245540618896,-0.0436768643558025,0.0027488935738802
5,1.00555558402623,-0.14722222356986,-0.0472222237439329,-0.0775798857212067,-0.0335975885391235,0.019547687843442
5,1.02361117850853,-0.150000007336368,-0.0458333348996699,-0.0265726372599602,0.0180205255746841,0.0262672062963247
5,1.01666671909226,-0.140277788465518,-0.055555559848502,-0.0439822971820831,0.00824668072164059,0.0418442711234093
5,1.0361111082101,-0.130555557438704,-0.0652777787193518,-0.0662788823246956,-0.0339030213654041,0.0143553335219622
5,1.0305556379248,-0.12916666555545,-0.0583333375370279,-0.0552833043038845,-0.0369573459029198,0.00488692196086049
5,1.02777785415829,-0.143055560076062,-0.0680555564078778,-0.0629191175103188,-0.0180205255746841,0.0186313893646002
5,1.01527782720901,-0.144444451959316,-0.0611111152255539,-0.0623082555830479,0.0513126812875271,0.0259617734700441
5,1.00833336779274,-0.12916666555545,-0.0541666679652478,-0.109039448201656,0.0348193198442459,-0.00916297826915979
5,1.00277780025972,-0.100000002864918,-0.0513888902767219,-0.146302223205566,-0.0268780700862408,-0.00519235478714108
5,1.00972225967599,-0.118055554801345,-0.0513888902767219,-0.127365410327911,-0.0803287774324417,-0.0164933614432812
5,1.03888889197661,-0.140277788465518,-0.0638888929140799,-0.114231802523136,-0.0742201283574104,-0.0167987942695618
5,1.05555559457566,-0.150000007336368,-0.0819444448505077,-0.106290549039841,0.0833831056952477,0.0436768643558025
5,1.0361111082101,-0.154166670830166,-0.0694444482911319,-0.0800233483314514,0.076052725315094,0.0256563406437635
5,1.01111115155925,-0.140277788465518,-0.0652777787193518,-0.103541657328606,0.0531452745199203,-0.00244346098043024
5,1.00972225967599,-0.140277788465518,-0.055555559848502,-0.0977384373545647,-0.00122173049021512,-0.0219911485910416
5,1.00277780025972,-0.136111112815755,-0.0597222233422998,-0.127976268529892,-0.0235183127224445,-0.0219911485910416
5,1.00000001649321,-0.144444451959316,-0.0625000010308258,-0.157297804951668,0.0546724386513233,-0.0244346093386412
5,1.00277780025972,-0.150000007336368,-0.0569444456537738,-0.12705996632576,0.0507018156349659,-0.0280998013913631
5,1.00972225967599,-0.14722222356986,-0.0625000010308258,-0.149661988019943,0.0577267669141293,-0.0409279726445675
5,1.04861113515939,-0.112499999424294,-0.0736111117849297,-0.135306656360626,0.0534507073462009,-0.0290160998702049
5,1.05555559457566,-0.101388894748172,-0.0736111117849297,-0.169820532202721,0.0204639863222837,-0.00824668072164059
5,1.05277781080915,-0.0916666697993398,-0.0694444482911319,-0.248927593231201,0.0339030213654041,0.0140499006956816
5,1.04305556762637,-0.105555564319952,-0.0722222259796579,-0.250454753637314,0.0339030213654041,0.0103847095742822
5,1.01666671909226,-0.120833338567854,-0.0652777787193518,-0.252898216247559,0.0372627787292004,0.0439822971820831
5,1.01111115155925,-0.148611115453114,-0.055555559848502,-0.216246291995048,0.0464257597923279,0.0253509078174829
5,1.00555558402623,-0.15555556271342,-0.0513888902767219,-0.184786736965179,0.0207694191485643,0.0412334054708481
5,1.01527782720901,-0.15555556271342,-0.0680555564078778,-0.157908663153648,0.0113010071218014,0.0439822971820831
5,1.0333333244436,-0.15555556271342,-0.0819444448505077,-0.122478485107422,0.0113010071218014,0.0387899428606033
5,1.0361111082101,-0.154166670830166,-0.0847222225390337,-0.111788339912891,0.0641408488154411,0.0229074470698834
5,1.02638896227504,-0.16527778158427,-0.0875000002275597,-0.0736092627048492,0.0678060427308083,0.00427605677396059
5,1.00972225967599,-0.162500009973726,-0.0777777813567098,-0.0519235469400883,0.0219911485910416,-0.00580321997404099
5,1.00833336779274,-0.154166670830166,-0.0819444448505077,-0.0458148941397667,-0.0045814891345799,-0.0192422550171614
5,1.00972225967599,-0.159722226207217,-0.0888888921108138,-0.0326812900602817,-0.0122173046693206,-0.0219911485910416
5,1.01944450285877,-0.162500009973726,-0.0847222225390337,0.000305432622553781,-0.0106901414692402,-0.00855211354792118
5,1.02222228662528,-0.166666673467524,-0.0819444448505077,0.00519235478714108,0.00122173049021512,-0.0290160998702049
5,1.01666671909226,-0.163888889701015,-0.0847222225390337,0.0293215326964855,0.0229074470698834,-0.0259617734700441
5,1.0125000434425,-0.152777778946911,-0.0763888894734557,0.0280998013913631,0.0244346093386412,-0.0406225398182869
5,1.02222228662528,-0.156944454596674,-0.0680555564078778,0.0455094613134861,0.0122173046693206,-0.0470366254448891
5,1.02916674604155,-0.154166670830166,-0.0666666706026059,0.0540615729987621,0.0271835029125214,-0.0464257597923279
5,1.01527782720901,-0.150000007336368,-0.0583333375370279,0.0775798857212067,0.0467311926186085,-0.0351247526705265
5,1.0125000434425,-0.148611115453114,-0.0625000010308258,0.0974330082535744,0.0280998013913631,-0.0287106670439243
5,1.03194452980806,-0.156944454596674,-0.0666666706026059,0.117591559886932,0.0241291765123606,-0.0452040284872055
5,1.02500007039179,-0.15555556271342,-0.0694444482911319,0.157297804951668,0.0601702257990837,-0.0161879286170006
5,1.02500007039179,-0.150000007336368,-0.052777782159976,0.178067222237587,0.090408056974411,-0.0189368221908808
5,1.02222228662528,-0.126388893944906,-0.0583333375370279,0.178983509540558,0.0351247526705265,-0.00794124789535999
5,1.0305556379248,-0.1194444466846,-0.055555559848502,0.16401731967926,0.0549778714776039,0.0253509078174829
5,1.00416669214298,-0.120833338567854,-0.0458333348996699,0.186008468270302,0.106290549039841,0.0519235469400883
5,0.99583334084345,-0.111111119697004,-0.0375000018340919,0.169820532202721,0.0922406539320946,0.0354301854968071
5,1.03888889197661,-0.104166672436698,-0.0347222241455659,0.149661988019943,-0.0183259565383196,0.0128281703218818
5,1.0361111082101,-0.104166672436698,-0.052777782159976,0.129503428936005,0.0433714315295219,0.00916297826915979
5,1.01944450285877,-0.106944444047242,-0.0458333348996699,0.113620936870575,0.0641408488154411,0.0146607663482428
5,1.00833336779274,-0.113888891307548,-0.0347222241455659,0.0977384373545647,0.00702495034784079,0.00885754637420177
5,1.02222228662528,-0.111111119697004,-0.0513888902767219,0.0891863256692886,-0.0372627787292004,0.000916297896765172
5,1.02916674604155,-0.112499999424294,-0.0486111125881959,0.0751364231109619,-0.0418442711234093,0.00916297826915979
5,1.02916674604155,-0.112499999424294,-0.0486111125881959,0.0592539273202419,0.00610865233466029,0.00763581553474069
5,1.03750000009336,-0.130555557438704,-0.0416666683668809,0.0488692186772823,-0.02382374368608,-0.00733038317412138
5,1.01944450285877,-0.138888896582264,-0.0430555572111439,0.0516181141138077,-0.0103847095742822,-0.00946841109544039
5,1.01944450285877,-0.138888896582264,-0.0430555572111439,0.0552833043038845,0.013744467869401,0.00152716308366507
5,1.02361117850853,-0.126388893944906,-0.0458333348996699,0.0745255574584007,-0.0189368221908808,-0.0244346093386412
5,1.01527782720901,-0.12777778582816,-0.0625000010308258,0.0693332031369209,-0.0140499006956816,-0.0125227374956012
5,1.01527782720901,-0.12777778582816,-0.0625000010308258,0.0561996027827263,-0.00580321997404099,-0.00244346098043024
5,1.02222228662528,-0.118055554801345,-0.0361111129898289,0.0256563406437635,-0.0305432621389627,-0.01588249579072
5,1.02361117850853,-0.118055554801345,-0.0444444460554069,0.0363464802503586,-0.00855211354792118,-0.0192422550171614
5,1.02361117850853,-0.118055554801345,-0.0444444460554069,0.0161879286170006,-0.0287106670439243,0.0146607663482428
5,1.0125000434425,-0.120833338567854,-0.0444444460554069,0.0421497002243996,-0.00641408516094089,0.0543670058250427
5,1.04166667574312,-0.144444451959316,-0.0375000018340919,0.0913243517279625,0.00916297826915979,0.029626963660121
5,1.02500007039179,-0.150000007336368,-0.0458333348996699,0.0891863256692886,0.0638354197144508,0.0342084541916847
5,0.998611124609959,-0.13750000469901,-0.0541666679652478,0.0549778714776039,0.0241291765123606,0.0241291765123606
5,1.00972225967599,-0.120833338567854,-0.0472222237439329,0.0323758572340012,0.0302378293126821,0.0226020142436027
5,1.02777785415829,-0.102777780553444,-0.0430555572111439,-0.0171042270958424,0.00244346098043024,0.00397062394768
5,1.02777785415829,-0.102777780553444,-0.0430555572111439,-0.0867428630590439,-0.0479529201984406,-0.0106901414692402
5,1.04166667574312,-0.112499999424294,-0.0388888906783549,-0.0977384373545647,-0.0229074470698834,-0.019547687843442
5,1.04583335139288,-0.134722233088466,-0.033333335301303,-0.087659165263176,-0.0229074470698834,-0.0354301854968071
5,1.04027778385987,-0.141666668192807,-0.0388888906783549,-0.0366519130766392,0.00671951752156019,-0.0467311926186085
5,1.03194452980806,-0.14583334384257,-0.0486111125881959,-0.0323758572340012,0.0189368221908808,-0.0262672062963247
5,1.0305556379248,-0.12777778582816,-0.0375000018340919,-0.0360410511493683,0.0180205255746841,-0.00733038317412138
5,1.03194452980806,-0.130555557438704,-0.0513888902767219,-0.0348193198442459,0.0427605658769607,-0.00885754637420177
5,1.02500007039179,-0.12916666555545,-0.0569444456537738,-0.0348193198442459,0.0183259565383196,-0.0131336031481624
5,1.02361117850853,-0.130555557438704,-0.0569444456537738,-0.0219911485910416,0.0329867228865623,-0.0314595587551594
5,1.01527782720901,-0.136111112815755,-0.0472222237439329,-0.0201585534960032,0.0351247526705265,-0.0207694191485643
5,1.00833336779274,-0.134722233088466,-0.0402777795226179,-0.00733038317412138,0.0113010071218014,-0.00488692196086049
5,1.00694447590948,-0.12916666555545,-0.0458333348996699,-0.00244346098043024,0.00885754637420177,0.00763581553474069
5,1.02083339474202,-0.13750000469901,-0.0541666679652478,0.0100792767480016,0.00977384392172098,0.01191187184304
5,1.02361117850853,-0.125000002061652,-0.0513888902767219,-0.000916297896765172,0.00702495034784079,0.0140499006956816
5,1.02638896227504,-0.123611110178398,-0.0416666683668809,0.00183259579353034,-0.0177150927484035,0.0021380283869803
5,1.02916674604155,-0.120833338567854,-0.055555559848502,-0.0262672062963247,0.00946841109544039,0.000305432622553781
5,1.02222228662528,-0.120833338567854,-0.0416666683668809,-0.0427605658769607,0.0171042270958424,0.0125227374956012
5,1.02222228662528,-0.1194444466846,-0.0361111129898289,-0.0500909499824047,-0.00610865233466029,0.00519235478714108
5,1.02638896227504,-0.120833338567854,-0.0375000018340919,-0.0406225398182869,0.00610865233466029,0.0140499006956816
5,1.02916674604155,-0.120833338567854,-0.0416666683668809,-0.0500909499824047,0.0125227374956012,0.0247400421649218
5,1.02916674604155,-0.111111119697004,-0.0388888906783549,-0.0623082555830479,-0.000916297896765172,0.0143553335219622
5,1.02916674604155,-0.111111119697004,-0.0388888906783549,-0.0882700309157372,0.00671951752156019,0.0284052342176437
5,1.02500007039179,-0.122222230451108,-0.033333335301303,-0.08460483700037,-0.0033597587607801,0.0293215326964855
5,1.02361117850853,-0.12916666555545,-0.0347222241455659,-0.0736092627048492,0.011606439948082,0.0131336031481624
5,1.01388893532575,-0.14583334384257,-0.0388888906783549,-0.0733038261532784,0.0210748501121998,0.0149661982432008
5,1.01388893532575,-0.140277788465518,-0.0458333348996699,-0.0598647929728031,0.000916297896765172,0.00152716308366507
5,1.02222228662528,-0.131944449321958,-0.0486111125881959,-0.0589484944939613,-0.0177150927484035,-0.000610865245107561
5,1.02222228662528,-0.12916666555545,-0.0513888902767219,-0.0503963828086853,-0.00641408516094089,-0.0149661982432008
5,1.02222228662528,-0.133333341205212,-0.052777782159976,-0.0519235469400883,0.00885754637420177,-0.00763581553474069
5,1.02083339474202,-0.13750000469901,-0.0361111129898289,-0.0357356183230877,0.00733038317412138,-0.00397062394768
5,1.02916674604155,-0.134722233088466,-0.0416666683668809,-0.0277943685650826,0.0103847095742822,-0.000305432622553781
5,1.02916674604155,-0.131944449321958,-0.0472222237439329,-0.0167987942695618,0.0146607663482428,0.00305432616733015
5,1.02777785415829,-0.126388893944906,-0.0458333348996699,-0.0027488935738802,0.0152716310694814,0.0021380283869803
5,1.02777785415829,-0.126388893944906,-0.0458333348996699,0.0045814891345799,0.0171042270958424,0.00122173049021512
5,1.02777785415829,-0.12916666555545,-0.0388888906783549,0.000916297896765172,-0.00366519158706069,-0.00549778714776039
5,1.02222228662528,-0.130555557438704,-0.0402777795226179,0.0125227374956012,-0.00397062394768,-0.00183259579353034
5,1.02222228662528,-0.130555557438704,-0.0402777795226179,-0.00122173049021512,0.0183259565383196,0.0125227374956012
5,1.02500007039179,-0.140277788465518,-0.0388888906783549,-0.00702495034784079,-0.00519235478714108,-0.0140499006956816
5,1.02222228662528,-0.140277788465518,-0.0458333348996699,0.00397062394768,0.0131336031481624,-0.0149661982432008
5,1.02222228662528,-0.131944449321958,-0.0444444460554069,-0.00977384392172098,0.00824668072164059,-0.0128281703218818
5,1.02638896227504,-0.130555557438704,-0.0569444456537738,-0.0305432621389627,-0.00152716308366507,0.00152716308366507
5,1.02638896227504,-0.130555557438704,-0.0486111125881959,-0.013744467869401,0.00946841109544039,-0.00641408516094089
5,1.01944450285877,-0.125000002061652,-0.0486111125881959,-0.0131336031481624,-0.00794124789535999,-0.00244346098043024
5,1.01944450285877,-0.125000002061652,-0.0486111125881959,-0.0201585534960032,-0.00824668072164059,-0.00824668072164059
5,1.02500007039179,-0.1194444466846,-0.0388888906783549,-0.0122173046693206,-0.00305432616733015,-0.000305432622553781
5,1.02638896227504,-0.123611110178398,-0.0402777795226179,-0.0186313893646002,-0.00946841109544039,-0.00427605677396059
5,1.02638896227504,-0.123611110178398,-0.0402777795226179,-0.00183259579353034,0.00885754637420177,-0.00946841109544039
5,1.02638896227504,-0.12777778582816,-0.0347222241455659,0.00885754637420177,0.00733038317412138,-0.00733038317412138
5,1.01944450285877,-0.12777778582816,-0.0472222237439329,0.0125227374956012,0.00549778714776039,-0.0106901414692402
5,1.02500007039179,-0.131944449321958,-0.0416666683668809,0.00885754637420177,0.00671951752156019,-0.0103847095742822
5,1.02500007039179,-0.130555557438704,-0.0458333348996699,0.0106901414692402,0.0109955742955208,-0.013744467869401
5,1.01944450285877,-0.12916666555545,-0.0388888906783549,0.00855211354792118,-0.000610865245107561,-0.0122173046693206
5,1.01805561097552,-0.126388893944906,-0.0500000014324589,0.0045814891345799,0.0100792767480016,-0.0128281703218818
5,1.02361117850853,-0.138888896582264,-0.055555559848502,-0.0021380283869803,0.00488692196086049,-0.00977384392172098
5,1.02222228662528,-0.140277788465518,-0.0388888906783549,-0.00366519158706069,0.000305432622553781,-0.0128281703218818
5,1.01944450285877,-0.130555557438704,-0.0388888906783549,-0.000305432622553781,-0.00824668072164059,-0.00305432616733015
5,1.02222228662528,-0.120833338567854,-0.0444444460554069,-0.00641408516094089,-0.000610865245107561,-0.0134390350431204
5,1.02361117850853,-0.125000002061652,-0.0472222237439329,-0.00916297826915979,0.011606439948082,-0.0143553335219622
5,1.02361117850853,-0.130555557438704,-0.0375000018340919,-0.0103847095742822,0.00763581553474069,-0.00610865233466029
5,1.02222228662528,-0.134722233088466,-0.0500000014324589,0.00152716308366507,-0.00702495034784079,-0.00397062394768
5,1.02222228662528,-0.13750000469901,-0.0500000014324589,0.0109955742955208,-0.0143553335219622,-0.00855211354792118
5,1.02500007039179,-0.141666668192807,-0.0513888902767219,0.00549778714776039,-0.011606439948082,-0.00397062394768
5,1.02361117850853,-0.136111112815755,-0.0444444460554069,-0.0113010071218014,-0.0122173046693206,-0.00397062394768
5,1.02500007039179,-0.126388893944906,-0.0444444460554069,-0.00733038317412138,-0.00824668072164059,0.00397062394768
5,1.02500007039179,-0.12916666555545,-0.0444444460554069,0.00519235478714108,-0.0177150927484035,0.0021380283869803
5,1.02083339474202,-0.134722233088466,-0.0486111125881959,0.00580321997404099,-0.0222965814173222,-0.000610865245107561
5,1.01944450285877,-0.136111112815755,-0.0569444456537738,0.00122173049021512,-0.0177150927484035,-0.00885754637420177
5,1.01944450285877,-0.130555557438704,-0.055555559848502,0.00885754637420177,0.0027488935738802,0.00580321997404099
5,1.01944450285877,-0.12916666555545,-0.0513888902767219,0.0134390350431204,0.000305432622553781,0.00610865233466029
5,1.02361117850853,-0.130555557438704,-0.0486111125881959,0.013744467869401,-0.00366519158706069,-0.00580321997404099
5,1.02638896227504,-0.12777778582816,-0.0513888902767219,0.00641408516094089,-0.0177150927484035,0.00794124789535999
5,1.02500007039179,-0.12777778582816,-0.0430555572111439,-0.000610865245107561,-0.00946841109544039,0.00885754637420177
5,1.02500007039179,-0.118055554801345,-0.0472222237439329,0.000610865245107561,0.0045814891345799,0.00946841109544039
5,1.02083339474202,-0.125000002061652,-0.0541666679652478,-0.0128281703218818,-0.0027488935738802,0.0122173046693206
5,1.02083339474202,-0.12916666555545,-0.0513888902767219,-0.00946841109544039,0.0103847095742822,0.013744467869401
5,1.01944450285877,-0.12777778582816,-0.0416666683668809,-0.00397062394768,0.00549778714776039,0.0149661982432008
5,1.01805561097552,-0.134722233088466,-0.0402777795226179,-0.00519235478714108,-0.00824668072164059,0.00855211354792118
5,1.01944450285877,-0.131944449321958,-0.0500000014324589,-0.00549778714776039,-0.0128281703218818,0.0103847095742822
5,1.02222228662528,-0.12916666555545,-0.0486111125881959,-0.0045814891345799,-0.0134390350431204,0.0128281703218818
5,1.02222228662528,-0.130555557438704,-0.0416666683668809,-0.00733038317412138,-0.0143553335219622,0.0027488935738802
5,1.02500007039179,-0.126388893944906,-0.0486111125881959,-0.00763581553474069,-0.011606439948082,0.0125227374956012
5,1.02222228662528,-0.12777778582816,-0.0500000014324589,-0.00549778714776039,-0.00763581553474069,0.0113010071218014
5,1.02500007039179,-0.130555557438704,-0.0430555572111439,-0.00397062394768,-0.011606439948082,0.0167987942695618
5,1.02500007039179,-0.125000002061652,-0.0472222237439329,-0.011606439948082,-0.00824668072164059,0.00977384392172098
5,1.02500007039179,-0.12916666555545,-0.0513888902767219,-0.01588249579072,-0.00488692196086049,0.00580321997404099
5,1.02638896227504,-0.126388893944906,-0.0472222237439329,-0.0357356183230877,-0.00855211354792118,0.00885754637420177
5,1.02500007039179,-0.131944449321958,-0.0416666683668809,-0.0284052342176437,-0.0122173046693206,0.00671951752156019
5,1.02500007039179,-0.12777778582816,-0.052777782159976,-0.0210748501121998,-0.011606439948082,0.00855211354792118
5,1.02638896227504,-0.130555557438704,-0.0625000010308258,-0.0177150927484035,-0.00183259579353034,-0.00183259579353034
5,1.02777785415829,-0.13750000469901,-0.0458333348996699,-0.0192422550171614,-0.00580321997404099,-0.00549778714776039
5,1.02361117850853,-0.12777778582816,-0.0416666683668809,-0.0100792767480016,-0.00733038317412138,-0.000305432622553781
5,1.02361117850853,-0.12916666555545,-0.0472222237439329,-0.00397062394768,-0.000916297896765172,-0.00152716308366507
5,1.02222228662528,-0.130555557438704,-0.0513888902767219,-0.00733038317412138,-0.00580321997404099,-0.00366519158706069
5,1.01944450285877,-0.130555557438704,-0.0458333348996699,-0.0109955742955208,0.00610865233466029,-0.00244346098043024
5,1.02222228662528,-0.134722233088466,-0.0513888902767219,-0.00763581553474069,0.00733038317412138,-0.00641408516094089
5,1.02222228662528,-0.134722233088466,-0.0513888902767219,-0.00366519158706069,0.00152716308366507,-0.00855211354792118
5,1.02777785415829,-0.12916666555545,-0.055555559848502,-0.00641408516094089,-0.00580321997404099,0.00305432616733015
5,1.02500007039179,-0.12916666555545,-0.052777782159976,-0.011606439948082,0.00488692196086049,0.000610865245107561
5,1.02361117850853,-0.130555557438704,-0.0513888902767219,-0.00702495034784079,0.00427605677396059,0.0027488935738802
5,1.02361117850853,-0.130555557438704,-0.0513888902767219,-0.00183259579353034,-0.00885754637420177,0.00366519158706069
5,1.02638896227504,-0.131944449321958,-0.052777782159976,-0.00549778714776039,-0.00610865233466029,0.000305432622553781
5,1.02916674604155,-0.130555557438704,-0.055555559848502,-0.00824668072164059,0.00366519158706069,0.00824668072164059
5,1.02500007039179,-0.131944449321958,-0.055555559848502,-0.0122173046693206,0.0222965814173222,-0.00183259579353034
5,1.02361117850853,-0.12777778582816,-0.0513888902767219,-0.00977384392172098,0.00366519158706069,0.00580321997404099
5,1.02083339474202,-0.130555557438704,-0.0458333348996699,0.00977384392172098,-0.00549778714776039,0.000305432622553781
5,1.02222228662528,-0.133333341205212,-0.0583333375370279,0.00244346098043024,-0.0106901414692402,0.000916297896765172
5,1.02222228662528,-0.131944449321958,-0.0486111125881959,-0.000916297896765172,0.000610865245107561,0.0045814891345799
5,1.02083339474202,-0.125000002061652,-0.0500000014324589,-0.00244346098043024,0.0125227374956012,0.00580321997404099
5,1.02222228662528,-0.126388893944906,-0.0486111125881959,-0.00366519158706069,0.00855211354792118,0.000916297896765172
5,1.01944450285877,-0.131944449321958,-0.052777782159976,0.0045814891345799,0.00122173049021512,0.00488692196086049
5,1.02222228662528,-0.134722233088466,-0.0486111125881959,0.00641408516094089,0.00122173049021512,0.00580321997404099
5,1.02500007039179,-0.134722233088466,-0.0513888902767219,0.0033597587607801,-0.000610865245107561,0.00305432616733015
5,1.02222228662528,-0.131944449321958,-0.0638888929140799,0.011606439948082,-0.0027488935738802,-0.00610865233466029
5,1.02638896227504,-0.12777778582816,-0.0472222237439329,0.0027488935738802,0.00733038317412138,-0.00152716308366507
5,1.01944450285877,-0.12777778582816,-0.0652777787193518,0.00488692196086049,0.00427605677396059,-0.00610865233466029
5,1.02500007039179,-0.130555557438704,-0.0611111152255539,-0.0045814891345799,0.00519235478714108,0.00519235478714108
5,1.02222228662528,-0.134722233088466,-0.0583333375370279,0.00152716308366507,0.00152716308366507,0.000916297896765172
5,1.01944450285877,-0.130555557438704,-0.0583333375370279,0.00122173049021512,0.00244346098043024,0.00610865233466029
5,1.02222228662528,-0.12777778582816,-0.0597222233422998,0.0027488935738802,0.0045814891345799,-0.0027488935738802
5,1.01944450285877,-0.134722233088466,-0.0597222233422998,0.0027488935738802,0.00366519158706069,0.0131336031481624
5,1.02361117850853,-0.131944449321958,-0.0513888902767219,-0.0033597587607801,0.00916297826915979,0.00366519158706069
5,1.02638896227504,-0.131944449321958,-0.0513888902767219,0.000916297896765172,0.000916297896765172,0.00397062394768
5,1.02361117850853,-0.130555557438704,-0.0513888902767219,0.0033597587607801,0.00305432616733015,0.000305432622553781
5,1.02500007039179,-0.131944449321958,-0.055555559848502,-0.0033597587607801,-0.000610865245107561,0.00122173049021512
5,1.02500007039179,-0.12777778582816,-0.0583333375370279,0.00305432616733015,0.00397062394768,0.00427605677396059
5,1.02083339474202,-0.125000002061652,-0.055555559848502,-0.00152716308366507,-0.00977384392172098,0.00427605677396059
5,1.02083339474202,-0.12777778582816,-0.055555559848502,0.00580321997404099,-0.00702495034784079,-0.00427605677396059
5,1.02222228662528,-0.126388893944906,-0.0513888902767219,0.00366519158706069,-0.00305432616733015,0.0103847095742822
5,1.02500007039179,-0.126388893944906,-0.0513888902767219,0.00244346098043024,-0.00916297826915979,0.00580321997404099
5,1.02500007039179,-0.12777778582816,-0.052777782159976,-0.0021380283869803,-0.00488692196086049,0.00183259579353034
5,1.02638896227504,-0.134722233088466,-0.0458333348996699,0.00885754637420177,-0.0045814891345799,0.00397062394768
5,1.01944450285877,-0.133333341205212,-0.0486111125881959,0.00641408516094089,-0.00366519158706069,-0.00397062394768
5,1.01944450285877,-0.12777778582816,-0.0541666679652478,0.00855211354792118,-0.00763581553474069,0.0045814891345799
5,1.02222228662528,-0.12916666555545,-0.0416666683668809,0.0134390350431204,-0.0100792767480016,0.00488692196086049
5,1.02361117850853,-0.126388893944906,-0.0486111125881959,0.0161879286170006,-0.0189368221908808,0.00794124789535999
5,1.02500007039179,-0.130555557438704,-0.0472222237439329,0.00855211354792118,-0.0143553335219622,0.00641408516094089
5,1.02777785415829,-0.130555557438704,-0.0666666706026059,0.00152716308366507,-0.0045814891345799,0.00397062394768
5,1.02361117850853,-0.131944449321958,-0.0652777787193518,0.00885754637420177,-0.00855211354792118,0.00763581553474069
5,1.02777785415829,-0.130555557438704,-0.0486111125881959,0.0164933614432812,-0.013744467869401,0.00305432616733015
5,1.02222228662528,-0.130555557438704,-0.055555559848502,0.0210748501121998,-0.0177150927484035,0.00244346098043024
5,1.02083339474202,-0.126388893944906,-0.0458333348996699,-0.00855211354792118,-0.00305432616733015,-0.00152716308366507
5,1.02222228662528,-0.12916666555545,-0.0597222233422998,-0.0186313893646002,0.0186313893646002,0.0183259565383196
5,1.01944450285877,-0.123611110178398,-0.0388888906783549,-0.0122173046693206,-0.0021380283869803,0.00580321997404099
5,1.01805561097552,-0.12777778582816,-0.0486111125881959,0.00671951752156019,-0.0198531206697226,0.00733038317412138
5,1.01944450285877,-0.12916666555545,-0.0513888902767219,0.00580321997404099,-0.0323758572340012,0.0125227374956012
5,1.02222228662528,-0.12916666555545,-0.052777782159976,-0.00183259579353034,-0.017409659922123,0.0201585534960032
5,1.02638896227504,-0.130555557438704,-0.0597222233422998,-0.000305432622553781,-0.00580321997404099,0.0122173046693206
5,1.02638896227504,-0.130555557438704,-0.055555559848502,-0.00549778714776039,-0.00763581553474069,0.0109955742955208
5,1.02638896227504,-0.134722233088466,-0.0597222233422998,-0.0033597587607801,-0.00977384392172098,0.00916297826915979
5,1.02500007039179,-0.13750000469901,-0.0611111152255539,-0.0045814891345799,-0.011606439948082,0.00305432616733015
5,1.02361117850853,-0.13750000469901,-0.0583333375370279,0.00855211354792118,-0.00794124789535999,0.000610865245107561
5,1.02361117850853,-0.134722233088466,-0.0513888902767219,0.011606439948082,-0.00610865233466029,-0.000305432622553781
5,1.02222228662528,-0.136111112815755,-0.0611111152255539,0.0146607663482428,0.00122173049021512,-0.0027488935738802
5,1.01944450285877,-0.134722233088466,-0.0486111125881959,0.0140499006956816,0.0106901414692402,0.00549778714776039
5,1.02222228662528,-0.136111112815755,-0.0583333375370279,0.011606439948082,0.00519235478714108,-0.00488692196086049
5,1.02222228662528,-0.140277788465518,-0.0513888902767219,0.013744467869401,0.00244346098043024,0.00488692196086049
5,1.02222228662528,-0.134722233088466,-0.0541666679652478,0.0106901414692402,-0.0186313893646002,0.0021380283869803
5,1.01527782720901,-0.133333341205212,-0.0583333375370279,0.00671951752156019,-0.0226020142436027,0.00794124789535999
5,1.02083339474202,-0.126388893944906,-0.0513888902767219,0.00794124789535999,-0.0219911485910416,0.000610865245107561
5,1.02222228662528,-0.12916666555545,-0.0611111152255539,0.0045814891345799,-0.0253509078174829,0.0143553335219622
5,1.02361117850853,-0.13750000469901,-0.0513888902767219,-0.0021380283869803,-0.0125227374956012,0.0167987942695618
5,1.02638896227504,-0.133333341205212,-0.0625000010308258,-0.00702495034784079,-0.0167987942695618,0.0152716310694814
5,1.02500007039179,-0.134722233088466,-0.0597222233422998,-0.00580321997404099,-0.013744467869401,0.00946841109544039
5,1.02083339474202,-0.12777778582816,-0.0472222237439329,-0.00519235478714108,-0.0180205255746841,0.000610865245107561
5,1.02083339474202,-0.134722233088466,-0.0638888929140799,-0.0149661982432008,-0.0164933614432812,0.01191187184304
5,1.02500007039179,-0.140277788465518,-0.0652777787193518,-0.0253509078174829,-0.0033597587607801,0.00610865233466029
5,1.02222228662528,-0.138888896582264,-0.0652777787193518,-0.0177150927484035,-0.00885754637420177,0.000610865245107561
5,1.02083339474202,-0.13750000469901,-0.052777782159976,-0.0131336031481624,-0.00580321997404099,0.00885754637420177
5,1.02083339474202,-0.141666668192807,-0.0597222233422998,-0.0113010071218014,-0.011606439948082,0.0027488935738802
5,1.02361117850853,-0.138888896582264,-0.0583333375370279,-0.0125227374956012,-0.0143553335219622,0.0106901414692402
5,1.01805561097552,-0.136111112815755,-0.055555559848502,-0.0134390350431204,-0.011606439948082,0.0027488935738802
5,1.01388893532575,-0.136111112815755,-0.0513888902767219,-0.0128281703218818,-0.00916297826915979,0.0149661982432008
5,1.01805561097552,-0.140277788465518,-0.0569444456537738,-0.00305432616733015,-0.0149661982432008,-0.0021380283869803
5,1.02222228662528,-0.13750000469901,-0.0569444456537738,-0.00366519158706069,-0.00397062394768,0.0109955742955208
5,1.02222228662528,-0.136111112815755,-0.0652777787193518,-0.00794124789535999,-0.00183259579353034,0.0045814891345799
5,1.02361117850853,-0.13750000469901,-0.0597222233422998,-0.00641408516094089,-0.0100792767480016,0.00855211354792118
5,1.02361117850853,-0.13750000469901,-0.0597222233422998,-0.013744467869401,-0.00946841109544039,0.00824668072164059
5,1.02500007039179,-0.134722233088466,-0.0625000010308258,-0.0192422550171614,-0.0128281703218818,0.00885754637420177
5,1.02361117850853,-0.138888896582264,-0.0680555564078778,-0.0177150927484035,-0.0045814891345799,0.0149661982432008
5,1.02500007039179,-0.13750000469901,-0.0652777787193518,0.00916297826915979,-0.0131336031481624,0.0122173046693206
5,1.02222228662528,-0.130555557438704,-0.055555559848502,-0.00122173049021512,-0.0268780700862408,0.0125227374956012
5,1.02083339474202,-0.134722233088466,-0.0625000010308258,-0.00580321997404099,-0.00610865233466029,0.0125227374956012
5,1.02222228662528,-0.131944449321958,-0.0722222259796579,-0.0326812900602817,0.0134390350431204,0.00671951752156019
5,1.01944450285877,-0.136111112815755,-0.0625000010308258,-0.029626963660121,0.0045814891345799,0.0131336031481624
5,1.01805561097552,-0.13750000469901,-0.0680555564078778,-0.00580321997404099,-0.0180205255746841,0.013744467869401
5,1.02222228662528,-0.140277788465518,-0.0569444456537738,0.00610865233466029,-0.0204639863222837,0.00977384392172098
5,1.02083339474202,-0.136111112815755,-0.0652777787193518,-0.0103847095742822,-0.0134390350431204,0.00610865233466029
5,1.02777785415829,-0.134722233088466,-0.0722222259796579,-0.00488692196086049,-0.0027488935738802,0.01191187184304
5,1.02500007039179,-0.133333341205212,-0.0708333340964038,-0.00488692196086049,0.00397062394768,-0.00641408516094089
5,1.02500007039179,-0.136111112815755,-0.0666666706026059,-0.00244346098043024,0.0033597587607801,0.00244346098043024
5,1.01944450285877,-0.138888896582264,-0.0666666706026059,0.00519235478714108,-0.00305432616733015,0.00794124789535999
5,1.01527782720901,-0.136111112815755,-0.0638888929140799,0.0146607663482428,-0.0177150927484035,0.0109955742955208
5,1.01944450285877,-0.141666668192807,-0.0680555564078778,0.0222965814173222,-0.0122173046693206,0.0103847095742822
5,1.02500007039179,-0.144444451959316,-0.0722222259796579,0.0207694191485643,0.00183259579353034,0.00733038317412138
5,1.02361117850853,-0.134722233088466,-0.0722222259796579,0.0256563406437635,-0.000305432622553781,0.0113010071218014
5,1.02500007039179,-0.13750000469901,-0.0708333340964038,0.0290160998702049,0.00885754637420177,0.00885754637420177
5,1.02222228662528,-0.143055560076062,-0.0750000036681839,0.0406225398182869,0.0143553335219622,0.0106901414692402
5,1.01944450285877,-0.14583334384257,-0.0763888894734557,0.0546724386513233,0.0378736443817616,-0.00244346098043024
5,1.02083339474202,-0.141666668192807,-0.0763888894734557,0.0311541277915239,0.0335975885391235,0.0109955742955208
5,1.02361117850853,-0.130555557438704,-0.0736111117849297,0.0366519130766392,0.0326812900602817,0.00824668072164059
5,1.02222228662528,-0.125000002061652,-0.0666666706026059,0.0152716310694814,0.021685715764761,0.000916297896765172
5,1.01805561097552,-0.122222230451108,-0.0666666706026059,0.00794124789535999,0.00519235478714108,0.000610865245107561
5,1.01527782720901,-0.12777778582816,-0.0680555564078778,-0.00763581553474069,0.000305432622553781,-0.000916297896765172
5,1.02222228662528,-0.12916666555545,-0.0694444482911319,-0.0021380283869803,0.00397062394768,0.00580321997404099
5,1.02222228662528,-0.130555557438704,-0.0708333340964038,-0.00733038317412138,-0.000610865245107561,0.00183259579353034
5,1.02222228662528,-0.130555557438704,-0.0694444482911319,-0.015577063895762,-0.000916297896765172,0.00122173049021512
5,1.02500007039179,-0.12916666555545,-0.0638888929140799,-0.0140499006956816,-0.000305432622553781,-0.000305432622553781
5,1.02361117850853,-0.134722233088466,-0.0625000010308258,-0.00824668072164059,0.00519235478714108,0.00855211354792118
5,1.02083339474202,-0.13750000469901,-0.0583333375370279,-0.0171042270958424,0.00763581553474069,0.00366519158706069
5,1.01944450285877,-0.140277788465518,-0.0652777787193518,-0.0109955742955208,0.00366519158706069,-0.000916297896765172
5,1.02222228662528,-0.140277788465518,-0.0638888929140799,-0.0128281703218818,-0.000610865245107561,0.00366519158706069
5,1.02083339474202,-0.140277788465518,-0.0625000010308258,-0.00671951752156019,-0.00244346098043024,-0.00580321997404099
5,1.02361117850853,-0.140277788465518,-0.0625000010308258,0.00580321997404099,-0.00916297826915979,0.00580321997404099
5,1.02222228662528,-0.13750000469901,-0.0652777787193518,-0.0021380283869803,0.000610865245107561,0.00641408516094089
5,1.02500007039179,-0.13750000469901,-0.0750000036681839,-0.0033597587607801,-0.0027488935738802,0.00519235478714108
5,1.02500007039179,-0.13750000469901,-0.0750000036681839,-0.00519235478714108,0.000305432622553781,-0.00244346098043024
5,1.02500007039179,-0.13750000469901,-0.0708333340964038,-0.0033597587607801,0.00152716308366507,-0.000916297896765172
5,1.02500007039179,-0.136111112815755,-0.0638888929140799,-0.00702495034784079,0.0045814891345799,-0.0033597587607801
5,1.02500007039179,-0.136111112815755,-0.0638888929140799,-0.00366519158706069,0.00519235478714108,-0.00794124789535999
5,1.02500007039179,-0.130555557438704,-0.0625000010308258,-0.00733038317412138,0.0033597587607801,-0.00916297826915979
5,1.02222228662528,-0.136111112815755,-0.0694444482911319,-0.0235183127224445,0.00397062394768,-0.00763581553474069
5,1.02222228662528,-0.136111112815755,-0.0694444482911319,-0.0207694191485643,0.00794124789535999,-0.0177150927484035
5,1.02222228662528,-0.13750000469901,-0.0652777787193518,-0.00641408516094089,-0.0027488935738802,-0.0180205255746841
5,1.02222228662528,-0.144444451959316,-0.0680555564078778,-0.00152716308366507,-0.00977384392172098,-0.0161879286170006
5,1.02222228662528,-0.14722222356986,-0.0708333340964038,-0.0045814891345799,-0.0113010071218014,-0.0131336031481624
5,1.02222228662528,-0.144444451959316,-0.0722222259796579,-0.0113010071218014,0.000610865245107561,-0.0140499006956816
5,1.02500007039179,-0.144444451959316,-0.0722222259796579,0.00366519158706069,0.0027488935738802,-0.0134390350431204
5,1.02083339474202,-0.144444451959316,-0.0638888929140799,0.0262672062963247,-0.01588249579072,-0.00580321997404099
5,1.01944450285877,-0.14722222356986,-0.055555559848502,0.0387899428606033,0.00397062394768,-0.00794124789535999
5,1.02500007039179,-0.15555556271342,-0.055555559848502,0.0271835029125214,0.0146607663482428,-0.0167987942695618
5,1.02222228662528,-0.14583334384257,-0.0652777787193518,0.0250454749912024,0.015577063895762,-0.0161879286170006
5,1.01944450285877,-0.130555557438704,-0.0722222259796579,0.00549778714776039,0.015577063895762,-0.0033597587607801
5,1.02638896227504,-0.12777778582816,-0.0847222225390337,0.00397062394768,0.0290160998702049,-0.000305432622553781
5,1.02638896227504,-0.12777778582816,-0.0763888894734557,-0.00427605677396059,0.0268780700862408,0.00641408516094089
5,1.02083339474202,-0.131944449321958,-0.0680555564078778,0.00152716308366507,0.0125227374956012,0.0109955742955208
5,1.02222228662528,-0.134722233088466,-0.0777777813567098,0.00152716308366507,0.00733038317412138,-0.00488692196086049
5,1.02500007039179,-0.138888896582264,-0.0680555564078778,-0.0021380283869803,0.0167987942695618,-0.00152716308366507
5,1.02500007039179,-0.134722233088466,-0.0722222259796579,-0.0045814891345799,0.00824668072164059,0.0033597587607801
5,1.02083339474202,-0.134722233088466,-0.0708333340964038,-0.0106901414692402,0.0045814891345799,0.00305432616733015
5,1.02222228662528,-0.13750000469901,-0.0569444456537738,0.00763581553474069,0.00305432616733015,-0.00488692196086049
5,1.01944450285877,-0.140277788465518,-0.0583333375370279,0.0045814891345799,0.0100792767480016,-0.0045814891345799
5,1.01111115155925,-0.140277788465518,-0.0583333375370279,0.00763581553474069,-0.00152716308366507,0.0103847095742822
5,1.01527782720901,-0.13750000469901,-0.0652777787193518,0.0125227374956012,0.0045814891345799,-0.00244346098043024
5,1.02083339474202,-0.140277788465518,-0.0652777787193518,0.0180205255746841,0.00183259579353034,0.00244346098043024
5,1.02222228662528,-0.140277788465518,-0.0666666706026059,0.017409659922123,-0.000305432622553781,0.0045814891345799
5,1.02500007039179,-0.134722233088466,-0.0500000014324589,0.011606439948082,0.0100792767480016,0.0113010071218014
5,1.02222228662528,-0.134722233088466,-0.0625000010308258,0.000305432622553781,0.00397062394768,0.00916297826915979
5,1.02500007039179,-0.13750000469901,-0.0680555564078778,-0.00183259579353034,0.00244346098043024,0.00671951752156019
5,1.02222228662528,-0.133333341205212,-0.0680555564078778,-0.0027488935738802,0.00702495034784079,-0.000916297896765172
5,1.02638896227504,-0.125000002061652,-0.0680555564078778,-0.0021380283869803,0.0131336031481624,-0.0033597587607801
5,1.02500007039179,-0.126388893944906,-0.0680555564078778,-0.0100792767480016,0.0247400421649218,-0.000916297896765172
5,1.02222228662528,-0.130555557438704,-0.0597222233422998,0.00855211354792118,0.0161879286170006,-0.00610865233466029
5,1.0305556379248,-0.126388893944906,-0.0625000010308258,0.0164933614432812,0.00549778714776039,-0.0164933614432812
5,1.02083339474202,-0.12777778582816,-0.0638888929140799,0.0106901414692402,0.0109955742955208,-0.0113010071218014
5,1.01944450285877,-0.136111112815755,-0.055555559848502,0.017409659922123,0.000610865245107561,-0.00122173049021512
5,1.01944450285877,-0.13750000469901,-0.0583333375370279,0.0167987942695618,0.000610865245107561,-0.00488692196086049
5,1.01944450285877,-0.134722233088466,-0.0694444482911319,0.0125227374956012,0.00519235478714108,-0.00488692196086049
5,1.01527782720901,-0.136111112815755,-0.0652777787193518,0.00916297826915979,0.011606439948082,-0.00152716308366507
5,1.01944450285877,-0.133333341205212,-0.0652777787193518,0.011606439948082,0.00641408516094089,-0.0033597587607801
5,1.02500007039179,-0.12777778582816,-0.0666666706026059,0.015577063895762,0.00610865233466029,-0.00946841109544039
5,1.02361117850853,-0.12916666555545,-0.0625000010308258,0.0189368221908808,0.00855211354792118,-0.0229074470698834
5,1.02222228662528,-0.12916666555545,-0.0638888929140799,0.0244346093386412,-0.000916297896765172,-0.0122173046693206
5,1.02500007039179,-0.12916666555545,-0.0625000010308258,0.0113010071218014,0.0152716310694814,-0.0149661982432008
5,1.01944450285877,-0.130555557438704,-0.0611111152255539,0.00641408516094089,0.0152716310694814,-0.0106901414692402
5,1.01666671909226,-0.130555557438704,-0.0652777787193518,-0.00488692196086049,-0.00183259579353034,0.00305432616733015
5,1.01527782720901,-0.141666668192807,-0.0652777787193518,-0.00855211354792118,-0.0033597587607801,0.000305432622553781
5,1.02361117850853,-0.140277788465518,-0.0680555564078778,-0.0134390350431204,0.0198531206697226,-0.00763581553474069
5,1.02361117850853,-0.134722233088466,-0.0722222259796579,-0.027488935738802,0.0400116741657257,-0.00152716308366507
5,1.02222228662528,-0.134722233088466,-0.0652777787193518,-0.0284052342176437,0.0381790772080422,-0.00885754637420177
5,1.02361117850853,-0.13750000469901,-0.0541666679652478,-0.01588249579072,0.0277943685650826,-0.00794124789535999
5,1.02361117850853,-0.140277788465518,-0.0486111125881959,0.017409659922123,0.0113010071218014,-0.0131336031481624
5,1.02916674604155,-0.134722233088466,-0.0611111152255539,0.0149661982432008,0.0021380283869803,-0.0149661982432008
5,1.03194452980806,-0.12777778582816,-0.0708333340964038,0.0128281703218818,0.0131336031481624,-0.00946841109544039
5,1.02361117850853,-0.12916666555545,-0.0680555564078778,0.00855211354792118,0.0103847095742822,-0.00824668072164059
5,1.02222228662528,-0.133333341205212,-0.0583333375370279,0.013744467869401,0.0045814891345799,-0.0131336031481624
5,1.02083339474202,-0.134722233088466,-0.0500000014324589,0.0152716310694814,0.00122173049021512,-0.0103847095742822
5,1.02222228662528,-0.133333341205212,-0.0611111152255539,0.00244346098043024,0.011606439948082,-0.0113010071218014
5,1.01944450285877,-0.125000002061652,-0.0500000014324589,0.00122173049021512,0.00885754637420177,-0.01191187184304
5,1.02500007039179,-0.130555557438704,-0.0513888902767219,0.017409659922123,0.00122173049021512,-0.00152716308366507
5,1.01944450285877,-0.12916666555545,-0.0541666679652478,0.0259617734700441,-0.0045814891345799,-0.00397062394768
5,1.02222228662528,-0.131944449321958,-0.0486111125881959,0.0122173046693206,-0.0109955742955208,-0.00397062394768
5,1.02222228662528,-0.131944449321958,-0.0513888902767219,0.00855211354792118,0.000305432622553781,0.00946841109544039
5,1.01666671909226,-0.130555557438704,-0.0513888902767219,0.00519235478714108,-0.0113010071218014,0.00183259579353034
5,1.01944450285877,-0.134722233088466,-0.0486111125881959,0.00366519158706069,-0.00122173049021512,0.00183259579353034
5,1.02361117850853,-0.130555557438704,-0.055555559848502,0.0100792767480016,0.0045814891345799,0.00152716308366507
5,1.01805561097552,-0.126388893944906,-0.0569444456537738,0.0204639863222837,-0.00855211354792118,0.00366519158706069
5,1.02916674604155,-0.12777778582816,-0.055555559848502,0.0171042270958424,-0.0122173046693206,-0.00885754637420177
5,1.0305556379248,-0.12777778582816,-0.0583333375370279,0.00794124789535999,0.015577063895762,-0.00519235478714108
5,1.01944450285877,-0.120833338567854,-0.0513888902767219,-0.00641408516094089,0.011606439948082,-0.0033597587607801
5,1.01666671909226,-0.126388893944906,-0.0625000010308258,-0.0149661982432008,0.0134390350431204,0.00397062394768
5,1.01944450285877,-0.12777778582816,-0.0625000010308258,-0.021685715764761,0.0143553335219622,0.0033597587607801
5,1.01944450285877,-0.12777778582816,-0.0625000010308258,-0.0164933614432812,0.019547687843442,-0.00488692196086049
5,1.02916674604155,-0.140277788465518,-0.0638888929140799,-0.0021380283869803,0.0314595587551594,-0.0219911485910416
5,1.02361117850853,-0.141666668192807,-0.0569444456537738,0.013744467869401,0.0394008085131645,-0.0247400421649218
5,1.01666671909226,-0.138888896582264,-0.0486111125881959,0.015577063895762,0.0219911485910416,-0.0384845100343227
5,1.01527782720901,-0.12777778582816,-0.0458333348996699,0.0045814891345799,0.0152716310694814,-0.0287106670439243
5,1.01527782720901,-0.125000002061652,-0.0513888902767219,-0.00641408516094089,0.00305432616733015,-0.0201585534960032
5,1.02500007039179,-0.12777778582816,-0.0583333375370279,-0.01191187184304,0.0140499006956816,-0.013744467869401
5,1.02222228662528,-0.13750000469901,-0.0569444456537738,-0.000610865245107561,0.0222965814173222,-0.011606439948082
5,1.02500007039179,-0.138888896582264,-0.0583333375370279,0.0146607663482428,0.0326812900602817,-0.0140499006956816
5,1.02500007039179,-0.138888896582264,-0.0583333375370279,0.0167987942695618,0.0259617734700441,-0.013744467869401
5,1.01111115155925,-0.126388893944906,-0.052777782159976,0.0183259565383196,0.0149661982432008,0.00397062394768
5,1.01111115155925,-0.12777778582816,-0.055555559848502,-0.00152716308366507,0.0045814891345799,0.01191187184304
5,1.01111115155925,-0.12777778582816,-0.055555559848502,-0.00977384392172098,-0.0204639863222837,0.0177150927484035
5,1.01944450285877,-0.130555557438704,-0.0500000014324589,-0.00305432616733015,-0.0314595587551594,0.0244346093386412
5,1.02916674604155,-0.136111112815755,-0.055555559848502,-0.00366519158706069,-0.0180205255746841,0.01191187184304
5,1.02916674604155,-0.136111112815755,-0.055555559848502,0.011606439948082,-0.00519235478714108,0.013744467869401
5,1.01527782720901,-0.122222230451108,-0.0513888902767219,0.000916297896765172,-0.0125227374956012,0.00641408516094089
5,1.01527782720901,-0.122222230451108,-0.0513888902767219,0.00366519158706069,-0.0323758572340012,0.00702495034784079
5,1.02222228662528,-0.120833338567854,-0.0569444456537738,0.00671951752156019,-0.0180205255746841,0.0122173046693206
5,1.02916674604155,-0.131944449321958,-0.0569444456537738,0.00152716308366507,0.00519235478714108,0.0033597587607801
5,1.02500007039179,-0.134722233088466,-0.0486111125881959,0.0140499006956816,0.0033597587607801,-0.00244346098043024
5,1.01666671909226,-0.130555557438704,-0.055555559848502,0.0128281703218818,0.0021380283869803,0.00152716308366507
5,1.01944450285877,-0.130555557438704,-0.052777782159976,0.0226020142436027,0.00824668072164059,-0.00244346098043024
5,1.02083339474202,-0.130555557438704,-0.0597222233422998,0.0287106670439243,0.00183259579353034,-0.000305432622553781
5,1.02222228662528,-0.12777778582816,-0.0597222233422998,0.0378736443817616,0.00610865233466029,-0.00733038317412138
5,1.02638896227504,-0.12777778582816,-0.0583333375370279,0.0280998013913631,0.00549778714776039,0.00763581553474069
5,1.02500007039179,-0.126388893944906,-0.0541666679652478,0.0259617734700441,-0.00488692196086049,0.0045814891345799
5,1.02500007039179,-0.125000002061652,-0.0486111125881959,0.0171042270958424,0.00641408516094089,-0.000305432622553781
5,1.02500007039179,-0.120833338567854,-0.0583333375370279,0.00427605677396059,-0.0033597587607801,0.00366519158706069
5,1.01944450285877,-0.123611110178398,-0.0611111152255539,-0.019547687843442,0.019547687843442,0.00702495034784079
5,1.02083339474202,-0.131944449321958,-0.0694444482911319,-0.0348193198442459,0.0342084541916847,0.0122173046693206
5,1.02222228662528,-0.133333341205212,-0.0722222259796579,-0.0406225398182869,0.0470366254448891,0.00824668072164059
5,1.01944450285877,-0.12777778582816,-0.0611111152255539,-0.0219911485910416,0.0219911485910416,0.00641408516094089
5,1.02638896227504,-0.133333341205212,-0.0500000014324589,0.0113010071218014,-0.0021380283869803,-0.0177150927484035
5,1.03194452980806,-0.134722233088466,-0.052777782159976,0.0265726372599602,0.0259617734700441,-0.0186313893646002
5,1.02222228662528,-0.12777778582816,-0.0500000014324589,-0.00183259579353034,0.00549778714776039,-0.00397062394768
5,1.01805561097552,-0.130555557438704,-0.0500000014324589,0.00855211354792118,-0.00977384392172098,0.0125227374956012
5,1.01527782720901,-0.130555557438704,-0.0513888902767219,0.013744467869401,-0.0183259565383196,0.00610865233466029
5,1.02500007039179,-0.131944449321958,-0.0486111125881959,0.0167987942695618,-0.00855211354792118,-0.00488692196086049
5,1.02222228662528,-0.130555557438704,-0.055555559848502,0.0210748501121998,0.00610865233466029,-0.00397062394768
5,1.02222228662528,-0.12777778582816,-0.0583333375370279,0.0180205255746841,-0.00671951752156019,0.00427605677396059
5,1.02361117850853,-0.12916666555545,-0.0513888902767219,0.00580321997404099,0.000916297896765172,0.00671951752156019
5,1.02500007039179,-0.126388893944906,-0.0486111125881959,-0.00366519158706069,-0.00244346098043024,0.000305432622553781
5,1.02222228662528,-0.12777778582816,-0.055555559848502,-0.00610865233466029,0.00305432616733015,0.00824668072164059
5,1.01805561097552,-0.12916666555545,-0.0486111125881959,-0.00702495034784079,-0.00366519158706069,0.00122173049021512
5,1.02222228662528,-0.138888896582264,-0.0486111125881959,0.00183259579353034,-0.0021380283869803,-0.00519235478714108
5,1.02361117850853,-0.134722233088466,-0.052777782159976,0.0113010071218014,-0.00519235478714108,-0.00397062394768
5,1.02222228662528,-0.134722233088466,-0.052777782159976,0.00519235478714108,-0.000305432622553781,-0.0033597587607801
5,1.02361117850853,-0.12777778582816,-0.0583333375370279,-0.00885754637420177,0.0131336031481624,-0.00305432616733015
5,1.01944450285877,-0.12916666555545,-0.055555559848502,-0.00641408516094089,0.0103847095742822,-0.0021380283869803
5,1.02222228662528,-0.133333341205212,-0.0444444460554069,0.0149661982432008,-0.0021380283869803,0.00855211354792118
5,1.02361117850853,-0.13750000469901,-0.0541666679652478,0.0161879286170006,-0.00916297826915979,-0.00305432616733015
5,1.02222228662528,-0.138888896582264,-0.0486111125881959,0.0113010071218014,0.0113010071218014,-0.00855211354792118
5,1.01944450285877,-0.130555557438704,-0.055555559848502,0.015577063895762,0.00152716308366507,0.00488692196086049
5,1.01944450285877,-0.126388893944906,-0.0500000014324589,0.0125227374956012,-0.00916297826915979,-0.00549778714776039
5,1.01944450285877,-0.131944449321958,-0.0500000014324589,0.0134390350431204,-0.00702495034784079,0.000916297896765172
5,1.02222228662528,-0.12916666555545,-0.0541666679652478,0.00794124789535999,-0.00519235478714108,0.00671951752156019
5,1.02500007039179,-0.12777778582816,-0.055555559848502,0.0021380283869803,0.00610865233466029,-0.00610865233466029
5,1.02500007039179,-0.130555557438704,-0.0611111152255539,0.00702495034784079,0.00641408516094089,0.00366519158706069
5,1.02777785415829,-0.125000002061652,-0.0486111125881959,0.00763581553474069,0.0045814891345799,-0.00641408516094089
5,1.02500007039179,-0.12777778582816,-0.0583333375370279,0.0100792767480016,-0.00122173049021512,0.000305432622553781
5,1.01666671909226,-0.120833338567854,-0.0513888902767219,0.0033597587607801,-0.00641408516094089,0.00641408516094089
5,1.02222228662528,-0.125000002061652,-0.0513888902767219,0.00488692196086049,0.0021380283869803,-0.0021380283869803
5,1.02777785415829,-0.120833338567854,-0.0402777795226179,0.0192422550171614,-0.00763581553474069,-0.00305432616733015
5,1.02083339474202,-0.12777778582816,-0.0430555572111439,0.0259617734700441,-0.0412334054708481,-0.00244346098043024
5,1.02361117850853,-0.12777778582816,-0.0472222237439329,0.0510072484612465,-0.0452040284872055,0.000610865245107561
5,1.02777785415829,-0.126388893944906,-0.055555559848502,0.0397062413394451,-0.0360410511493683,-0.00183259579353034
5,1.02083339474202,-0.130555557438704,-0.055555559848502,0.0045814891345799,-0.0152716310694814,0.0122173046693206
5,1.01944450285877,-0.130555557438704,-0.0541666679652478,-0.00641408516094089,-0.0253509078174829,0.0134390350431204
5,1.02083339474202,-0.131944449321958,-0.0583333375370279,0.000305432622553781,-0.01191187184304,0.0021380283869803
5,1.02777785415829,-0.130555557438704,-0.0583333375370279,0.0033597587607801,0.0256563406437635,0.00305432616733015
5,1.02638896227504,-0.12777778582816,-0.0513888902767219,-0.000305432622553781,0.011606439948082,-0.00427605677396059
5,1.02638896227504,-0.12777778582816,-0.055555559848502,-0.00580321997404099,0.0045814891345799,0.00122173049021512
5,1.02500007039179,-0.12777778582816,-0.0583333375370279,0.00824668072164059,0.0131336031481624,0.000610865245107561
5,1.02500007039179,-0.126388893944906,-0.0569444456537738,0.0164933614432812,0.01191187184304,-0.00397062394768
5,1.02361117850853,-0.120833338567854,-0.0458333348996699,0.0287106670439243,-0.00794124789535999,0.00183259579353034
5,1.02500007039179,-0.12777778582816,-0.0402777795226179,0.0308486949652433,-0.00488692196086049,-0.00488692196086049
5,1.02500007039179,-0.12777778582816,-0.0486111125881959,0.0265726372599602,-0.0140499006956816,-0.00763581553474069
5,1.02500007039179,-0.12777778582816,-0.0458333348996699,0.0183259565383196,-0.00427605677396059,-0.00641408516094089
5,1.02083339474202,-0.130555557438704,-0.0472222237439329,0.00183259579353034,-0.00519235478714108,0.00244346098043024
5,1.01111115155925,-0.134722233088466,-0.0458333348996699,0.00305432616733015,-0.021685715764761,0.0045814891345799
5,1.02083339474202,-0.134722233088466,-0.0694444482911319,-0.0027488935738802,-0.02382374368608,0.0027488935738802
5,1.02361117850853,-0.134722233088466,-0.0736111117849297,-0.00641408516094089,0.0103847095742822,0.0033597587607801
5,1.02638896227504,-0.125000002061652,-0.0638888929140799,-0.0100792767480016,0.0189368221908808,0.00580321997404099
5,1.02222228662528,-0.12777778582816,-0.0652777787193518,-0.00610865233466029,0.0161879286170006,0.000610865245107561
5,1.02638896227504,-0.12777778582816,-0.0652777787193518,0.000305432622553781,0.00794124789535999,-0.000610865245107561
5,1.02638896227504,-0.12777778582816,-0.0652777787193518,-0.00244346098043024,0.0192422550171614,0.000610865245107561
5,1.01944450285877,-0.12916666555545,-0.0500000014324589,-0.000916297896765172,0.0247400421649218,0.0134390350431204
5,1.01944450285877,-0.12916666555545,-0.0500000014324589,0.00946841109544039,-0.00702495034784079,0.00763581553474069
5,1.02083339474202,-0.12777778582816,-0.0513888902767219,0.0143553335219622,-0.0131336031481624,-0.00519235478714108
5,1.02222228662528,-0.125000002061652,-0.052777782159976,0.00977384392172098,-0.0128281703218818,0.00702495034784079
5,1.02222228662528,-0.125000002061652,-0.052777782159976,0.00519235478714108,0.00122173049021512,0.0161879286170006
5,1.02500007039179,-0.12777778582816,-0.055555559848502,0.00519235478714108,0.0045814891345799,0.00763581553474069
5,1.02222228662528,-0.130555557438704,-0.0611111152255539,0.00794124789535999,-0.0167987942695618,0.00549778714776039
5,1.02222228662528,-0.126388893944906,-0.0486111125881959,0.00794124789535999,-0.013744467869401,0.0113010071218014
5,1.02083339474202,-0.130555557438704,-0.0513888902767219,0.00488692196086049,-0.0152716310694814,0.0045814891345799
5,1.01944450285877,-0.12916666555545,-0.0625000010308258,0.0033597587607801,-0.00916297826915979,0.0131336031481624
5,1.02222228662528,-0.133333341205212,-0.0625000010308258,0.00366519158706069,-0.0033597587607801,-0.0021380283869803
5,1.02500007039179,-0.130555557438704,-0.0583333375370279,0.00519235478714108,0.00397062394768,0.0122173046693206
5,1.02500007039179,-0.12916666555545,-0.0583333375370279,0.00397062394768,0.0045814891345799,0.0027488935738802
5,1.02638896227504,-0.133333341205212,-0.0569444456537738,0.0134390350431204,0.00855211354792118,0.00152716308366507
5,1.02500007039179,-0.12777778582816,-0.0583333375370279,0.0122173046693206,-0.0021380283869803,-0.00549778714776039
5,1.02500007039179,-0.134722233088466,-0.055555559848502,0.0171042270958424,0.000305432622553781,-0.00794124789535999
5,1.02222228662528,-0.134722233088466,-0.0597222233422998,0.01191187184304,0.00244346098043024,0.00183259579353034
5,1.02222228662528,-0.13750000469901,-0.0666666706026059,0.0222965814173222,0.0027488935738802,-0.0033597587607801
5,1.01944450285877,-0.13750000469901,-0.0583333375370279,0.0268780700862408,-0.00152716308366507,-0.0021380283869803
5,1.02222228662528,-0.141666668192807,-0.0625000010308258,0.0332921557128429,0.0103847095742822,-0.00549778714776039
5,1.02222228662528,-0.140277788465518,-0.0652777787193518,0.0345138870179653,0.01191187184304,-0.00671951752156019
5,1.02500007039179,-0.134722233088466,-0.0652777787193518,0.0369573459029198,0.0180205255746841,-0.00763581553474069
5,1.01944450285877,-0.130555557438704,-0.0583333375370279,0.0384845100343227,0.000916297896765172,-0.00183259579353034
5,1.01944450285877,-0.12916666555545,-0.0625000010308258,0.0390953756868839,0.000305432622553781,-0.00366519158706069
5,1.02222228662528,-0.133333341205212,-0.0597222233422998,0.0345138870179653,0.00610865233466029,-0.00244346098043024
5,1.02222228662528,-0.125000002061652,-0.0666666706026059,0.0259617734700441,0.00549778714776039,0.00305432616733015
5,1.02083339474202,-0.12777778582816,-0.0513888902767219,0.0235183127224445,0.00305432616733015,-0.00733038317412138
5,1.02083339474202,-0.134722233088466,-0.0541666679652478,0.0177150927484035,-0.00855211354792118,-0.00641408516094089
5,1.02361117850853,-0.133333341205212,-0.0569444456537738,0.01588249579072,0.0021380283869803,-0.00488692196086049
5,1.02916674604155,-0.13750000469901,-0.055555559848502,0.00305432616733015,0.0229074470698834,-0.00183259579353034
5,1.02222228662528,-0.133333341205212,-0.0583333375370279,0.00427605677396059,0.00702495034784079,-0.00183259579353034
5,1.02500007039179,-0.133333341205212,-0.0611111152255539,0.0207694191485643,-0.0045814891345799,-0.0045814891345799
5,1.02916674604155,-0.131944449321958,-0.0652777787193518,0.00946841109544039,0.00488692196086049,-0.00549778714776039
5,1.0305556379248,-0.130555557438704,-0.0625000010308258,-0.00885754637420177,0.0250454749912024,-0.00641408516094089
5,1.02500007039179,-0.12777778582816,-0.0347222241455659,0.00549778714776039,0.0152716310694814,-0.00641408516094089
5,1.01805561097552,-0.12916666555545,-0.0430555572111439,0.017409659922123,-0.00305432616733015,0.000610865245107561
