Activity,acc_x,acc_y,acc_z,gyro_x,gyro_y,gyro_z
0,0.334722238818301,0.104166672436698,0.947222222177272,0.0852157026529312,-0.0626136884093285,-0.0675006061792374
0,0.329166671285285,0.111111119697004,0.934722292475701,0.0595593601465225,-0.0345138870179653,-0.0870482996106148
0,0.336111130701556,0.104166672436698,0.940277860008718,0.0543670058250427,-0.00488692196086049,-0.0516181141138077
0,0.33750002258481,0.104166672436698,0.938888968125464,0.0290160998702049,-0.00519235478714108,-0.0259617734700441
0,0.33750002258481,0.104166672436698,0.938888968125464,-0.0342084541916847,0.0192422550171614,0.0045814891345799
0,0.344444457689151,0.101388894748172,0.95000000594378,-0.0659734457731247,0.0293215326964855,0.0210748501121998
0,0.344444457689151,0.0944444474878658,0.956944465360051,-0.0717766657471657,0.0781907513737679,0.0323758572340012
0,0.343055565805897,0.0861111144222878,0.962500032893068,-0.0879645943641663,0.021685715764761,0.0507018156349659
0,0.343055565805897,0.0861111144222878,0.962500032893068,-0.0754418596625328,0.0320704244077206,0.0595593601465225
0,0.329166671285285,0.0916666697993398,0.958333357243305,-0.0595593601465225,0.00244346098043024,0.0592539273202419
0,0.329166671285285,0.0902777839940679,0.94305554652751,-0.0290160998702049,0.0558941699564457,0.0561996027827263
0,0.327777779402031,0.0875000002275597,0.944444438410764,0.0167987942695618,0.0507018156349659,0.0439822971820831
0,0.325000019947452,0.0847222225390337,0.933333400592447,0.0357356183230877,0.0229074470698834,0.0305432621389627
0,0.320833344297689,0.0888888921108138,0.93750007624221,0.0662788823246956,0.019547687843442,0.011606439948082
0,0.318055560531181,0.0930555616825939,0.936111184358955,0.0623082555830479,0.027488935738802,0.0033597587607801
0,0.318055560531181,0.0916666697993398,0.940277860008718,0.0616973899304867,0.0247400421649218,-0.00427605677396059
0,0.322222236180943,0.0916666697993398,0.94305554652751,0.0439822971820831,0.00977384392172098,-0.00641408516094089
0,0.316666668647927,0.0972222251763917,0.930555616825939,0.00610865233466029,0.00397062394768,-0.0180205255746841
0,0.315277801076602,0.0944444474878658,0.933333400592447,0.0277943685650826,0.0354301854968071,-0.0235183127224445
0,0.322222236180943,0.0930555616825939,0.926388941176177,0.0455094613134861,0.0256563406437635,-0.0311541277915239
0,0.312500017310094,0.101388894748172,0.930555616825939,0.0164933614432812,0.0226020142436027,-0.0308486949652433
0,0.322222236180943,0.0986111170596459,0.926388941176177,0.00244346098043024,0.0250454749912024,-0.0122173046693206
0,0.325000019947452,0.0944444474878658,0.933333400592447,0.0122173046693206,0.0323758572340012,0.000916297896765172
0,0.325000019947452,0.0958333393711199,0.933333400592447,0.0241291765123606,0.0314595587551594,0.0152716310694814
0,0.322222236180943,0.0944444474878658,0.92083337364316,0.00610865233466029,0.0235183127224445,0.0180205255746841
0,0.318055560531181,0.0888888921108138,0.92083337364316,-0.0232128798961639,0.0546724386513233,0.0229074470698834
0,0.312500017310094,0.0902777839940679,0.912500022343635,-0.0244346093386412,0.0907134860754013,0.0106901414692402
0,0.312500017310094,0.0916666697993398,0.918055589876652,-0.03176499158144,0.0293215326964855,0.00794124789535999
0,0.322222236180943,0.0875000002275597,0.919444481759906,-0.0381790772080422,-0.00122173049021512,0.01191187184304
0,0.327777779402031,0.0916666697993398,0.922222265526414,0.00733038317412138,0.0696386396884918,0.0577267669141293
0,0.333333346935047,0.0819444448505077,0.936111184358955,0.081855945289135,0.295047909021378,0.08460483700037
0,0.354166676560001,0.0875000002275597,0.95000000594378,-0.0516181141138077,0.372933238744736,0.0397062413394451
0,0.368055571080613,0.123611110178398,0.98888888142718,-0.149356558918953,0.231517925858498,-0.0516181141138077
0,0.375000006184955,0.133333341205212,0.99583334084345,-0.124005645513535,-0.0183259565383196,-0.0794124826788902
0,0.422222257279808,0.166666673467524,1.0305556379248,0.156686931848526,-0.235183119773865,-0.0797179117798805
0,0.529166689171085,0.279166685047782,1.01944450285877,0.362243086099625,-0.680503904819489,0.215940862894058
0,0.625000034620187,0.301388906555989,0.976388951725609,0.551611304283142,-0.58062744140625,0.599258780479431
0,0.598611137462217,0.29166668768514,0.947222222177272,0.472504258155823,-0.475558578968048,1.01403629779816
0,0.555555586329055,0.284722228268869,0.941666654644256,0.301767438650131,-0.298102229833603,1.24219453334808
0,0.423611149163062,0.202777789496344,0.911111130460381,0.186619326472282,-0.323147714138031,1.38910758495331
0,0.186111123365188,0.03194444645704,0.898611103511094,0.305432617664337,-0.38117989897728,1.3790283203125
0,0.106944444047242,-0.0138888899621255,0.906944454810619,0.5555819272995,-0.247400417923927,1.1123856306076
0,-0.0222222230277034,-0.101388894748172,0.92083337364316,0.49235737323761,-0.240986332297325,0.669813752174377
0,-0.104166672436698,-0.159722226207217,0.941666654644256,0.318566232919693,-0.332616120576859,0.123700208961964
0,-0.112499999424294,-0.187500003092477,0.956944465360051,0.0479529201984406,-0.164628177881241,-0.489303052425385
0,-0.00833333382532574,-0.120833338567854,0.945833330294018,-0.323758572340012,-0.000305432622553781,-1.17652642726898
0,-0.00833333382532574,-0.120833338567854,0.945833330294018,-0.412334054708481,-0.272751331329346,-1.40437924861908
0,0.438888911254999,0.131944449321958,0.859722228027695,-0.217773467302322,-0.458454370498657,-1.26693451404572
0,0.438888911254999,0.131944449321958,0.859722228027695,-0.0323758572340012,-0.102625362575054,-0.582459986209869
0,0.837500055143345,0.315277801076602,0.84583340644287,0.105068825185299,0.375987559556961,0.140499010682106
0,0.837500055143345,0.315277801076602,0.84583340644287,0.0745255574584007,0.653014957904816,0.849713563919067
0,0.848611190209378,0.351388892793493,0.884722281926269,-0.0507018156349659,0.734260022640228,1.48073732852936
0,0.716666704419527,0.298611122789481,0.923611157409668,0.0604756586253643,0.516791999340057,1.72264003753662
0,0.488888921804431,0.156944454596674,0.969444492309338,0.283136039972305,0.207694187760353,1.52502512931824
0,0.240277785252453,0.029166668768514,0.997222232726705,0.450818538665771,-0.0736092627048492,0.912938117980957
0,0.0458333348996699,-0.0472222237439329,1.03472221632685,0.339335650205612,-0.314290165901184,-0.133779495954514
0,-0.0347222241455659,-0.0944444474878658,1.0305556379248,0.0675006061792374,-0.372627794742584,-0.868650376796722
0,-0.00972222266958873,-0.0972222251763917,1.01527782720901,-0.181121543049812,-0.319787949323654,-1.29075825214386
0,0.100000002864918,-0.0458333348996699,0.962500032893068,-0.46547931432724,-0.479223787784576,-1.36100780963898
0,0.284722228268869,0.026388891079988,0.872222254976982,-0.285884946584701,-0.39125919342041,-0.941648781299591
0,0.452777781463682,0.0736111117849297,0.801388914802596,0.0956004112958908,-0.0827722400426865,-0.434325188398361
0,0.52083333787156,0.12916666555545,0.770833341994863,0.29107728600502,0.142026171088219,-0.176234617829323
0,0.515277818962402,0.18333333959868,0.800000022919342,0.214413702487946,0.361937671899795,-0.140193566679955
0,0.500000008246606,0.202777789496344,0.86805557932722,0.0250454749912024,0.536034226417542,-0.0662788823246956
0,0.47500000297189,0.177777784221628,0.913888914226889,-0.152105450630188,0.58551436662674,0.0519235469400883
0,0.413888905980283,0.151388899219622,0.944444438410764,-0.246789559721947,0.565661191940308,0.0397062413394451
0,0.345833349572405,0.12777778582816,0.958333357243305,-0.251676470041275,0.442571878433227,-0.131946891546249
0,0.308333341660331,0.122222230451108,0.962500032893068,-0.198225766420364,0.276721954345703,-0.202196389436722
0,0.316666668647927,0.101388894748172,0.96666670854283,-0.11117747426033,0.164628177881241,-0.197920337319374
0,0.318055560531181,0.0902777839940679,0.95000000594378,-0.0867428630590439,0.104763388633728,-0.161268427968025
0,0.315277801076602,0.0902777839940679,0.933333400592447,-0.0565050356090069,0.0956004112958908,-0.230907067656517
0,0.320833344297689,0.104166672436698,0.923611157409668,-0.000305432622553781,0.0977384373545647,-0.33292156457901
0,0.329166671285285,0.1194444466846,0.922222265526414,0.0653625801205635,0.0299323964864016,-0.347887754440308
0,0.384722225055805,0.130555557438704,0.945833330294018,0.0626136884093285,0.0543670058250427,-0.16951510310173
0,0.386111116939059,0.140277788465518,0.941666654644256,0.0164933614432812,0.0714712366461754,-0.106595985591412
0,0.358333352209763,0.143055560076062,0.93750007624221,-0.015577063895762,0.128892570734024,-0.188451930880547
0,0.33750002258481,0.150000007336368,0.936111184358955,-0.00152716308366507,0.151800006628036,-0.263588339090347
0,0.340277782039389,0.15555556271342,0.951388897827035,-0.0378736443817616,0.101098194718361,-0.189673662185669
0,0.343055565805897,0.133333341205212,0.958333357243305,-0.0390953756868839,0.0259617734700441,-0.118813291192055
0,0.312500017310094,0.120833338567854,0.95000000594378,0.00671951752156019,-0.0366519130766392,-0.19058994948864
0,0.272222225631511,0.113888891307548,0.944444438410764,0.106290549039841,-0.0665843114256859,-0.332616120576859
0,0.270833333748257,0.134722233088466,0.940277860008718,0.120035022497177,-0.142331600189209,-0.449291378259659
0,0.29166668768514,0.13750000469901,0.945833330294018,0.0931569486856461,-0.153938040137291,-0.432798027992248
0,0.311111125426839,0.1194444466846,0.944444438410764,0.0720821022987366,-0.160352125763893,-0.34880405664444
0,0.315277801076602,0.1194444466846,0.94305554652751,0.0390953756868839,-0.00397062394768,-0.279470860958099
0,0.311111125426839,0.13750000469901,0.947222222177272,-0.0687223374843597,0.0302378293126821,-0.229990765452385
0,0.315277801076602,0.176388892338373,0.973611167959101,-0.234572261571884,0.0442877300083637,-0.141109868884087
0,0.408333338447267,0.188888894975731,0.947222222177272,-0.110261179506779,0.0433714315295219,0.262061178684235
0,0.387500008822313,0.197222234119292,0.958333357243305,-0.202807262539864,0.108734011650086,0.159435823559761
0,0.290277795801886,0.188888894975731,0.944444438410764,-0.143247902393341,0.191811680793762,-0.0192422550171614
0,0.279166685047782,0.152777778946911,0.947222222177272,-0.0277943685650826,-0.0247400421649218,-0.159435823559761
0,0.295833339022973,0.156944454596674,0.955555573476797,0.0378736443817616,-0.0754418596625328,-0.184786736965179
0,0.315277801076602,0.143055560076062,0.947222222177272,0.0021380283869803,-0.149051114916802,-0.159741267561913
0,0.305555557893823,0.102777780553444,0.911111130460381,-0.0131336031481624,-0.0555887371301651,-0.0867428630590439
0,0.279166685047782,0.0986111170596459,0.912500022343635,0.0280998013913631,-0.101098194718361,-0.136833816766739
0,0.315277801076602,0.133333341205212,0.925000049292922,-0.0128281703218818,0.00488692196086049,-0.154548913240433
0,0.325000019947452,0.156944454596674,0.941666654644256,-0.0531452745199203,0.0778853222727776,-0.207083314657211
0,0.323611128064198,0.161111118090472,0.962500032893068,-0.0913243517279625,-0.00366519158706069,-0.25411993265152
0,0.318055560531181,0.13750000469901,0.95000000594378,-0.070249505341053,-0.0519235469400883,-0.261144906282425
0,0.325000019947452,0.0944444474878658,0.918055589876652,-0.0323758572340012,0.013744467869401,-0.25411993265152
0,0.341666673922643,0.0652777787193518,0.908333346693873,-0.00122173049021512,0.00855211354792118,-0.283746898174286
0,0.33750002258481,0.0458333348996699,0.901388887277602,0.0378736443817616,-0.0329867228865623,-0.250760197639465
0,0.297222230906227,0.0638888929140799,0.908333346693873,0.00946841109544039,0.00488692196086049,-0.215330004692078
0,0.279166685047782,0.0833333367337618,0.888888957576031,-0.0479529201984406,0.011606439948082,-0.151494577527046
0,0.29166668768514,0.125000002061652,0.913888914226889,-0.271835029125214,-0.901331663131714,0.0968221426010132
0,0.295833339022973,0.0736111117849297,0.876388930626744,-0.532369077205658,-0.518930017948151,-0.152716308832169
0,0.313888909193348,0.104166672436698,0.880555606276507,-0.496633440256119,-0.568715572357178,-0.0339030213654041
0,0.276388901281273,0.159722226207217,1.00972225967599,-0.177761793136597,-0.250454753637314,-0.0464257597923279
0,0.368055571080613,0.134722233088466,0.981944519258625,-0.200669229030609,0.0152716310694814,-0.282525181770325
0,0.358333352209763,0.0666666706026059,0.916666697993398,-0.369573473930359,-0.0986547395586967,-0.175318330526352
0,0.275000009398019,0.055555559848502,0.84583340644287,-0.592844724655151,-0.456927210092545,0.0366519130766392
0,0.370833354847121,0.0416666683668809,0.926388941176177,-0.595899045467377,-0.355829000473023,-0.0873537287116051
0,0.393055576355329,0.0833333367337618,0.993055557076942,-0.310014098882675,0.0956004112958908,-0.272445887327194
0,0.533333364820847,-0.0236111118719664,0.947222222177272,-0.357967019081116,0.1795943826437,-0.853378772735596
0,0.388888900705567,-0.0236111118719664,0.98888888142718,-0.431881725788117,-0.11636982858181,-1.25532805919647
0,0.0652777787193518,0.106944444047242,1.05000002704265,0.189979091286659,-0.302378296852112,-0.616973876953125
0,0.15555556271342,0.202777789496344,1.04166667574312,0.741895854473114,-0.729373097419739,0.191811680793762
0,0.15555556271342,0.202777789496344,1.04166667574312,0.899193644523621,-0.983187615871429,0.0470366254448891
0,0.33750002258481,0.229166674498349,0.862500011794203,0.0400116741657257,-0.658207297325134,-0.0714712366461754
0,0.358333352209763,0.12916666555545,0.800000022919342,-0.337503045797348,-0.898888230323792,0.0122173046693206
0,0.363888895430851,0.0444444460554069,0.780555585177642,-0.539088606834412,-1.25593888759613,-0.129808858036995
0,0.418055581630046,0.0250000007162294,0.736111142161226,-1.06351637840271,-1.43492245674133,-0.478307485580444
0,0.536111148587356,-0.0180555564949145,0.66527780198684,-1.88329756259918,-2.10259819030762,-1.04702305793762
0,0.565277780887976,0.0125000003581147,0.659722234453824,-2.22263312339783,-3.44283652305603,-1.45935702323914
0,0.573611132187501,0.0138888899621255,0.722222271952543,-2.38726139068604,-2.36954617500305,-2.00577592849731
0,0.608333332021137,-0.101388894748172,0.82916670384382,-2.58182191848755,0.135306656360626,-2.27302956581116
0,0.849999984844916,-0.224999998848587,0.866666687443965,-2.2467622756958,-1.22509026527405,-2.5802948474884
0,0.769444450111609,-0.195833342236038,0.697222266677827,-2.00241637229919,-2.86740136146545,-2.02837800979614
0,0.637500012945616,-0.250000004123303,0.726388898978447,-1.40926611423492,-2.26203393936157,-1.2990049123764
0,0.716666704419527,-0.33750002258481,0.752777796136418,-1.40865528583527,-2.702467918396,-1.00701141357422
0,0.818055568777787,-0.266666682410424,0.694444482911319,-1.77731239795685,-3.10624980926514,-0.844215750694275
0,0.734722250277972,-0.175000000455119,0.523611121638068,-2.01493906974792,-3.75468325614929,-0.778547763824463
0,0.723611115211939,-0.194444450352783,0.513888927079148,-1.6090190410614,-2.80967473983765,-0.683863639831543
0,0.834722271376837,-0.200000005729836,0.444444478788016,-1.53357720375061,-3.72322368621826,-0.719904720783234
0,0.906944454810619,-0.179166676104882,0.394444468238583,-2.14932942390442,-4.66059637069702,-1.01250910758972
0,0.915277806110144,-0.0111111115138517,0.341666673922643,-2.63954877853394,-3.23178267478943,-0.666148543357849
0,0.837500055143345,0.0583333375370279,0.348611133338914,-2.5457808971405,-2.29593706130981,0.017409659922123
0,0.834722271376837,0.029166668768514,0.379166681834717,-2.53478527069092,-2.73178935050964,0.166460782289505
0,1.04583335139288,-0.00277777787846293,0.356944460326509,-2.7079656124115,-4.70274591445923,-0.297796815633774
0,1.16388896697405,-0.026388891079988,0.270833333748257,-3.06898689270019,-6.50846385955811,-0.288633823394775
0,1.12638888612619,-0.00277777787846293,0.20972223675665,-2.41169595718384,-3.26904535293579,-0.0342084541916847
0,0.831944487610329,-0.0583333375370279,0.112499999424294,-1.66216433048248,-2.11145567893982,0.46059238910675
0,0.933333400592447,-0.029166668768514,0.0513888902767219,-1.26296389102936,-2.81303453445435,-0.0497855171561241
0,1.18750003174166,-0.111111119697004,0.0513888902767219,-1.03297317028046,-2.41077971458435,-0.198225766420364
0,1.13888891307548,0.0388888906783549,-0.1194444466846,-0.536950528621674,-2.13711214065552,0.616973876953125
0,0.980555627375371,0.0375000018340919,-0.140277788465518,0.0241291765123606,-2.31976079940796,1.43889307975769
0,0.94305554652751,-0.0736111117849297,-0.123611110178398,0.556803643703461,-1.716836810112,1.5268577337265
0,1.00555558402623,-0.200000005729836,-0.166666673467524,0.687223374843597,-1.20309913158417,1.09528136253357
0,1.01805561097552,-0.180555567988136,-0.229166674498349,0.484721571207047,-1.53113377094269,0.988685369491577
0,1.07361118905796,-0.131944449321958,-0.318055560531181,0.326202034950256,-0.927293419837952,1.07665002346039
0,1.07222229717471,-0.162500009973726,-0.386111116939059,0.0769690200686455,-0.360715925693512,0.804204106330872
0,1.02222228662528,-0.17361112072783,-0.404166687109433,-0.22693644464016,-0.850324392318726,0.601091384887695
0,0.977777843608863,-0.156944454596674,-0.411111122213775,-0.357967019081116,-0.308486938476563,-0.323147714138031
0,0.908333346693873,-0.18333333959868,-0.426388884305712,-0.360105067491531,0.266337245702743,-0.505491018295288
0,0.986111194908388,-0.198611113846581,-0.472222219205382,-0.520457208156586,0.122173048555851,-0.131946891546249
0,0.986111194908388,-0.198611113846581,-0.472222219205382,-0.452651143074036,0.561079740524292,0.195476874709129
0,0.925000049292922,-0.275000009398019,-0.415277797863537,-0.37079519033432,1.1578950881958,0.267253547906876
0,0.925000049292922,-0.275000009398019,-0.415277797863537,-0.444709897041321,1.60352122783661,0.0561996027827263
0,1.06527783775844,-0.283333336385615,-0.473611111088636,-0.572380721569061,0.819170296192169,-0.473420560359955
0,0.993055557076942,-0.20972223675665,-0.408333338447267,-0.604451179504395,1.69973254203796,-0.508545339107513
0,0.911111130460381,-0.194444450352783,-0.315277801076602,-0.492968261241913,1.43034100532532,-0.173485726118088
0,0.863888903677457,-0.126388893944906,-0.259722222994153,-0.56657749414444,1.5256359577179,0.0665843114256859
0,0.866666687443965,-0.14583334384257,-0.212499996211229,-1.08611845970154,0.803593218326569,-0.942870497703552
0,1.09444447005906,-0.329166671285285,-0.344444457689151,-1.47737765312195,1.91536796092987,-1.28831481933594
0,1.12499999424293,-0.116666675074056,-0.312500017310094,-1.18874371051788,1.91933858394623,-1.18843829631805
0,1.0361111082101,-0.108333335930496,-0.258333331110899,-0.999680995941162,1.43706047534943,-1.28098440170288
0,0.96666670854283,-0.0722222259796579,-0.20972223675665,-0.903164267539978,1.19729590415955,-1.44500172138214
0,0.96666670854283,-0.0722222259796579,-0.20972223675665,-0.909272909164429,0.644768238067627,-1.74738001823425
0,0.96666670854283,-0.0722222259796579,-0.20972223675665,-0.471893399953842,-0.839023411273956,-1.88238120079041
0,1.09861114570882,0.0944444474878658,-0.190277786858986,-0.58215457201004,-1.15850591659546,-1.27762460708618
0,1.12083341584089,0.140277788465518,-0.230555566381603,-0.211970239877701,-0.175929188728332,-0.621249973773956
0,1.12083341584089,0.140277788465518,-0.230555566381603,0.0381790772080422,0.315817326307297,-0.421191573143005
0,1.11805563207438,0.108333335930496,-0.16527778158427,0.0986547395586967,-0.120035022497177,-0.307265222072601
0,1.12499999424293,0.12916666555545,-0.193055558469529,0.102319926023483,0.0568104684352875,-0.149051114916802
0,1.0333333244436,0.118055554801345,-0.24583335278547,-0.0149661982432008,0.191506251692772,-0.0326812900602817
0,0.940277860008718,0.104166672436698,-0.252777787889811,-0.0839939713478088,-0.00244346098043024,0.106595985591412
0,0.933333400592447,0.0583333375370279,-0.187500003092477,0.0284052342176437,-0.141109868884087,0.183565005660057
0,1.06805562152495,0.131944449321958,-0.161111118090472,0.117591559886932,-0.13744467496872,0.0604756586253643
0,1.05416670269241,0.0777777813567098,-0.211111128639904,0.163101017475128,-0.0442877300083637,0.0033597587607801
0,1.0333333244436,0.0388888906783549,-0.222222239394008,0.195476874709129,-0.0277943685650826,-0.0430659987032413
0,0.98888888142718,0.0916666697993398,-0.206944452990142,0.00366519158706069,-0.0418442711234093,-0.0439822971820831
0,0.98888888142718,0.0916666697993398,-0.206944452990142,-0.00244346098043024,0.0271835029125214,0.231212496757507
0,0.98888888142718,0.0916666697993398,-0.206944452990142,0.0711658000946045,0.132863193750381,0.362548530101776
0,0.970833384192592,0.101388894748172,-0.170833336961321,0.313373863697052,0.357661604881287,0.554665625095367
0,1.0513889189259,0.0625000010308258,-0.176388892338373,0.287717521190643,0.356439858675003,0.360715925693512
0,1.08750001064279,0.055555559848502,-0.20138889761309,0.118202425539494,0.170736834406853,0.0519235469400883
0,1.08750001064279,0.055555559848502,-0.20138889761309,0.0100792767480016,0.00855211354792118,0.0262672062963247
0,1.08750001064279,0.055555559848502,-0.20138889761309,-0.000610865245107561,0.0812450796365738,0.394008070230484
0,1.08750001064279,0.055555559848502,-0.20138889761309,-0.00946841109544039,-0.0928515195846558,0.610865235328674
0,0.93750007624221,0.055555559848502,-0.16527778158427,0.0916297882795334,-0.135917514562607,0.775798857212067
0,0.975000059842355,0.0777777813567098,-0.18333333959868,0.170431405305862,-0.0662788823246956,0.88361656665802
0,0.990277773310434,0.033333335301303,-0.20972223675665,0.22174409031868,0.191200822591782,0.888808906078339
0,0.956944465360051,0.00555555575692586,-0.216666671860991,0.228769034147263,0.564744889736176,0.985631048679352
0,1.11111117265811,0.0194444453391775,-0.387500008822313,0.47097709774971,0.89949905872345,0.822224617004395
0,1.2430556098241,-0.144444451959316,-0.180555567988136,0.245873257517815,0.10567969083786,-0.131641462445259
0,1.0305556379248,-0.0513888902767219,-0.269444466176932,-0.145691365003586,0.631023824214935,0.00580321997404099
0,1.0361111082101,-0.0375000018340919,-0.113888891307548,0.165239050984383,0.431270867586136,-0.121256753802299
0,1.0125000434425,-0.0375000018340919,-0.190277786858986,-0.0323758572340012,0.742812156677246,-0.0833831056952477
0,1.01805561097552,-0.0152777788063885,-0.166666673467524,-0.00916297826915979,1.09711396694183,-0.037568211555481
0,0.986111194908388,-0.0361111129898289,0.00138888893923146,0.0226020142436027,0.228158175945282,-0.00794124789535999
0,0.997222232726705,-0.03194444645704,-0.055555559848502,0.143858760595322,0.401949346065521,-0.0320704244077206
0,1.04583335139288,-0.0402777795226179,-0.18333333959868,0.0403171069920063,0.962112784385681,0.00763581553474069
0,1.02361117850853,-0.0430555572111439,-0.0194444453391775,-0.0589484944939613,0.133168622851372,-0.0253509078174829
0,1.01527782720901,-0.0361111129898289,0.0138888899621255,-0.0681114718317986,-0.312763005495071,-0.0571159012615681
0,1.05694448645892,-0.0430555572111439,-0.20972223675665,0.103847093880177,0.94042706489563,-0.0397062413394451
0,0.969444492309338,-0.0458333348996699,-0.0541666679652478,0.00946841109544039,1.04213607311249,-0.124616511166096
0,1.02777785415829,-0.0152777788063885,-0.0222222230277034,-0.0736092627048492,0.752586007118225,0.0345138870179653
0,1.01944450285877,-0.0222222230277034,0.0763888894734557,-0.154243469238281,-0.160046696662903,0.070249505341053
0,1.03888889197661,-0.0458333348996699,-0.00555555575692586,-0.134084925055504,-0.30146199464798,0.0784961804747581
0,1.02500007039179,-0.0375000018340919,-0.0583333375370279,-0.144775062799454,-0.0146607663482428,0.124616511166096
0,1.02777785415829,-0.0361111129898289,-0.0458333348996699,-0.250149309635162,0.0167987942695618,0.0736092627048492
0,1.04166667574312,-0.0430555572111439,-0.0541666679652478,-0.189368233084679,0.182037845253944,-0.00946841109544039
0,1.03472221632685,-0.052777782159976,-0.0458333348996699,-0.124311074614525,0.423024177551269,-0.0442877300083637
0,0.929166724942685,-0.0152777788063885,-0.00416666691266287,0.0430659987032413,0.64079761505127,0.229685336351395
0,0.997222232726705,-0.0250000007162294,0.00833333382532574,0.0781907513737679,0.417220950126648,0.450818538665771
0,1.01111115155925,-0.0430555572111439,0.0416666683668809,0.0427605658769607,-0.0497855171561241,0.501520395278931
0,1.0361111082101,-0.055555559848502,0.0416666683668809,0.0021380283869803,-0.51740288734436,0.633161842823029
0,1.05833337834217,-0.0861111144222878,0.00972222266958873,-0.0167987942695618,-0.658512711524963,0.478918343782425
0,1.05833337834217,-0.0861111144222878,0.00972222266958873,0.0345138870179653,-0.775798857212067,0.466395616531372
0,1.05833337834217,-0.0861111144222878,0.00972222266958873,0.105374254286289,-0.583681762218475,0.379041880369186
0,1.05833337834217,-0.0861111144222878,0.00972222266958873,0.133474051952362,-0.31245756149292,0.294742494821549
0,1.03888889197661,-0.133333341205212,-0.0750000036681839,0.420275300741196,0.277638256549835,0.211053937673569
0,1.03888889197661,-0.133333341205212,-0.0750000036681839,0.400116741657257,-0.0021380283869803,0.218995183706284
0,1.08750001064279,-0.0819444448505077,-0.0777777813567098,0.142637029290199,0.0192422550171614,0.0800233483314514
0,1.06805562152495,-0.143055560076062,-0.0625000010308258,0.200058370828629,0.0424551330506802,-0.146302223205566
0,1.06805562152495,-0.143055560076062,-0.0625000010308258,0.0873537287116051,-0.253509074449539,-0.317649930715561
0,1.06805562152495,-0.143055560076062,-0.0625000010308258,-0.160657554864883,-0.306043475866318,-0.587652385234833
0,1.06805562152495,-0.143055560076062,-0.0625000010308258,-0.436768651008606,-0.662177920341492,-1.34817957878113
0,0.952777789710289,-0.0930555616825939,-0.0458333348996699,-0.241291776299477,-0.22174409031868,-1.60871362686157
0,1.03194452980806,-0.0347222241455659,-0.168055565350778,-0.0638354197144508,0.307265222072601,-1.50822627544403
0,1.03194452980806,-0.00416666691266287,-0.0916666697993398,-0.0412334054708481,0.410806864500046,-0.936761856079102
0,1.00972225967599,0.0194444453391775,-0.052777782159976,-0.00519235478714108,0.447153359651566,-0.537561416625977
0,0.998611124609959,0.0361111129898289,-0.0902777839940679,0.158214092254639,0.605062007904053,-0.156076073646545
0,0.980555627375371,0.0430555572111439,-0.0361111129898289,0.164933621883392,0.467311918735504,-0.0684169083833694
0,1.0333333244436,0.0416666683668809,-0.0194444453391775,0.0653625801205635,0.202196389436722,0.000305432622553781
0,0.933333400592447,0.0361111129898289,0.0458333348996699,-0.0736092627048492,-0.211053937673569,0.298407673835754
0,1.00972225967599,0.0222222230277034,-0.0513888902767219,0.178983509540558,0.277332812547684,0.426383942365646
0,1.04861113515939,0.0222222230277034,-0.0430555572111439,0.106901414692402,0.347276896238327,0.135917514562607
0,1.10416671324184,0.0125000003581147,-0.0611111152255539,0.0943786799907684,0.473726004362106,0.0277943685650826
0,1.11805563207438,0.0236111118719664,-0.0569444456537738,0.00794124789535999,0.563828647136688,-0.0894917547702789
0,1.02500007039179,0.0166666676506515,-0.0569444456537738,-0.0943786799907684,0.309708684682846,-0.0345138870179653
0,1.00277780025972,0.0125000003581147,-0.00833333382532574,-0.149356558918953,0.170125976204872,-0.00885754637420177
0,1.0513889189259,0.00555555575692586,0.00972222266958873,-0.141415297985077,0.00763581553474069,-0.0494800843298435
0,1.0513889189259,0.00555555575692586,0.00972222266958873,-0.13225232064724,0.128892570734024,-0.112704634666443
0,1.05555559457566,0.03194444645704,-0.0138888899621255,-0.124311074614525,0.165849909186363,-0.149661988019943
0,1.05555559457566,0.03194444645704,-0.0138888899621255,-0.138666406273842,-0.013744467869401,-0.186008468270302
0,1.05555559457566,0.03194444645704,-0.0138888899621255,-0.0311541277915239,-0.196087747812271,-0.220216915011406
0,1.05555559457566,0.03194444645704,-0.0138888899621255,0.0687223374843597,0.0839939713478088,-0.0968221426010132
0,1.06388894587519,0.0361111129898289,0.0541666679652478,0.096211276948452,0.168598800897598,-0.0913243517279625
0,1.06388894587519,0.0361111129898289,0.0541666679652478,-0.187535628676414,0.237626582384109,-0.197920337319374
0,1.04583335139288,0.0458333348996699,-0.0152777788063885,-0.28557950258255,0.178983509540558,-0.233655959367752
0,1.01527782720901,0.00555555575692586,0.0388888906783549,0.11087204515934,0.0726929605007172,-0.0772744566202164
0,1.01527782720901,0.00555555575692586,0.0388888906783549,0.107206851243973,0.180510684847832,-0.117896988987923
0,1.06111116210868,0.0444444460554069,-0.00833333382532574,-0.0675006061792374,0.375987559556961,-0.231212496757507
0,1.00277780025972,0.0569444456537738,0.052777782159976,-0.0937678143382072,0.10598511993885,-0.255952537059784
0,1.01527782720901,0.0777777813567098,0.0611111152255539,0.0232128798961639,-0.234877690672875,-0.196698606014252
0,1.05416670269241,0.0791666671619817,0.030555557612777,0.0620028227567673,-0.120340451598167,-0.15332718193531
0,1.05416670269241,0.0791666671619817,0.030555557612777,0.00427605677396059,0.158824965357781,-0.0870482996106148
0,1.05277781080915,0.0777777813567098,-0.00277777787846293,-0.0262672062963247,0.318871647119522,-0.0186313893646002
0,1.04722224327614,0.0805555590452358,0.00833333382532574,-0.128892570734024,0.15851953625679,-0.0421497002243996
0,1.02500007039179,0.0611111152255539,0.0402777795226179,-0.191811680793762,0.0940732508897781,-0.0186313893646002
0,1.04166667574312,0.052777782159976,0.0402777795226179,-0.109039448201656,0.109955742955208,0.0384845100343227
0,1.04166667574312,0.052777782159976,0.0402777795226179,-0.0568104684352875,0.120645888149738,-0.0448985956609249
0,0.998611124609959,0.0416666683668809,0.0388888906783549,-0.212886542081833,-0.0421497002243996,-0.11636982858181
0,0.998611124609959,0.0416666683668809,0.0388888906783549,-0.353080123662949,-0.242818936705589,-0.164628177881241
0,1.07638897282447,0.0152777788063885,0.0375000018340919,-0.210748508572578,-0.205556154251099,-0.124311074614525
0,1.13611112930897,0.0583333375370279,0.0541666679652478,0.10567969083786,0.0378736443817616,-0.0717766657471657
0,1.02361117850853,0.029166668768514,0.0583333375370279,0.0473420582711697,-0.0803287774324417,-0.160046696662903
0,1.0125000434425,0.0458333348996699,0.0458333348996699,-0.0287106670439243,-0.0623082555830479,-0.149967417120934
0,1.0361111082101,0.0944444474878658,0.0236111118719664,0.0833831056952477,0.240070044994354,-0.0604756586253643
0,1.0333333244436,0.101388894748172,0.0361111129898289,0.154548913240433,0.274278491735458,-0.0809396430850029
0,1.02500007039179,0.0861111144222878,0.0458333348996699,0.187841057777405,0.321315109729767,-0.0668897479772568
0,1.00277780025972,0.0652777787193518,0.0347222241455659,0.178372651338577,0.141109868884087,-0.0143553335219622
0,1.00277780025972,0.0652777787193518,0.0347222241455659,0.100792765617371,-0.117896988987923,-0.00183259579353034
0,1.00277780025972,0.0652777787193518,0.0347222241455659,-0.0149661982432008,-0.22693644464016,-0.102625362575054
0,1.05000002704265,0.101388894748172,0.0416666683668809,-0.0928515195846558,-0.193033412098885,-0.134695783257484
0,1.05000002704265,0.101388894748172,0.0416666683668809,-0.00946841109544039,-0.0531452745199203,-0.070249505341053
0,1.01111115155925,0.0680555564078778,0.0375000018340919,0.178678080439568,0.0925460830330849,-0.0167987942695618
0,1.08194444310977,0.0694444482911319,0.0458333348996699,0.284663200378418,0.201890960335732,0.0739146918058395
0,1.08194444310977,0.0694444482911319,0.0458333348996699,0.210748508572578,0.0641408488154411,0.136528387665749
0,1.08194444310977,0.0694444482911319,0.0458333348996699,0.0308486949652433,-0.0204639863222837,0.0855211317539215
0,1.04027778385987,0.106944444047242,0.0250000007162294,-0.0726929605007172,0.0668897479772568,0.017409659922123
0,0.998611124609959,0.0763888894734557,0.0736111117849297,-0.0482583530247212,0.183565005660057,0.0290160998702049
0,1.00000001649321,0.0597222233422998,0.055555559848502,0.0885754600167274,0.0974330082535744,0.0491746515035629
0,1.00000001649321,0.0597222233422998,0.055555559848502,0.0754418596625328,0.0580321997404099,0.0650571510195732
0,1.01666671909226,0.0805555590452358,0.0486111125881959,-0.130419731140137,0.119424156844616,0.0543670058250427
0,1.06527783775844,0.0777777813567098,0.00277777787846293,-0.358577907085419,0.512210488319397,0.0705549344420433
0,1.09583336194232,0.0861111144222878,0.0166666676506515,-0.355829000473023,0.727540493011475,0.0262672062963247
0,1.05972227022542,0.0583333375370279,0.108333335930496,-0.0885754600167274,0.71471232175827,0.152105450630188
0,1.09444447005906,0.0680555564078778,0.12916666555545,0.0733038261532784,0.355218142271042,0.138971850275993
0,0.955555573476797,0.0416666683668809,0.151388899219622,0.222965821623802,-0.209526777267456,0.181732416152954
0,0.923611157409668,0.030555557612777,0.116666675074056,0.153938040137291,-0.618806481361389,0.177761793136597
0,0.980555627375371,0.0583333375370279,0.0958333393711199,0.0561996027827263,-0.722348153591156,0.0522289797663689
0,1.01805561097552,0.0722222259796579,0.0791666671619817,0.0305432621389627,-0.648433446884155,-0.00763581553474069
0,1.05833337834217,0.0611111152255539,0.0972222251763917,0.180510684847832,-0.353690981864929,0.0739146918058395
0,1.06250005399193,0.0750000036681839,0.0347222241455659,0.249233022332191,-0.0812450796365738,0.0956004112958908
0,1.03194452980806,0.0736111117849297,0.0125000003581147,0.207694187760353,0.175929188728332,0.0549778714776039
0,1.0125000434425,0.0694444482911319,0.00972222266958873,0.00977384392172098,0.330172657966614,0.0696386396884918
0,1.00416669214298,0.0597222233422998,0.102777780553444,0.153938040137291,-0.0277943685650826,0.0687223374843597
0,1.00833336779274,0.0513888902767219,0.0625000010308258,-0.0131336031481624,0.01588249579072,-0.058643065392971
0,1.02777785415829,0.0236111118719664,0.0486111125881959,0.00916297826915979,0.0183259565383196,-0.0381790772080422
0,0.98888888142718,0.0777777813567098,0.0597222233422998,0.0366519130766392,-0.0226020142436027,-0.0201585534960032
0,1.01944450285877,0.0763888894734557,0.0569444456537738,0.0363464802503586,0.0479529201984406,0.0027488935738802
0,1.03194452980806,0.0652777787193518,0.0597222233422998,0.0510072484612465,0.130419731140137,0.0534507073462009
0,1.0513889189259,0.0708333340964038,0.0569444456537738,-0.0482583530247212,0.0406225398182869,0.129503428936005
0,1.02777785415829,0.0833333367337618,0.0625000010308258,-0.0852157026529312,-0.0699440687894821,0.0308486949652433
0,0.987499989543926,0.0736111117849297,0.0833333367337618,-0.138055548071861,-0.178372651338577,-0.0131336031481624
0,1.00000001649321,0.0458333348996699,0.0666666706026059,-0.0522289797663689,-0.0919352173805237,-0.0345138870179653
0,1.02916674604155,0.0583333375370279,0.0625000010308258,-0.00244346098043024,0.00122173049021512,-0.0277943685650826
0,1.03750000009336,0.0569444456537738,0.0513888902767219,-0.0128281703218818,-0.0128281703218818,-0.01191187184304
0,1.00416669214298,0.0402777795226179,0.052777782159976,0.0406225398182869,-0.0277943685650826,0.0100792767480016
0,1.0125000434425,0.0486111125881959,0.055555559848502,0.0219911485910416,-0.0470366254448891,0.03176499158144
0,1.02083339474202,0.0680555564078778,0.0694444482911319,0.0415388382971287,-0.0522289797663689,0.0305432621389627
0,1.01805561097552,0.0750000036681839,0.0638888929140799,0.0189368221908808,-0.0888808965682983,0.0485637858510017
0,1.0125000434425,0.0750000036681839,0.0638888929140799,-0.0198531206697226,-0.161879286170006,0.0268780700862408
0,1.01527782720901,0.0638888929140799,0.0513888902767219,-0.0479529201984406,-0.165239050984383,0.0424551330506802
0,1.02222228662528,0.0583333375370279,0.055555559848502,-0.0232128798961639,-0.0965167060494423,0.00916297826915979
0,1.02500007039179,0.0722222259796579,0.0402777795226179,-0.0577267669141293,-0.00519235478714108,-0.00122173049021512
0,1.04861113515939,0.0666666706026059,0.0236111118719664,-0.0736092627048492,0.214413702487946,0.0183259565383196
0,1.01527782720901,0.0666666706026059,0.052777782159976,0.000916297896765172,0.220522359013557,0.0412334054708481
0,1.00000001649321,0.0513888902767219,0.0875000002275597,0.011606439948082,0.0235183127224445,0.05283984541893
0,0.98888888142718,0.0444444460554069,0.0722222259796579,-0.0320704244077206,-0.164933621883392,0.0027488935738802
0,1.00694447590948,0.0388888906783549,0.0611111152255539,-0.0580321997404099,-0.258395999670029,-0.0323758572340012
0,1.05000002704265,0.0430555572111439,0.0625000010308258,0.0226020142436027,-0.106595985591412,-0.0280998013913631
0,1.06527783775844,0.0388888906783549,0.033333335301303,0.117286130785942,0.189979091286659,0.011606439948082
0,1.0333333244436,0.0458333348996699,0.0722222259796579,0.135612085461616,0.352469235658646,0.0354301854968071
0,0.998611124609959,0.0638888929140799,0.0750000036681839,0.124616511166096,0.0681114718317986,0.0403171069920063
0,1.02500007039179,0.0416666683668809,0.0416666683668809,-0.0421497002243996,0.0693332031369209,-0.019547687843442
0,1.02916674604155,0.0375000018340919,0.0625000010308258,0.0183259565383196,0.132557764649391,-0.0342084541916847
0,1.00972225967599,0.0458333348996699,0.0708333340964038,0.0980438739061356,0.0641408488154411,-0.00366519158706069
0,1.00972225967599,0.0458333348996699,0.0708333340964038,0.0791070461273193,0.0626136884093285,-0.0027488935738802
0,1.00972225967599,0.0458333348996699,0.0708333340964038,0.186924770474434,-0.0797179117798805,0.0339030213654041
0,1.00972225967599,0.0458333348996699,0.0708333340964038,0.111788339912891,-0.0684169083833694,-0.0021380283869803
0,1.00972225967599,0.0458333348996699,0.0708333340964038,0.0736092627048492,-0.0815505087375641,0.0109955742955208
0,1.05833337834217,0.0583333375370279,0.0194444453391775,-0.0244346093386412,0.0109955742955208,0.01588249579072
0,1.05833337834217,0.055555559848502,0.0472222237439329,0.0482583530247212,0.197920337319374,-0.00122173049021512
0,1.05277781080915,0.052777782159976,0.0597222233422998,0.143553331494331,0.240070044994354,-0.00824668072164059
0,1.05277781080915,0.052777782159976,0.0597222233422998,0.194560587406159,0.146607652306557,0.090408056974411
0,0.973611167959101,0.0708333340964038,0.0930555616825939,0.0448985956609249,-0.0665843114256859,0.0540615729987621
0,0.973611167959101,0.0708333340964038,0.0930555616825939,-0.0653625801205635,-0.0201585534960032,-0.00946841109544039
0,0.973611167959101,0.0708333340964038,0.0930555616825939,-0.0415388382971287,-0.00763581553474069,-0.0290160998702049
0,0.973611167959101,0.0708333340964038,0.0930555616825939,0.0161879286170006,-0.0406225398182869,-0.0222965814173222
0,0.998611124609959,0.0458333348996699,0.0777777813567098,0.0268780700862408,-0.0360410511493683,-0.0397062413394451
0,1.00277780025972,0.0444444460554069,0.0611111152255539,-0.0384845100343227,-0.0482583530247212,0.027488935738802
0,1.03888889197661,0.0569444456537738,0.0625000010308258,-0.00427605677396059,0.204639852046967,-0.0180205255746841
0,1.04166667574312,0.0583333375370279,0.136111112815755,-0.0821613743901253,-0.0748309940099716,-0.0311541277915239
0,1.00555558402623,0.0625000010308258,0.0652777787193518,-0.0592539273202419,-0.087659165263176,-0.0287106670439243
0,1.01944450285877,0.0444444460554069,0.0652777787193518,0.0381790772080422,0.0164933614432812,-0.0488692186772823
0,1.02916674604155,0.0625000010308258,0.0777777813567098,0.0668897479772568,0.0134390350431204,-0.0302378293126821
0,1.02361117850853,0.055555559848502,0.0833333367337618,0.0907134860754013,0.0623082555830479,0.0198531206697226
0,1.02222228662528,0.0680555564078778,0.0777777813567098,0.0949895456433296,0.0800233483314514,0.0134390350431204
0,1.00833336779274,0.0750000036681839,0.0652777787193518,0.0681114718317986,0.0357356183230877,0.0134390350431204
0,1.02222228662528,0.0652777787193518,0.0513888902767219,-0.00794124789535999,0.0671951770782471,-0.0161879286170006
0,1.06666672964169,0.0583333375370279,0.0597222233422998,-0.124921940267086,0.0821613743901253,-0.0262672062963247
0,1.00694447590948,0.0611111152255539,0.0791666671619817,-0.125532805919647,0.11087204515934,-0.00427605677396059
0,0.986111194908388,0.0541666679652478,0.105555564319952,-0.0681114718317986,-0.0192422550171614,-0.0400116741657257
0,0.984722303025134,0.03194444645704,0.0152777788063885,0.261755764484406,0.0720821022987366,0.0164933614432812
0,1.06666672964169,0.0194444453391775,0.0513888902767219,0.0653625801205635,0.268780708312988,0.00641408516094089
0,1.06666672964169,0.0194444453391775,0.0513888902767219,-0.10048733651638,0.0247400421649218,0.0662788823246956
0,0.98888888142718,0.0777777813567098,0.141666668192807,0.142942473292351,0.01191187184304,0.01191187184304
0,1.00972225967599,0.0416666683668809,0.0680555564078778,-0.0339030213654041,0.0226020142436027,-0.021685715764761
0,1.00972225967599,0.0416666683668809,0.0680555564078778,-0.00183259579353034,0.0241291765123606,-0.0357356183230877
0,1.02916674604155,0.0652777787193518,0.0944444474878658,0.0607810914516449,-0.00916297826915979,0.0497855171561241
0,1.02361117850853,0.0722222259796579,0.0916666697993398,0.100792765617371,0.0256563406437635,0.029626963660121
0,1.01111115155925,0.0513888902767219,0.0916666697993398,0.0616973899304867,-0.0757472887635231,0.0262672062963247
0,0.998611124609959,0.052777782159976,0.0708333340964038,0.182037845253944,0.00824668072164059,-0.00763581553474069
0,1.12222230772414,0.029166668768514,0.0944444474878658,-0.0143553335219622,-0.193033412098885,-0.0516181141138077
0,1.13750002119222,0.00555555575692586,0.0902777839940679,0.0867428630590439,-0.00580321997404099,0.0458148941397667
0,1.04305556762637,0.0500000014324589,0.0750000036681839,-0.175318330526352,-0.265726387500763,0.0824668109416962
0,1.05555559457566,0.0583333375370279,0.0569444456537738,0.01588249579072,-0.0427605658769607,0.0372627787292004
0,1.02222228662528,0.0430555572111439,0.0847222225390337,0.0400116741657257,-0.0403171069920063,0.0387899428606033
0,1.02916674604155,-0.0208333341834404,-0.0541666679652478,-0.108428582549095,-0.00855211354792118,0.0436768643558025
0,1.00694447590948,0.0513888902767219,0.0250000007162294,0.00977384392172098,-0.0256563406437635,0.109039448201656
0,0.993055557076942,0.0444444460554069,0.0777777813567098,0.0668897479772568,-0.119118720293045,0.148440256714821
0,1.01527782720901,0.0430555572111439,0.0916666697993398,0.112399205565453,-0.108123145997524,0.0665843114256859
0,1.01944450285877,0.0194444453391775,0.0722222259796579,0.0977384373545647,0.00122173049021512,0.0143553335219622
0,1.0694445134082,0.0486111125881959,0.0458333348996699,0.0045814891345799,0.00671951752156019,-0.00122173049021512
0,0.993055557076942,0.0819444448505077,0.0847222225390337,0.0229074470698834,-0.171042263507843,0.0381790772080422
0,1.01388893532575,0.0625000010308258,0.108333335930496,-0.11087204515934,-0.172569438815117,0.0033597587607801
0,1.01944450285877,0.0500000014324589,0.052777782159976,-0.0635299831628799,-0.198225766420364,0.0381790772080422
0,0.986111194908388,0.0680555564078778,0.0902777839940679,-0.0439822971820831,-0.342695415019989,0.0335975885391235
0,1.01388893532575,0.0722222259796579,0.0722222259796579,-0.0656680166721344,-0.295353353023529,0.021685715764761
0,1.07361118905796,0.0458333348996699,0.0958333393711199,0.700357019901276,0.218384325504303,0.205556154251099
0,1.01666671909226,0.0583333375370279,-0.0597222233422998,-0.0177150927484035,0.0390953756868839,-0.029626963660121
0,1.03888889197661,0.0347222241455659,0.0125000003581147,-0.0177150927484035,0.0284052342176437,-0.0626136884093285
0,1.00833336779274,0.0222222230277034,0.0458333348996699,-0.121256753802299,-0.133168622851372,-0.0421497002243996
0,1.02916674604155,0.0430555572111439,0.0500000014324589,-0.105068825185299,-0.0561996027827263,-0.0287106670439243
0,1.02222228662528,0.0388888906783549,0.0569444456537738,-0.0616973899304867,-0.076052725315094,0.0226020142436027
0,1.03888889197661,0.033333335301303,0.055555559848502,0.0167987942695618,0.0357356183230877,-0.0198531206697226
0,1.02916674604155,0.0250000007162294,0.0361111129898289,0.0635299831628799,0.133474051952362,-0.0659734457731247
0,1.03888889197661,0.0208333341834404,0.0472222237439329,0.187841057777405,0.109344877302647,-0.0568104684352875
0,1.02777785415829,0.0250000007162294,0.0402777795226179,0.224187538027763,0.00641408516094089,0.0033597587607801
0,1.01666671909226,0.0444444460554069,0.0375000018340919,0.0720821022987366,-0.0167987942695618,0.0464257597923279
0,1.01944450285877,0.0541666679652478,0.0472222237439329,-0.131336033344269,0.0616973899304867,-0.0513126812875271
0,1.02083339474202,0.0486111125881959,0.0680555564078778,-0.0522289797663689,0.0687223374843597,-0.0797179117798805
0,1.0125000434425,0.0541666679652478,0.0708333340964038,0.0995710343122482,0.0299323964864016,-0.0369573459029198
0,1.0125000434425,0.0597222233422998,0.055555559848502,0.169820532202721,-0.076052725315094,0.00702495034784079
0,1.02916674604155,0.0583333375370279,0.033333335301303,0.0766635909676552,-0.0421497002243996,-0.00427605677396059
0,1.01944450285877,0.0597222233422998,0.0472222237439329,-0.0128281703218818,-0.0427605658769607,-0.0412334054708481
0,1.01944450285877,0.0541666679652478,0.0541666679652478,0.00671951752156019,-0.0329867228865623,-0.021685715764761
0,1.02083339474202,0.0388888906783549,0.0611111152255539,0.0803287774324417,-0.0580321997404099,0.00855211354792118
0,1.02500007039179,0.0500000014324589,0.0458333348996699,0.0109955742955208,-0.0803287774324417,0.0021380283869803
0,1.04166667574312,0.0569444456537738,0.029166668768514,-0.0277943685650826,-0.0277943685650826,0.0171042270958424
0,1.0361111082101,0.0513888902767219,0.03194444645704,-0.00671951752156019,0.0198531206697226,0.0222965814173222
0,1.0361111082101,0.0513888902767219,0.03194444645704,-0.0470366254448891,-0.0354301854968071,0.0213802829384804
0,1.02083339474202,0.0458333348996699,0.0416666683668809,-0.106290549039841,-0.076052725315094,0.0131336031481624
0,1.0125000434425,0.0486111125881959,0.029166668768514,-0.134390354156494,-0.138055548071861,0.0369573459029198
0,1.01527782720901,0.0513888902767219,0.0375000018340919,-0.131946891546249,-0.0339030213654041,0.0342084541916847
0,1.0333333244436,0.0541666679652478,0.0513888902767219,-0.0629191175103188,0.017409659922123,0.0177150927484035
0,1.02361117850853,0.0388888906783549,0.0416666683668809,-0.0161879286170006,-0.000916297896765172,-0.00488692196086049
0,1.02222228662528,0.0347222241455659,0.0458333348996699,0.0543670058250427,-0.0229074470698834,-0.0256563406437635
0,1.0125000434425,0.0222222230277034,0.0486111125881959,0.0919352173805237,0.0739146918058395,0.04764748737216
0,1.05277781080915,0.0472222237439329,-0.17361112072783,0.149051114916802,0.23273965716362,0.0766635909676552
0,1.03750000009336,0.0638888929140799,0.0208333341834404,0.101403631269932,0.247094988822937,0.0507018156349659
0,1.01805561097552,0.03194444645704,0.0513888902767219,0.126143679022789,0.175623759627342,0.0623082555830479
0,1.00416669214298,0.026388891079988,0.0611111152255539,0.137139245867729,0.125838235020638,0.05283984541893
0,1.00416669214298,0.0486111125881959,0.0402777795226179,0.107512280344963,0.090408056974411,0.027488935738802
0,1.02222228662528,0.0583333375370279,0.0500000014324589,-0.0607810914516449,0.154243469238281,0.0598647929728031
0,1.04583335139288,0.0583333375370279,0.0541666679652478,-0.0430659987032413,0.161879286170006,0.0329867228865623
0,1.01666671909226,0.0444444460554069,0.0597222233422998,-0.0430659987032413,0.122783914208412,0.000305432622553781
0,1.00972225967599,0.0416666683668809,0.0583333375370279,-0.0736092627048492,0.0717766657471657,0.0027488935738802
0,0.986111194908388,0.055555559848502,0.0625000010308258,-0.0913243517279625,-0.0745255574584007,0.00855211354792118
0,1.01527782720901,0.0416666683668809,0.0513888902767219,-0.140804439783096,-0.0314595587551594,0.000916297896765172
5,1.03194452980806,0.03194444645704,0.0486111125881959,-0.12705996632576,-0.00733038317412138,-0.00366519158706069
5,1.03472221632685,0.026388891079988,0.0819444448505077,0.0171042270958424,0.0357356183230877,-0.019547687843442
5,1.01666671909226,0.0361111129898289,0.0875000002275597,0.101403631269932,0.0210748501121998,-0.0045814891345799
5,1.02500007039179,0.0347222241455659,0.0666666706026059,0.145385921001434,0.0458148941397667,0.00397062394768
5,1.02222228662528,0.03194444645704,0.0666666706026059,0.118813291192055,0.0354301854968071,0.015577063895762
5,1.06666672964169,0.0194444453391775,0.00416666691266287,-0.11606439948082,0.0867428630590439,-0.0470366254448891
5,1.01666671909226,0.0388888906783549,0.0819444448505077,0.0525344125926495,0.0595593601465225,-0.0192422550171614
5,1.01527782720901,0.0388888906783549,0.0472222237439329,0.00549778714776039,0.0201585534960032,-0.0180205255746841
5,1.00972225967599,0.0416666683668809,0.0722222259796579,-0.0134390350431204,0.000610865245107561,-0.0103847095742822
5,1.0125000434425,0.0458333348996699,0.0680555564078778,-0.0152716310694814,-0.00580321997404099,-0.0226020142436027
5,1.02916674604155,0.0458333348996699,0.0513888902767219,-0.0763581544160843,-0.0830776765942574,-0.013744467869401
5,1.02916674604155,0.0444444460554069,0.0736111117849297,-0.0595593601465225,-0.0302378293126821,-0.00794124789535999
5,1.04583335139288,0.0375000018340919,0.0500000014324589,0.122478485107422,0.197614908218384,0.0143553335219622
5,1.00000001649321,0.029166668768514,0.0902777839940679,-0.00549778714776039,-0.0198531206697226,-0.00916297826915979
5,1.02222228662528,0.0347222241455659,0.0652777787193518,0.0125227374956012,0.0326812900602817,0.0027488935738802
5,1.01805561097552,0.029166668768514,0.0597222233422998,0.0106901414692402,-0.0033597587607801,0.0021380283869803
5,1.01805561097552,0.029166668768514,0.0597222233422998,0.0339030213654041,0.015577063895762,0.0106901414692402
5,1.02638896227504,0.0250000007162294,0.0513888902767219,0.0491746515035629,-0.00366519158706069,0.0299323964864016
5,1.02500007039179,0.0166666676506515,0.0388888906783549,0.0662788823246956,0.00519235478714108,0.0277943685650826
5,1.02500007039179,0.0166666676506515,0.0388888906783549,0.112399205565453,0.0106901414692402,0.0397062413394451
5,1.02222228662528,0.0180555564949145,0.052777782159976,0.155465200543404,0.00366519158706069,0.0641408488154411
5,1.01805561097552,0.0250000007162294,0.0625000010308258,0.186008468270302,-0.00824668072164059,0.0842994004487991
5,1.02222228662528,0.0361111129898289,0.0569444456537738,0.220522359013557,-0.0213802829384804,0.10598511993885
5,1.01944450285877,0.0472222237439329,0.055555559848502,0.22204951941967,-0.0287106670439243,0.112704634666443
5,1.01944450285877,0.0416666683668809,0.0652777787193518,0.222965821623802,-0.0363464802503586,0.112704634666443
5,1.02222228662528,0.0361111129898289,0.0680555564078778,0.220522359013557,-0.0326812900602817,0.109955742955208
5,1.02638896227504,0.0361111129898289,0.0694444482911319,0.208915919065475,-0.0198531206697226,0.109955742955208
5,1.02500007039179,0.03194444645704,0.0875000002275597,0.208610475063324,0.00122173049021512,0.0897971913218498
5,1.02916674604155,0.0388888906783549,0.0847222225390337,0.203723564743996,0.0244346093386412,0.0638354197144508
5,1.02916674604155,0.0375000018340919,0.0847222225390337,0.187230199575424,0.0418442711234093,0.0491746515035629
5,1.02500007039179,0.0486111125881959,0.0819444448505077,0.170736834406853,0.0583376325666905,0.0241291765123606
5,1.02361117850853,0.0680555564078778,0.0819444448505077,0.12705996632576,0.0891863256692886,0.0122173046693206
5,1.02916674604155,0.0680555564078778,0.0875000002275597,0.0305432621389627,0.125838235020638,-0.0308486949652433
5,0.99583334084345,0.0861111144222878,0.0916666697993398,-0.0131336031481624,0.0946841165423393,-0.0201585534960032
5,1.00972225967599,0.0944444474878658,0.0888888921108138,-0.098960168659687,0.0797179117798805,-0.0409279726445675
5,1.01527782720901,0.0986111170596459,0.0861111144222878,-0.189673662185669,0.0684169083833694,-0.037568211555481
5,1.00555558402623,0.0916666697993398,0.0902777839940679,-0.238542884588242,0.0235183127224445,-0.0479529201984406
5,1.02222228662528,0.0805555590452358,0.0819444448505077,-0.283441483974457,0.015577063895762,-0.0577267669141293
5,1.01805561097552,0.0625000010308258,0.0708333340964038,-0.312763005495071,0.00885754637420177,-0.0610865242779255
5,1.02361117850853,0.0444444460554069,0.0680555564078778,-0.318871647119522,0.0149661982432008,-0.0754418596625328
5,1.02361117850853,0.0388888906783549,0.0666666706026059,-0.298407673835754,0.00671951752156019,-0.0610865242779255
5,1.02083339474202,0.03194444645704,0.0722222259796579,-0.290771842002869,-0.0027488935738802,-0.0726929605007172
5,1.01944450285877,0.027777779924251,0.0680555564078778,-0.264810085296631,-0.00794124789535999,-0.0757472887635231
5,1.02222228662528,0.0208333341834404,0.0638888929140799,-0.254425376653671,-0.0161879286170006,-0.0696386396884918
5,1.02916674604155,0.0111111115138517,0.0583333375370279,-0.222965821623802,-0.00794124789535999,-0.0604756586253643
5,1.02916674604155,0.00972222266958873,0.0583333375370279,-0.194866016507149,0.0021380283869803,-0.0574213340878487
5,1.02500007039179,0.00694444498106275,0.0652777787193518,-0.160352125763893,0.0027488935738802,-0.0546724386513233
5,1.03194452980806,0.0138888899621255,0.0500000014324589,-0.140193566679955,-0.0106901414692402,-0.0494800843298435
5,1.02777785415829,0.0194444453391775,0.0416666683668809,-0.143858760595322,-0.0229074470698834,-0.0421497002243996
5,1.01666671909226,0.0138888899621255,0.0444444460554069,-0.129197999835014,-0.0345138870179653,-0.0271835029125214
5,1.01805561097552,0.00555555575692586,0.0611111152255539,-0.0668897479772568,-0.0540615729987621,0.000916297896765172
5,1.02500007039179,-0.00138888893923146,0.0472222237439329,-0.0372627787292004,-0.0516181141138077,0.0122173046693206
5,1.0333333244436,-0.00138888893923146,0.0541666679652478,-0.0100792767480016,-0.0424551330506802,0.00885754637420177
5,1.02916674604155,0.00277777787846293,0.055555559848502,0.0131336031481624,-0.029626963660121,0.01588249579072
5,1.03472221632685,0.00277777787846293,0.0625000010308258,0.0354301854968071,-0.00824668072164059,0.0186313893646002
5,1.03194452980806,0.00555555575692586,0.0583333375370279,0.0580321997404099,-0.0161879286170006,0.0244346093386412
5,1.0361111082101,0.0125000003581147,0.0625000010308258,0.0595593601465225,-0.00855211354792118,0.0189368221908808
5,1.02916674604155,0.0152777788063885,0.0500000014324589,0.0467311926186085,0.0027488935738802,0.0378736443817616
5,1.0305556379248,0.0152777788063885,0.0513888902767219,0.0806342139840126,0.00855211354792118,0.0519235469400883
5,1.02222228662528,0.0152777788063885,0.055555559848502,0.0959058403968811,-0.00488692196086049,0.0424551330506802
5,1.01944450285877,0.03194444645704,0.0541666679652478,0.0678060427308083,-0.0167987942695618,0.0424551330506802
5,1.01944450285877,0.030555557612777,0.0569444456537738,0.0626136884093285,-0.0204639863222837,0.0271835029125214
5,1.02638896227504,0.0361111129898289,0.0569444456537738,0.0436768643558025,-0.00946841109544039,0.0250454749912024
5,1.02500007039179,0.029166668768514,0.0569444456537738,0.0390953756868839,-0.00977384392172098,0.015577063895762
5,1.0333333244436,0.033333335301303,0.0638888929140799,0.0390953756868839,0.0161879286170006,0.0027488935738802
5,1.02916674604155,0.030555557612777,0.0583333375370279,0.0342084541916847,0.0256563406437635,0.0192422550171614
5,1.02500007039179,0.030555557612777,0.0583333375370279,0.0323758572340012,0.00946841109544039,0.0320704244077206
5,1.02777785415829,0.0222222230277034,0.0680555564078778,0.0464257597923279,0.0332921557128429,0.0134390350431204
5,1.02777785415829,0.0222222230277034,0.0680555564078778,0.0513126812875271,0.0259617734700441,0.0149661982432008
5,1.02500007039179,0.033333335301303,0.0750000036681839,0.0491746515035629,0.00763581553474069,0.00580321997404099
5,1.0305556379248,0.0361111129898289,0.0736111117849297,0.0552833043038845,0.0247400421649218,0.00488692196086049
5,1.03194452980806,0.0250000007162294,0.0736111117849297,0.10567969083786,0.00977384392172098,0.00183259579353034
5,1.02361117850853,0.0250000007162294,0.0847222225390337,0.140804439783096,0.0207694191485643,0.0186313893646002
5,1.0361111082101,0.033333335301303,0.0819444448505077,0.160962998867035,0.0482583530247212,0.0247400421649218
5,1.03194452980806,0.0388888906783549,0.0819444448505077,0.149051114916802,0.0479529201984406,0.0448985956609249
5,1.02638896227504,0.0361111129898289,0.0819444448505077,0.120951317250729,0.0219911485910416,0.0445931628346443
5,1.01944450285877,0.0388888906783549,0.0791666671619817,0.100792765617371,0.0290160998702049,0.027488935738802
5,1.00138890837647,0.0375000018340919,0.0833333367337618,0.0650571510195732,-0.00946841109544039,0.013744467869401
5,0.998611124609959,0.0388888906783549,0.0916666697993398,0.078801617026329,-0.0256563406437635,0.021685715764761
5,1.04166667574312,0.052777782159976,0.0736111117849297,0.027488935738802,0.0125227374956012,0.0210748501121998
5,1.02361117850853,0.0500000014324589,0.0652777787193518,-0.0103847095742822,0.00580321997404099,0.0287106670439243
5,1.02500007039179,0.03194444645704,0.0638888929140799,-0.0293215326964855,-0.011606439948082,-0.00794124789535999
5,1.02916674604155,0.0236111118719664,0.0694444482911319,-0.0406225398182869,0.00427605677396059,-0.0146607663482428
5,1.02777785415829,0.0236111118719664,0.0486111125881959,-0.0277943685650826,-0.0180205255746841,-0.00885754637420177
5,1.03888889197661,0.0222222230277034,0.0375000018340919,-0.0247400421649218,0.0345138870179653,-0.0021380283869803
5,0.98888888142718,0.0250000007162294,0.0680555564078778,-0.0348193198442459,0.015577063895762,-0.0128281703218818
5,0.991666665193688,0.027777779924251,0.0680555564078778,-0.0494800843298435,-0.0198531206697226,-0.00855211354792118
5,1.01527782720901,0.0166666676506515,0.0652777787193518,-0.0406225398182869,-0.0360410511493683,0.00519235478714108
5,1.03194452980806,0.0222222230277034,0.0652777787193518,-0.0207694191485643,-0.0363464802503586,-0.00427605677396059
5,1.02916674604155,0.0208333341834404,0.0736111117849297,-0.017409659922123,-0.0455094613134861,-0.00733038317412138
5,1.02500007039179,0.00694444498106275,0.0597222233422998,0.00641408516094089,-0.0369573459029198,0.0201585534960032
5,1.03472221632685,0.0125000003581147,0.0652777787193518,0.0442877300083637,-0.0277943685650826,0.0277943685650826
5,1.04722224327614,0.0194444453391775,0.0708333340964038,0.0604756586253643,0.0226020142436027,0.0253509078174829
5,1.01527782720901,0.0236111118719664,0.0805555590452358,0.0430659987032413,0.0167987942695618,0.0204639863222837
5,1.01666671909226,0.027777779924251,0.0833333367337618,0.0244346093386412,0.013744467869401,0.00427605677396059
5,1.01944450285877,0.029166668768514,0.0819444448505077,-0.00122173049021512,0.0140499006956816,-0.0140499006956816
5,1.03472221632685,0.0222222230277034,0.0708333340964038,-0.00580321997404099,0.0109955742955208,-0.0232128798961639
5,1.03472221632685,0.0222222230277034,0.0708333340964038,0.00305432616733015,0.0335975885391235,-0.021685715764761
5,1.02361117850853,0.0375000018340919,0.0736111117849297,0.00916297826915979,0.0387899428606033,-0.019547687843442
5,1.00972225967599,0.0388888906783549,0.0763888894734557,-0.0113010071218014,0.0253509078174829,-0.0357356183230877
5,1.00972225967599,0.0388888906783549,0.0763888894734557,0.000610865245107561,0.0250454749912024,-0.0250454749912024
5,1.01944450285877,0.029166668768514,0.0680555564078778,-0.00549778714776039,0.0180205255746841,-0.0125227374956012
5,1.02777785415829,0.0194444453391775,0.0680555564078778,0.0128281703218818,0.00946841109544039,-0.0033597587607801
5,1.02777785415829,0.0194444453391775,0.0680555564078778,0.0229074470698834,0.01588249579072,-0.017409659922123
5,1.02638896227504,0.0250000007162294,0.0583333375370279,0.0320704244077206,0.027488935738802,-0.0149661982432008
5,1.02222228662528,0.0180555564949145,0.0638888929140799,0.0394008085131645,0.0342084541916847,-0.0314595587551594
5,1.02222228662528,0.0180555564949145,0.0638888929140799,0.0479529201984406,0.0171042270958424,-0.0253509078174829
5,1.02222228662528,0.0166666676506515,0.0750000036681839,0.0552833043038845,0.0128281703218818,-0.0186313893646002
5,1.02500007039179,0.00833333382532574,0.0708333340964038,0.0748309940099716,0.0204639863222837,0.00152716308366507
5,1.02500007039179,0.00833333382532574,0.0708333340964038,0.103847093880177,0.0192422550171614,0.00122173049021512
5,1.02361117850853,0.0222222230277034,0.0930555616825939,0.123700208961964,0.00885754637420177,0.0332921557128429
5,1.02222228662528,0.0347222241455659,0.0777777813567098,0.104763388633728,0.00580321997404099,0.0409279726445675
5,1.02361117850853,0.0416666683668809,0.0791666671619817,0.0766635909676552,-0.00733038317412138,0.0488692186772823
5,1.01527782720901,0.055555559848502,0.0680555564078778,0.0470366254448891,-0.0183259565383196,0.0397062413394451
5,1.01388893532575,0.0638888929140799,0.0819444448505077,-0.013744467869401,-0.0323758572340012,0.0305432621389627
5,1.01805561097552,0.0722222259796579,0.0722222259796579,-0.0671951770782471,-0.0415388382971287,0.0241291765123606
5,1.01944450285877,0.0611111152255539,0.0805555590452358,-0.0986547395586967,-0.0479529201984406,-0.00519235478714108
5,1.02222228662528,0.0472222237439329,0.0819444448505077,-0.113926365971565,-0.0390953756868839,-0.0284052342176437
5,1.02638896227504,0.0347222241455659,0.0722222259796579,-0.11087204515934,-0.0256563406437635,-0.0418442711234093
5,1.02638896227504,0.030555557612777,0.0736111117849297,-0.11087204515934,-0.0167987942695618,-0.0491746515035629
5,1.02083339474202,0.027777779924251,0.0680555564078778,-0.101403631269932,-0.0122173046693206,-0.0452040284872055
5,1.02500007039179,0.0208333341834404,0.0722222259796579,-0.0824668109416962,0.00122173049021512,-0.0409279726445675
5,1.02500007039179,0.0152777788063885,0.0652777787193518,-0.0568104684352875,-0.00610865233466029,-0.0253509078174829
5,1.02638896227504,0.0111111115138517,0.0652777787193518,-0.0241291765123606,0.0045814891345799,-0.0277943685650826
5,1.02500007039179,0.00972222266958873,0.0611111152255539,0.02382374368608,0.00152716308366507,-0.0140499006956816
5,1.02500007039179,0.0180555564949145,0.0513888902767219,0.0412334054708481,0.00366519158706069,-0.00183259579353034
5,1.02777785415829,0.0236111118719664,0.0597222233422998,0.0390953756868839,0.00855211354792118,0.00122173049021512
5,1.02500007039179,0.026388891079988,0.055555559848502,0.0387899428606033,-0.0045814891345799,0.00763581553474069
5,1.02222228662528,0.026388891079988,0.0652777787193518,0.0229074470698834,-0.0033597587607801,0.00916297826915979
5,1.02222228662528,0.03194444645704,0.0652777787193518,0.0186313893646002,-0.00152716308366507,0.00549778714776039
5,1.02222228662528,0.033333335301303,0.0666666706026059,0.0109955742955208,-0.00183259579353034,0.0033597587607801
5,1.02500007039179,0.03194444645704,0.0680555564078778,0.00580321997404099,-0.0033597587607801,0.00397062394768
5,1.02500007039179,0.03194444645704,0.0625000010308258,0.00122173049021512,-0.00152716308366507,-0.00580321997404099
5,1.02500007039179,0.0347222241455659,0.0666666706026059,0.00671951752156019,0.0033597587607801,-0.013744467869401
5,1.02500007039179,0.026388891079988,0.0694444482911319,0.0161879286170006,0.00183259579353034,-0.00916297826915979
5,1.02916674604155,0.0208333341834404,0.0569444456537738,0.0271835029125214,0.0103847095742822,-0.00946841109544039
5,1.02638896227504,0.026388891079988,0.0652777787193518,0.0314595587551594,0.00794124789535999,-0.0021380283869803
5,1.02500007039179,0.029166668768514,0.0708333340964038,0.0290160998702049,0.0033597587607801,-0.000305432622553781
5,1.02361117850853,0.026388891079988,0.0777777813567098,0.015577063895762,0.000916297896765172,-0.00305432616733015
5,1.02361117850853,0.0250000007162294,0.0694444482911319,0.0253509078174829,-0.00427605677396059,-0.00152716308366507
5,1.02500007039179,0.03194444645704,0.0680555564078778,0.0247400421649218,-0.00122173049021512,-0.00152716308366507
5,1.02222228662528,0.0388888906783549,0.0638888929140799,0.0271835029125214,0.000916297896765172,0.0100792767480016
5,1.02361117850853,0.0361111129898289,0.0680555564078778,0.0100792767480016,-0.00183259579353034,0.00183259579353034
5,1.02500007039179,0.033333335301303,0.0763888894734557,0.0033597587607801,-0.0045814891345799,0.000305432622553781
5,1.02361117850853,0.033333335301303,0.0652777787193518,0.0045814891345799,-0.00305432616733015,0.00183259579353034
5,1.02500007039179,0.030555557612777,0.0708333340964038,0.00397062394768,-0.00763581553474069,-0.00244346098043024
5,1.02222228662528,0.030555557612777,0.0666666706026059,0.013744467869401,-0.00183259579353034,0.0106901414692402
5,1.02638896227504,0.033333335301303,0.0652777787193518,0.0125227374956012,-0.00702495034784079,0.0134390350431204
5,1.02500007039179,0.0361111129898289,0.0652777787193518,0.0167987942695618,-0.00610865233466029,0.00305432616733015
5,1.02638896227504,0.0375000018340919,0.0583333375370279,0.0113010071218014,-0.00580321997404099,0.000305432622553781
5,1.02222228662528,0.0375000018340919,0.0666666706026059,0.00916297826915979,-0.0106901414692402,0.00671951752156019
5,1.02500007039179,0.030555557612777,0.0777777813567098,0.00152716308366507,-0.00397062394768,0.00397062394768
5,1.02638896227504,0.0347222241455659,0.0680555564078778,-0.00305432616733015,-0.00702495034784079,0.00244346098043024
5,1.01666671909226,0.03194444645704,0.0694444482911319,-0.00824668072164059,0.00244346098043024,-0.0100792767480016
5,1.01666671909226,0.0347222241455659,0.0680555564078778,-0.0103847095742822,0.00549778714776039,-0.00519235478714108
5,1.01944450285877,0.0347222241455659,0.0680555564078778,-0.0109955742955208,-0.00366519158706069,-0.00977384392172098
5,1.02222228662528,0.029166668768514,0.0722222259796579,-0.0192422550171614,0.000305432622553781,-0.00641408516094089
5,1.02222228662528,0.030555557612777,0.0680555564078778,-0.013744467869401,0.00641408516094089,-0.00488692196086049
5,1.02361117850853,0.03194444645704,0.0583333375370279,-0.0180205255746841,0.0113010071218014,-0.0146607663482428
5,1.02222228662528,0.03194444645704,0.0722222259796579,-0.0140499006956816,-0.0021380283869803,-0.0143553335219622
5,1.02500007039179,0.026388891079988,0.0722222259796579,-0.0183259565383196,-0.00122173049021512,-0.011606439948082
5,1.02500007039179,0.0250000007162294,0.0597222233422998,-0.0134390350431204,-0.00488692196086049,-0.00763581553474069
5,1.02500007039179,0.03194444645704,0.0680555564078778,-0.00733038317412138,0.00702495034784079,-0.00122173049021512
5,1.02916674604155,0.0250000007162294,0.0625000010308258,-0.0021380283869803,-0.00305432616733015,-0.00763581553474069
5,1.02500007039179,0.026388891079988,0.0652777787193518,-0.0021380283869803,0.00488692196086049,-0.00244346098043024
5,1.02638896227504,0.027777779924251,0.0652777787193518,0.0033597587607801,0.00305432616733015,-0.0113010071218014
5,1.02916674604155,0.027777779924251,0.0652777787193518,0.00855211354792118,0.00702495034784079,-0.0033597587607801
5,1.02916674604155,0.030555557612777,0.0652777787193518,0.00427605677396059,-0.000610865245107561,-0.000916297896765172
5,1.02777785415829,0.03194444645704,0.0666666706026059,0.0128281703218818,-0.000305432622553781,0.0021380283869803
5,1.02222228662528,0.0250000007162294,0.0597222233422998,0.0143553335219622,0.000916297896765172,0.00977384392172098
5,1.02777785415829,0.0208333341834404,0.0680555564078778,0.01191187184304,0.00824668072164059,-0.00244346098043024
5,1.01944450285877,0.029166668768514,0.0694444482911319,0.017409659922123,0.00397062394768,-0.00488692196086049
5,1.02083339474202,0.027777779924251,0.0708333340964038,0.0140499006956816,0.00183259579353034,-0.00946841109544039
5,1.02500007039179,0.029166668768514,0.0652777787193518,0.0140499006956816,-0.00183259579353034,0.00733038317412138
5,1.02638896227504,0.0250000007162294,0.0680555564078778,0.0161879286170006,0.00183259579353034,0.00366519158706069
5,1.02777785415829,0.029166668768514,0.0680555564078778,0.0146607663482428,0.0100792767480016,-0.00366519158706069
5,1.02361117850853,0.029166668768514,0.0652777787193518,0.02382374368608,0.0125227374956012,-0.00488692196086049
5,1.02222228662528,0.030555557612777,0.0611111152255539,0.027488935738802,0.0103847095742822,0.00183259579353034
5,1.02777785415829,0.0347222241455659,0.0680555564078778,0.0284052342176437,0.0149661982432008,-0.00733038317412138
5,1.02638896227504,0.0361111129898289,0.0722222259796579,0.0235183127224445,0.00916297826915979,-0.00427605677396059
5,1.02916674604155,0.03194444645704,0.0680555564078778,0.0253509078174829,0.0109955742955208,-0.00580321997404099
5,1.02500007039179,0.0388888906783549,0.0722222259796579,0.0171042270958424,0.0177150927484035,-0.00397062394768
5,1.02500007039179,0.0388888906783549,0.0722222259796579,0.013744467869401,0.0109955742955208,-0.0045814891345799
5,1.02361117850853,0.030555557612777,0.0722222259796579,0.00397062394768,0.00122173049021512,0.00183259579353034
5,1.02222228662528,0.0361111129898289,0.0680555564078778,0.0027488935738802,0.0045814891345799,0.000916297896765172
5,1.02361117850853,0.03194444645704,0.0680555564078778,0.0033597587607801,0.00519235478714108,-0.00366519158706069
5,1.02500007039179,0.030555557612777,0.0611111152255539,0.000305432622553781,0.0128281703218818,-0.00702495034784079
5,1.02500007039179,0.027777779924251,0.0652777787193518,0.0045814891345799,0.0164933614432812,-0.00549778714776039
5,1.02222228662528,0.03194444645704,0.0652777787193518,0.0033597587607801,0.0113010071218014,-0.00702495034784079
5,1.02222228662528,0.029166668768514,0.0819444448505077,0.00702495034784079,0.0128281703218818,-0.00641408516094089
5,1.02222228662528,0.029166668768514,0.0736111117849297,0.0106901414692402,0.0113010071218014,-0.0109955742955208
5,1.02361117850853,0.0250000007162294,0.0708333340964038,0.00977384392172098,0.01191187184304,-0.00580321997404099
5,1.02222228662528,0.027777779924251,0.0750000036681839,0.00702495034784079,0.0128281703218818,-0.00427605677396059
5,1.01944450285877,0.0347222241455659,0.0694444482911319,-0.0021380283869803,0.0027488935738802,-0.0103847095742822
5,1.02222228662528,0.027777779924251,0.0819444448505077,-0.00244346098043024,0.0027488935738802,-0.00549778714776039
5,1.02083339474202,0.030555557612777,0.0736111117849297,-0.0103847095742822,0.00733038317412138,-0.00824668072164059
5,1.02500007039179,0.033333335301303,0.0722222259796579,0.00366519158706069,0.000610865245107561,-0.00183259579353034
5,1.02083339474202,0.033333335301303,0.0722222259796579,0.0103847095742822,0.0045814891345799,-0.00671951752156019
5,1.01944450285877,0.0361111129898289,0.0750000036681839,0.00366519158706069,-0.00305432616733015,-0.000610865245107561
5,1.02916674604155,0.03194444645704,0.0736111117849297,0.00366519158706069,-0.00152716308366507,0.00794124789535999
5,1.02916674604155,0.026388891079988,0.0763888894734557,0.00763581553474069,-0.00763581553474069,0.00946841109544039
5,1.02777785415829,0.029166668768514,0.0750000036681839,0.00152716308366507,0.0033597587607801,0.00671951752156019
5,1.02500007039179,0.029166668768514,0.0638888929140799,-0.00366519158706069,0.00763581553474069,0.00183259579353034
5,1.02500007039179,0.029166668768514,0.0597222233422998,0.00580321997404099,0.0033597587607801,-0.00794124789535999
5,1.02500007039179,0.0361111129898289,0.0625000010308258,0.00763581553474069,0.00549778714776039,-0.00824668072164059
5,1.01944450285877,0.029166668768514,0.0722222259796579,0.017409659922123,0.0100792767480016,-0.00794124789535999
5,1.01944450285877,0.030555557612777,0.0750000036681839,0.0177150927484035,0.0045814891345799,-0.00183259579353034
5,1.02083339474202,0.03194444645704,0.0763888894734557,0.00885754637420177,0.00946841109544039,-0.00183259579353034
5,1.02500007039179,0.03194444645704,0.0694444482911319,0.00824668072164059,0.00702495034784079,-0.00488692196086049
5,1.02500007039179,0.029166668768514,0.0833333367337618,0.00427605677396059,0.00580321997404099,-0.00366519158706069
5,1.02638896227504,0.03194444645704,0.0583333375370279,0.011606439948082,0.00855211354792118,-0.00580321997404099
5,1.02500007039179,0.03194444645704,0.0680555564078778,0.0164933614432812,0.0125227374956012,-0.00580321997404099
5,1.02361117850853,0.029166668768514,0.0736111117849297,0.0131336031481624,0.00885754637420177,-0.00702495034784079
5,1.02361117850853,0.029166668768514,0.0736111117849297,0.00885754637420177,0.00671951752156019,-0.000610865245107561
5,1.01944450285877,0.0347222241455659,0.0722222259796579,0.00671951752156019,-0.0045814891345799,-0.000610865245107561
5,1.01944450285877,0.0361111129898289,0.0722222259796579,0.0027488935738802,-0.0021380283869803,0.0033597587607801
5,1.02361117850853,0.0361111129898289,0.0791666671619817,-0.000916297896765172,-0.000610865245107561,-0.000305432622553781
5,1.02361117850853,0.030555557612777,0.0750000036681839,-0.00244346098043024,0.00488692196086049,-0.0033597587607801
5,1.01944450285877,0.033333335301303,0.0736111117849297,-0.0106901414692402,-0.00183259579353034,-0.00397062394768
5,1.02222228662528,0.03194444645704,0.0750000036681839,-0.0131336031481624,0.00183259579353034,-0.00610865233466029
5,1.02222228662528,0.029166668768514,0.0916666697993398,-0.0033597587607801,0.00763581553474069,-0.00427605677396059
5,1.02222228662528,0.030555557612777,0.0833333367337618,0.00183259579353034,0.0122173046693206,-0.0027488935738802
5,1.02777785415829,0.0361111129898289,0.0777777813567098,0.0103847095742822,0.0171042270958424,-0.00733038317412138
5,1.02500007039179,0.0388888906783549,0.0625000010308258,0.0125227374956012,0.00824668072164059,-0.00885754637420177
5,1.02222228662528,0.033333335301303,0.0694444482911319,0.00885754637420177,0.0113010071218014,-0.000916297896765172
5,1.01805561097552,0.0388888906783549,0.0680555564078778,0.0149661982432008,0.013744467869401,-0.0103847095742822
5,1.02222228662528,0.0416666683668809,0.0777777813567098,-0.00427605677396059,0.013744467869401,-0.00885754637420177
5,1.02083339474202,0.0458333348996699,0.0750000036681839,-0.00366519158706069,0.00855211354792118,-0.00763581553474069
5,1.02361117850853,0.0416666683668809,0.0666666706026059,-0.00122173049021512,0.0122173046693206,-0.00702495034784079
5,1.02500007039179,0.0416666683668809,0.0694444482911319,-0.00702495034784079,0.00244346098043024,-0.00488692196086049
5,1.02083339474202,0.0402777795226179,0.0666666706026059,-0.0222965814173222,0.00183259579353034,-0.00549778714776039
5,1.02083339474202,0.0375000018340919,0.0750000036681839,-0.0100792767480016,-0.0021380283869803,-0.0125227374956012
5,1.02500007039179,0.03194444645704,0.0680555564078778,-0.0113010071218014,-0.00122173049021512,-0.00946841109544039
5,1.02361117850853,0.0361111129898289,0.0708333340964038,-0.000610865245107561,-0.0033597587607801,-0.00244346098043024
5,1.03194452980806,0.0375000018340919,0.0722222259796579,0.000610865245107561,-0.00366519158706069,-0.00488692196086049
5,1.02222228662528,0.0361111129898289,0.0638888929140799,-0.00641408516094089,0.00488692196086049,-0.0109955742955208
5,1.02500007039179,0.03194444645704,0.0736111117849297,-0.00580321997404099,0.00946841109544039,-0.00397062394768
5,1.02222228662528,0.03194444645704,0.0722222259796579,-0.00152716308366507,-0.00641408516094089,-0.00244346098043024
5,1.02361117850853,0.0388888906783549,0.0652777787193518,-0.0226020142436027,-0.000610865245107561,-0.00702495034784079
5,1.01666671909226,0.0416666683668809,0.0694444482911319,-0.0247400421649218,-0.0125227374956012,-0.0033597587607801
5,1.02222228662528,0.033333335301303,0.0722222259796579,-0.0186313893646002,-0.00763581553474069,0.00794124789535999
5,1.02500007039179,0.0388888906783549,0.0722222259796579,-0.017409659922123,-0.0045814891345799,0.00397062394768
5,1.02777785415829,0.03194444645704,0.0736111117849297,-0.00580321997404099,-0.0021380283869803,-0.0027488935738802
5,1.02777785415829,0.03194444645704,0.0736111117849297,0.00122173049021512,0.0021380283869803,-0.00244346098043024
5,1.02500007039179,0.03194444645704,0.0750000036681839,0.013744467869401,0.00152716308366507,0.00610865233466029
5,1.01805561097552,0.03194444645704,0.0666666706026059,0.0125227374956012,0.00702495034784079,0.000305432622553781
5,1.02222228662528,0.0347222241455659,0.0652777787193518,0.0271835029125214,0.0033597587607801,-0.00152716308366507
5,1.02083339474202,0.026388891079988,0.0652777787193518,0.0219911485910416,0.0021380283869803,0.0128281703218818
5,1.02222228662528,0.033333335301303,0.0722222259796579,0.0314595587551594,0.00671951752156019,0.00366519158706069
5,1.02222228662528,0.0347222241455659,0.0680555564078778,0.0256563406437635,0.00397062394768,0.00916297826915979
5,1.02500007039179,0.0416666683668809,0.0583333375370279,0.015577063895762,0.00488692196086049,0.00763581553474069
5,1.01527782720901,0.0416666683668809,0.0680555564078778,0.00671951752156019,0.00397062394768,0.000305432622553781
5,1.01666671909226,0.0388888906783549,0.0777777813567098,0.011606439948082,-0.00824668072164059,0.000916297896765172
5,1.02222228662528,0.0361111129898289,0.0805555590452358,0.00977384392172098,-0.0027488935738802,0.00427605677396059
5,1.01666671909226,0.0388888906783549,0.0833333367337618,0.0180205255746841,-0.0045814891345799,0.00610865233466029
5,1.02361117850853,0.0361111129898289,0.0652777787193518,-0.0033597587607801,-0.00763581553474069,0.00427605677396059
5,1.02222228662528,0.033333335301303,0.0777777813567098,-0.00397062394768,-0.0177150927484035,0.00885754637420177
5,1.02916674604155,0.0361111129898289,0.0708333340964038,-0.00885754637420177,-0.00244346098043024,0.00763581553474069
5,1.02500007039179,0.03194444645704,0.0736111117849297,0.0106901414692402,-0.00733038317412138,0.0045814891345799
5,1.02638896227504,0.027777779924251,0.0680555564078778,0.0131336031481624,0.00244346098043024,0.00671951752156019
5,1.02500007039179,0.03194444645704,0.0583333375370279,0.0192422550171614,0.00641408516094089,0.00397062394768
5,1.02500007039179,0.0361111129898289,0.0694444482911319,0.0308486949652433,0.0128281703218818,0.00641408516094089
5,1.02361117850853,0.033333335301303,0.0708333340964038,0.0277943685650826,0.00794124789535999,-0.0045814891345799
5,1.02500007039179,0.0347222241455659,0.0569444456537738,0.0192422550171614,0.00885754637420177,-0.0045814891345799
5,1.02500007039179,0.03194444645704,0.0583333375370279,0.00366519158706069,0.00305432616733015,0.00580321997404099
5,1.02222228662528,0.03194444645704,0.0763888894734557,0.0122173046693206,0.0021380283869803,-0.00183259579353034
5,1.01666671909226,0.0361111129898289,0.0750000036681839,0.0167987942695618,0.00122173049021512,0.000916297896765172
5,1.01944450285877,0.0375000018340919,0.0736111117849297,0.000610865245107561,-0.00122173049021512,-0.00671951752156019
5,1.02222228662528,0.0388888906783549,0.0722222259796579,-0.00763581553474069,-0.00122173049021512,-0.00855211354792118
5,1.02222228662528,0.0388888906783549,0.0722222259796579,-0.01588249579072,-0.00671951752156019,-0.00946841109544039
5,1.02222228662528,0.033333335301303,0.0652777787193518,-0.0109955742955208,-0.0103847095742822,-0.00916297826915979
5,1.02222228662528,0.033333335301303,0.0652777787193518,-0.00702495034784079,-0.00610865233466029,-0.00763581553474069
5,1.02222228662528,0.030555557612777,0.0722222259796579,-0.00794124789535999,-0.00366519158706069,0.000610865245107561
5,1.02777785415829,0.0361111129898289,0.0763888894734557,-0.00427605677396059,-0.000610865245107561,0.000610865245107561
5,1.02222228662528,0.03194444645704,0.0750000036681839,-0.00152716308366507,-0.00305432616733015,-0.00702495034784079
5,1.02638896227504,0.033333335301303,0.0680555564078778,-0.0027488935738802,-0.00519235478714108,-0.0128281703218818
5,1.02638896227504,0.0388888906783549,0.0708333340964038,-0.000305432622553781,0.00183259579353034,-0.00610865233466029
5,1.02083339474202,0.0361111129898289,0.0694444482911319,0.00427605677396059,-0.00305432616733015,-0.0045814891345799
5,1.02222228662528,0.033333335301303,0.0750000036681839,0.0103847095742822,-0.00610865233466029,-0.00824668072164059
5,1.02916674604155,0.03194444645704,0.0680555564078778,-0.000916297896765172,0.00183259579353034,0.00397062394768
5,1.02500007039179,0.03194444645704,0.0750000036681839,-0.000610865245107561,-0.00366519158706069,0.0021380283869803
5,1.02916674604155,0.03194444645704,0.0819444448505077,0.00580321997404099,-0.000305432622553781,0.0021380283869803
5,1.02222228662528,0.029166668768514,0.0750000036681839,0.00488692196086049,-0.000610865245107561,-0.0045814891345799
5,1.02222228662528,0.029166668768514,0.0750000036681839,0.00488692196086049,-0.0033597587607801,-0.00671951752156019
5,1.02222228662528,0.026388891079988,0.0652777787193518,0.0143553335219622,-0.00702495034784079,-0.00366519158706069
5,1.02500007039179,0.029166668768514,0.0763888894734557,0.00641408516094089,0.00183259579353034,-0.00183259579353034
5,1.02500007039179,0.029166668768514,0.0763888894734557,0.00977384392172098,0.000305432622553781,0.000305432622553781
5,1.02777785415829,0.03194444645704,0.0722222259796579,0.00733038317412138,0.00763581553474069,-0.00122173049021512
5,1.02222228662528,0.03194444645704,0.0763888894734557,0.0164933614432812,-0.00366519158706069,-0.00244346098043024
5,1.02222228662528,0.03194444645704,0.0763888894734557,0.017409659922123,0.0033597587607801,0.000610865245107561
5,1.02500007039179,0.029166668768514,0.0791666671619817,0.0131336031481624,0.0033597587607801,0.000305432622553781
5,1.02500007039179,0.03194444645704,0.0722222259796579,0.0140499006956816,0.00549778714776039,-0.00397062394768
5,1.02638896227504,0.0347222241455659,0.0680555564078778,0.00885754637420177,0.0027488935738802,-0.00580321997404099
5,1.02500007039179,0.0347222241455659,0.0708333340964038,0.0113010071218014,0.0027488935738802,-0.000610865245107561
5,1.02777785415829,0.03194444645704,0.0708333340964038,0.00794124789535999,0.00122173049021512,-0.00305432616733015
5,1.02222228662528,0.0388888906783549,0.0694444482911319,0.0113010071218014,0.00977384392172098,-0.00549778714776039
5,1.02361117850853,0.0388888906783549,0.0680555564078778,0.00244346098043024,0.0134390350431204,-0.00733038317412138
5,1.02222228662528,0.030555557612777,0.0791666671619817,0.00519235478714108,0.00946841109544039,-0.00855211354792118
5,1.02777785415829,0.029166668768514,0.0791666671619817,0.00702495034784079,0.00580321997404099,-0.0106901414692402
5,1.02638896227504,0.026388891079988,0.0652777787193518,0.011606439948082,0.0045814891345799,-0.011606439948082
5,1.02916674604155,0.03194444645704,0.0722222259796579,0.027488935738802,0.0109955742955208,-0.00549778714776039
5,1.02083339474202,0.0388888906783549,0.0777777813567098,0.0247400421649218,0.0171042270958424,-0.0109955742955208
5,1.02222228662528,0.0388888906783549,0.0722222259796579,0.01588249579072,0.00549778714776039,-0.0134390350431204
5,1.01944450285877,0.0361111129898289,0.0736111117849297,0.013744467869401,0.00733038317412138,-0.0122173046693206
5,1.02500007039179,0.0388888906783549,0.0680555564078778,-0.0033597587607801,-0.00122173049021512,-0.00885754637420177
5,1.02222228662528,0.0416666683668809,0.0708333340964038,-0.0027488935738802,0.00641408516094089,-0.0164933614432812
5,1.02500007039179,0.0388888906783549,0.0694444482911319,-0.00427605677396059,0.0045814891345799,-0.0109955742955208
5,1.02222228662528,0.03194444645704,0.0750000036681839,0.000610865245107561,-0.000305432622553781,-0.00824668072164059
5,1.02500007039179,0.033333335301303,0.0736111117849297,-0.00305432616733015,0.011606439948082,-0.00427605677396059
5,1.02361117850853,0.0388888906783549,0.0805555590452358,0.00824668072164059,0.0106901414692402,-0.0113010071218014
5,1.02222228662528,0.0347222241455659,0.0777777813567098,0.0021380283869803,0.0100792767480016,-0.0113010071218014
5,1.02083339474202,0.0361111129898289,0.0777777813567098,0.0027488935738802,0.00946841109544039,-0.00244346098043024
5,1.02222228662528,0.0388888906783549,0.0722222259796579,0.0027488935738802,0.00702495034784079,-0.00916297826915979
5,1.01944450285877,0.0402777795226179,0.0680555564078778,0.00366519158706069,0.00122173049021512,-0.0152716310694814
5,1.02500007039179,0.033333335301303,0.0680555564078778,0.0027488935738802,0.00580321997404099,-0.00946841109544039
5,1.02500007039179,0.0361111129898289,0.0652777787193518,-0.000305432622553781,0.00519235478714108,-0.00824668072164059
5,1.02361117850853,0.03194444645704,0.0694444482911319,0.0109955742955208,0.00794124789535999,-0.00671951752156019
5,1.02222228662528,0.0347222241455659,0.0750000036681839,0.0152716310694814,0.0161879286170006,-0.00305432616733015
5,1.02361117850853,0.0361111129898289,0.0722222259796579,0.0213802829384804,0.011606439948082,-0.000916297896765172
5,1.02222228662528,0.0361111129898289,0.0777777813567098,0.011606439948082,0.0109955742955208,-0.000610865245107561
5,1.02083339474202,0.0402777795226179,0.0819444448505077,0.0131336031481624,0.00610865233466029,0.000610865245107561
5,1.02083339474202,0.0430555572111439,0.0750000036681839,0.011606439948082,0.00397062394768,0.0033597587607801
5,1.02361117850853,0.0416666683668809,0.0736111117849297,0.0125227374956012,0.00641408516094089,-0.0033597587607801
5,1.02500007039179,0.0375000018340919,0.0722222259796579,0.00641408516094089,0.015577063895762,-0.0113010071218014
5,1.01944450285877,0.0361111129898289,0.0722222259796579,0.00885754637420177,0.0122173046693206,-0.0100792767480016
5,1.01805561097552,0.0388888906783549,0.0736111117849297,0.00427605677396059,0.0021380283869803,-0.00366519158706069
5,1.01944450285877,0.0402777795226179,0.0750000036681839,0.0033597587607801,0.0106901414692402,-0.000610865245107561
5,1.02222228662528,0.0375000018340919,0.0791666671619817,0.00183259579353034,0.0103847095742822,-0.0106901414692402
5,1.02222228662528,0.0375000018340919,0.0791666671619817,0.0103847095742822,0.00733038317412138,-0.0045814891345799
5,1.02222228662528,0.0402777795226179,0.0791666671619817,0.011606439948082,-0.00183259579353034,0.00183259579353034
5,1.02083339474202,0.0416666683668809,0.0750000036681839,0.0045814891345799,0.00183259579353034,-0.00610865233466029
5,1.02083339474202,0.0416666683668809,0.0750000036681839,-0.00122173049021512,-0.00244346098043024,-0.00152716308366507
5,1.02222228662528,0.0458333348996699,0.0680555564078778,-0.00794124789535999,-0.00305432616733015,-0.00244346098043024
5,1.02222228662528,0.0430555572111439,0.0694444482911319,-0.0113010071218014,-0.00427605677396059,0.0021380283869803
5,1.02361117850853,0.0416666683668809,0.0722222259796579,-0.00244346098043024,-0.00641408516094089,-0.00183259579353034
5,1.02222228662528,0.0416666683668809,0.0777777813567098,-0.00244346098043024,0.01191187184304,-0.00885754637420177
5,1.02500007039179,0.0416666683668809,0.0750000036681839,0.00183259579353034,-0.0033597587607801,-0.0100792767480016
5,1.02222228662528,0.0402777795226179,0.0736111117849297,0.00671951752156019,0.00397062394768,-0.0027488935738802
5,1.02222228662528,0.0402777795226179,0.0777777813567098,0.00916297826915979,0.000610865245107561,-0.000305432622553781
5,1.02083339474202,0.0402777795226179,0.0750000036681839,0.01191187184304,-0.00427605677396059,0.00702495034784079
5,1.02222228662528,0.0388888906783549,0.0708333340964038,0.013744467869401,0.0021380283869803,-0.00244346098043024
5,1.02222228662528,0.0416666683668809,0.0763888894734557,0.0183259565383196,-0.00824668072164059,-0.0027488935738802
5,1.02222228662528,0.0402777795226179,0.0750000036681839,0.0143553335219622,-0.0033597587607801,0.0045814891345799
5,1.02222228662528,0.0416666683668809,0.0694444482911319,0.00397062394768,-0.000610865245107561,-0.00183259579353034
5,1.02222228662528,0.0402777795226179,0.0750000036681839,0.00763581553474069,-0.0045814891345799,0.00519235478714108
5,1.02361117850853,0.0444444460554069,0.0763888894734557,0.0103847095742822,-0.00152716308366507,-0.00549778714776039
5,1.02777785415829,0.0388888906783549,0.0777777813567098,0.00671951752156019,-0.00580321997404099,0.00152716308366507
5,1.02916674604155,0.0388888906783549,0.0777777813567098,0.00549778714776039,0.000305432622553781,0.00244346098043024
5,1.02500007039179,0.0361111129898289,0.0750000036681839,0.00366519158706069,-0.00824668072164059,-0.0021380283869803
5,1.02222228662528,0.033333335301303,0.0777777813567098,0.0045814891345799,0.00427605677396059,0.0033597587607801
5,1.02361117850853,0.0347222241455659,0.0750000036681839,0.00824668072164059,0.00305432616733015,0.0122173046693206
5,1.02500007039179,0.033333335301303,0.0708333340964038,0.00152716308366507,-0.00152716308366507,0.00366519158706069
5,1.02638896227504,0.0347222241455659,0.0750000036681839,0.0134390350431204,0.00244346098043024,0.00305432616733015
5,1.02361117850853,0.0375000018340919,0.0708333340964038,0.0152716310694814,0.00519235478714108,0.000305432622553781
5,1.02222228662528,0.0347222241455659,0.0680555564078778,0.0143553335219622,0.0033597587607801,0.00427605677396059
5,1.02222228662528,0.0361111129898289,0.0722222259796579,0.00183259579353034,0.00641408516094089,0.000305432622553781
5,1.02222228662528,0.0375000018340919,0.0750000036681839,0.00794124789535999,0.0027488935738802,0.00427605677396059
5,1.02083339474202,0.0375000018340919,0.0750000036681839,0.015577063895762,0.00122173049021512,-0.000916297896765172
5,1.02222228662528,0.0388888906783549,0.0791666671619817,0.0226020142436027,-0.000305432622553781,-0.0021380283869803
5,1.02222228662528,0.0388888906783549,0.0791666671619817,0.0128281703218818,0.00244346098043024,-0.000916297896765172
5,1.02500007039179,0.0388888906783549,0.0722222259796579,0.0109955742955208,0.00610865233466029,-0.00122173049021512
5,1.02361117850853,0.0402777795226179,0.0777777813567098,0.00549778714776039,0.00397062394768,-0.00519235478714108
5,1.02500007039179,0.0375000018340919,0.0833333367337618,0.0045814891345799,0.0045814891345799,-0.00305432616733015
5,1.02222228662528,0.0375000018340919,0.0708333340964038,0.00733038317412138,0.00885754637420177,-0.00641408516094089
5,1.02500007039179,0.0347222241455659,0.0750000036681839,0.0131336031481624,0.00397062394768,-0.00397062394768
5,1.02222228662528,0.0361111129898289,0.0680555564078778,0.0180205255746841,0.00977384392172098,-0.00427605677396059
5,1.02083339474202,0.0416666683668809,0.0722222259796579,0.0183259565383196,0.00519235478714108,-0.00152716308366507
5,1.02361117850853,0.0388888906783549,0.0736111117849297,0.0290160998702049,0.0113010071218014,0.00427605677396059
5,1.01944450285877,0.0430555572111439,0.0861111144222878,0.0131336031481624,0.000305432622553781,-0.00733038317412138
5,1.01944450285877,0.0430555572111439,0.0916666697993398,0.00641408516094089,-0.00183259579353034,-0.000305432622553781
5,1.02500007039179,0.0388888906783549,0.0763888894734557,0.00549778714776039,-0.00122173049021512,-0.0021380283869803
5,1.01944450285877,0.0402777795226179,0.0777777813567098,0.0113010071218014,-0.00244346098043024,-0.00305432616733015
5,1.02222228662528,0.0388888906783549,0.0736111117849297,-0.0045814891345799,0.0027488935738802,0.0027488935738802
5,1.02500007039179,0.033333335301303,0.0694444482911319,-0.00152716308366507,-0.0021380283869803,0.00855211354792118
5,1.02222228662528,0.029166668768514,0.0750000036681839,0.000305432622553781,0.00152716308366507,0.00244346098043024
5,1.02361117850853,0.0347222241455659,0.0652777787193518,0.0045814891345799,0.00519235478714108,0.00610865233466029
5,1.02361117850853,0.0361111129898289,0.0791666671619817,0.00916297826915979,-0.000305432622553781,-0.00122173049021512
5,1.02361117850853,0.0347222241455659,0.0722222259796579,0.02382374368608,0.00305432616733015,-0.00824668072164059
5,1.02083339474202,0.0388888906783549,0.0652777787193518,0.0232128798961639,0.00366519158706069,0.000916297896765172
5,1.02222228662528,0.0361111129898289,0.0722222259796579,0.0192422550171614,0.00366519158706069,0.000610865245107561
5,1.02500007039179,0.0388888906783549,0.0750000036681839,0.00763581553474069,0.00702495034784079,0.00549778714776039
5,1.02222228662528,0.0388888906783549,0.0638888929140799,0.00397062394768,-0.00152716308366507,0.00122173049021512
5,1.02500007039179,0.0388888906783549,0.0708333340964038,-0.00641408516094089,0.0021380283869803,0.00152716308366507
5,1.02222228662528,0.030555557612777,0.0694444482911319,-0.0027488935738802,-0.00733038317412138,0.00305432616733015
5,1.01944450285877,0.033333335301303,0.0722222259796579,0.0027488935738802,0.0021380283869803,0.00152716308366507
5,1.02222228662528,0.0375000018340919,0.0625000010308258,0.00122173049021512,0.00183259579353034,-0.00122173049021512
5,1.02500007039179,0.03194444645704,0.0597222233422998,0.00244346098043024,0.00549778714776039,-0.0134390350431204
5,1.02222228662528,0.0375000018340919,0.0652777787193518,0.00366519158706069,0.00641408516094089,0.00244346098043024
5,1.01805561097552,0.0388888906783549,0.0736111117849297,0.000610865245107561,-0.00397062394768,-0.00610865233466029
5,1.01944450285877,0.0388888906783549,0.0736111117849297,0.000305432622553781,-0.00519235478714108,0.00305432616733015
5,1.02500007039179,0.0388888906783549,0.0652777787193518,0.00488692196086049,0.0021380283869803,0.000610865245107561
5,1.02500007039179,0.0388888906783549,0.0652777787193518,0.00733038317412138,0.0021380283869803,0.00244346098043024
5,1.02361117850853,0.0388888906783549,0.0791666671619817,0.00183259579353034,0.00549778714776039,-0.00488692196086049
5,1.02222228662528,0.0388888906783549,0.0875000002275597,0.00580321997404099,0.00397062394768,0.00427605677396059
5,1.02222228662528,0.0388888906783549,0.0875000002275597,0.00610865233466029,0.000916297896765172,0.00244346098043024
5,1.02500007039179,0.0375000018340919,0.0736111117849297,0.00641408516094089,-0.0027488935738802,0.00488692196086049
5,1.02638896227504,0.033333335301303,0.0666666706026059,0.0143553335219622,0.00305432616733015,-0.000305432622553781
5,1.02638896227504,0.033333335301303,0.0666666706026059,0.00824668072164059,0.000610865245107561,0.00366519158706069
5,1.02222228662528,0.0402777795226179,0.0680555564078778,0.0045814891345799,0.00366519158706069,0.00519235478714108
5,1.02500007039179,0.0388888906783549,0.0722222259796579,-0.000916297896765172,-0.00427605677396059,0.00244346098043024
5,1.02500007039179,0.0388888906783549,0.0791666671619817,0.00397062394768,0.000305432622553781,0.00122173049021512
5,1.02083339474202,0.0375000018340919,0.0722222259796579,0.00641408516094089,-0.00122173049021512,0.00305432616733015
5,1.02361117850853,0.0388888906783549,0.0652777787193518,0.00855211354792118,0.0033597587607801,-0.00733038317412138
5,1.02222228662528,0.0388888906783549,0.0708333340964038,0.00916297826915979,0.000916297896765172,0.00855211354792118
5,1.02638896227504,0.03194444645704,0.0722222259796579,0.0113010071218014,0.00824668072164059,0.00610865233466029
5,1.02500007039179,0.03194444645704,0.0763888894734557,0.0143553335219622,0.000610865245107561,-0.00152716308366507
5,1.02361117850853,0.0361111129898289,0.0722222259796579,0.0109955742955208,0.000916297896765172,-0.0033597587607801
5,1.02361117850853,0.0361111129898289,0.0680555564078778,0.0109955742955208,0.00427605677396059,-0.0100792767480016
5,1.02083339474202,0.0388888906783549,0.0722222259796579,0.01191187184304,0.00855211354792118,-0.0021380283869803
5,1.02500007039179,0.033333335301303,0.0680555564078778,0.011606439948082,0.00519235478714108,0.00183259579353034
5,1.02916674604155,0.0361111129898289,0.0569444456537738,0.0131336031481624,0.0045814891345799,-0.0106901414692402
5,1.02222228662528,0.0375000018340919,0.0750000036681839,0.0100792767480016,0.00733038317412138,0.00122173049021512
5,1.02083339474202,0.033333335301303,0.0722222259796579,0.01191187184304,0.00122173049021512,-0.000305432622553781
5,1.02500007039179,0.0347222241455659,0.0722222259796579,0.0100792767480016,0.00366519158706069,0.00549778714776039
5,1.02500007039179,0.0388888906783549,0.0750000036681839,0.0183259565383196,0.00641408516094089,0.000305432622553781
5,1.02500007039179,0.0388888906783549,0.0777777813567098,0.0134390350431204,-0.00244346098043024,0.000610865245107561
5,1.02500007039179,0.0375000018340919,0.0750000036681839,0.00916297826915979,0.00244346098043024,0.000610865245107561
5,1.02222228662528,0.0375000018340919,0.0777777813567098,0.00671951752156019,0.00855211354792118,-0.00305432616733015
5,1.02361117850853,0.0402777795226179,0.0722222259796579,-0.00519235478714108,0.00366519158706069,-0.00183259579353034
5,1.02361117850853,0.0402777795226179,0.0722222259796579,-0.00549778714776039,0.00610865233466029,-0.0027488935738802
5,1.02083339474202,0.0444444460554069,0.0750000036681839,-0.0045814891345799,-0.01588249579072,0.000305432622553781
5,1.02083339474202,0.0458333348996699,0.0791666671619817,-0.0226020142436027,-0.0146607663482428,-0.00946841109544039
5,1.02222228662528,0.0361111129898289,0.0750000036681839,-0.0369573459029198,-0.00794124789535999,-0.0021380283869803
5,1.02638896227504,0.0388888906783549,0.0763888894734557,-0.0302378293126821,-0.00427605677396059,-0.0143553335219622
5,1.01944450285877,0.0375000018340919,0.0819444448505077,-0.0222965814173222,0.00580321997404099,-0.0198531206697226
5,1.02222228662528,0.0347222241455659,0.0861111144222878,-0.00671951752156019,0.00427605677396059,-0.00916297826915979
5,1.01944450285877,0.0388888906783549,0.0736111117849297,0.00122173049021512,0.00671951752156019,-0.0177150927484035
5,1.02222228662528,0.0402777795226179,0.0680555564078778,0.00824668072164059,0.0045814891345799,-0.0171042270958424
5,1.02222228662528,0.0388888906783549,0.0708333340964038,0.00580321997404099,-0.00427605677396059,-0.0192422550171614
5,1.02222228662528,0.0361111129898289,0.0777777813567098,0.00885754637420177,-0.0125227374956012,-0.0143553335219622
5,1.01944450285877,0.0388888906783549,0.0611111152255539,0.0149661982432008,-0.00763581553474069,-0.00549778714776039
5,1.02500007039179,0.0388888906783549,0.0680555564078778,0.0106901414692402,-0.013744467869401,-0.00427605677396059
5,1.02361117850853,0.0416666683668809,0.0680555564078778,0.0045814891345799,-0.00824668072164059,-0.00305432616733015
5,1.02222228662528,0.0388888906783549,0.0750000036681839,-0.0109955742955208,-0.01191187184304,0.000610865245107561
5,1.02361117850853,0.030555557612777,0.0680555564078778,-0.00977384392172098,-0.00519235478714108,0.0021380283869803
5,1.02777785415829,0.0222222230277034,0.0805555590452358,0.0033597587607801,0.000916297896765172,0.0027488935738802
5,1.02500007039179,0.0208333341834404,0.0736111117849297,0.0302378293126821,0.00244346098043024,0.000916297896765172
5,1.02500007039179,0.0194444453391775,0.0680555564078778,0.0448985956609249,0.0161879286170006,0.00641408516094089
5,1.02500007039179,0.0152777788063885,0.0680555564078778,0.0540615729987621,0.0167987942695618,0.00152716308366507
5,1.02777785415829,0.0208333341834404,0.0680555564078778,0.0729983970522881,0.0259617734700441,-0.00152716308366507
5,1.01944450285877,0.026388891079988,0.0638888929140799,0.0659734457731247,0.0241291765123606,-0.00671951752156019
5,1.01805561097552,0.0361111129898289,0.0708333340964038,0.0632245540618896,0.0186313893646002,0.00916297826915979
5,1.01666671909226,0.0361111129898289,0.0708333340964038,0.0372627787292004,0.0201585534960032,0.00885754637420177
5,1.01944450285877,0.0388888906783549,0.0638888929140799,0.0146607663482428,0.00794124789535999,0.0027488935738802
5,1.02500007039179,0.0347222241455659,0.0722222259796579,0.00549778714776039,0.0192422550171614,-0.00244346098043024
5,1.02500007039179,0.033333335301303,0.0625000010308258,0.00519235478714108,0.021685715764761,-0.00641408516094089
5,1.02222228662528,0.0375000018340919,0.0722222259796579,0.00397062394768,0.0253509078174829,-0.00763581553474069
5,1.02361117850853,0.0375000018340919,0.0708333340964038,0.0021380283869803,0.0213802829384804,-0.00641408516094089
5,1.02638896227504,0.0458333348996699,0.0680555564078778,0.00610865233466029,0.0213802829384804,-0.00397062394768
5,1.01666671909226,0.052777782159976,0.0777777813567098,0.0149661982432008,0.0262672062963247,-0.00946841109544039
5,1.01666671909226,0.0569444456537738,0.0750000036681839,0.00641408516094089,0.00885754637420177,-0.00488692196086049
5,1.01666671909226,0.0611111152255539,0.0750000036681839,-0.00794124789535999,0.0109955742955208,-0.00641408516094089
5,1.01805561097552,0.0625000010308258,0.0847222225390337,-0.013744467869401,0.00946841109544039,-0.0100792767480016
5,1.01111115155925,0.055555559848502,0.0916666697993398,-0.0207694191485643,0.00946841109544039,-0.00641408516094089
5,1.0125000434425,0.0638888929140799,0.0916666697993398,-0.0302378293126821,-0.0100792767480016,-0.00244346098043024
5,1.01111115155925,0.0625000010308258,0.0986111170596459,-0.0335975885391235,-0.015577063895762,-0.00122173049021512
5,1.01666671909226,0.0583333375370279,0.0958333393711199,-0.027488935738802,-0.00916297826915979,0.00824668072164059
5,1.02083339474202,0.0458333348996699,0.0847222225390337,-0.0387899428606033,-0.0113010071218014,0.000610865245107561
5,1.02500007039179,0.0416666683668809,0.0888888921108138,-0.0213802829384804,-0.00366519158706069,-0.0033597587607801
5,1.01805561097552,0.0388888906783549,0.0875000002275597,-0.013744467869401,-0.000610865245107561,-0.000610865245107561
5,1.02500007039179,0.030555557612777,0.0847222225390337,-0.000916297896765172,0.00671951752156019,-0.00427605677396059
5,1.02222228662528,0.0250000007162294,0.0888888921108138,0.0125227374956012,0.0106901414692402,-0.00244346098043024
5,1.02222228662528,0.0361111129898289,0.0875000002275597,0.0213802829384804,0.0177150927484035,0.00122173049021512
5,1.02222228662528,0.0388888906783549,0.0861111144222878,0.0201585534960032,0.0354301854968071,-0.0109955742955208
5,1.01944450285877,0.0458333348996699,0.0791666671619817,0.0222965814173222,0.0143553335219622,0.00305432616733015
5,1.01527782720901,0.0486111125881959,0.0777777813567098,0.00702495034784079,0.00549778714776039,0.00763581553474069
5,1.01944450285877,0.055555559848502,0.0847222225390337,-0.01191187184304,-0.00244346098043024,-0.0021380283869803
5,1.02500007039179,0.0541666679652478,0.0777777813567098,-0.0222965814173222,-0.00122173049021512,-0.00152716308366507
5,1.01944450285877,0.0486111125881959,0.0680555564078778,-0.0436768643558025,-0.00366519158706069,-0.0100792767480016
5,1.01944450285877,0.0472222237439329,0.0750000036681839,-0.0491746515035629,-0.013744467869401,-0.000610865245107561
5,1.01944450285877,0.0444444460554069,0.0638888929140799,-0.0592539273202419,-0.0131336031481624,-0.0161879286170006
5,1.01944450285877,0.0430555572111439,0.0750000036681839,-0.0620028227567673,-0.0152716310694814,-0.00794124789535999
5,1.02777785415829,0.0444444460554069,0.0736111117849297,-0.0726929605007172,-0.00763581553474069,-0.00610865233466029
5,1.02777785415829,0.0458333348996699,0.0750000036681839,-0.0836885422468185,0.0027488935738802,-0.01588249579072
5,1.02222228662528,0.03194444645704,0.0763888894734557,-0.0852157026529312,-0.00885754637420177,-0.0222965814173222
5,1.01805561097552,0.03194444645704,0.0750000036681839,-0.0809396430850029,-0.0146607663482428,-0.0186313893646002
5,1.02083339474202,0.029166668768514,0.0722222259796579,-0.0705549344420433,-0.0259617734700441,-0.00549778714776039
5,1.02083339474202,0.0250000007162294,0.0750000036681839,-0.0387899428606033,-0.0335975885391235,-0.00366519158706069
5,1.02500007039179,0.030555557612777,0.0750000036681839,-0.029626963660121,-0.0293215326964855,0.0103847095742822
5,1.02500007039179,0.030555557612777,0.0750000036681839,-0.0284052342176437,-0.0198531206697226,0.0171042270958424
5,1.01944450285877,0.030555557612777,0.0652777787193518,-0.027488935738802,-0.0134390350431204,0.0189368221908808
5,1.02222228662528,0.030555557612777,0.0680555564078778,-0.0262672062963247,-0.0146607663482428,0.00763581553474069
5,1.02222228662528,0.030555557612777,0.0680555564078778,-0.0192422550171614,-0.0103847095742822,0.0125227374956012
5,1.02222228662528,0.027777779924251,0.0722222259796579,-0.00733038317412138,-0.00977384392172098,0.000610865245107561
5,1.02638896227504,0.029166668768514,0.0625000010308258,0.00244346098043024,-0.000916297896765172,-0.000610865245107561
5,1.02777785415829,0.03194444645704,0.0638888929140799,0.0021380283869803,0.00427605677396059,-0.0027488935738802
5,1.02500007039179,0.0361111129898289,0.0680555564078778,0.00427605677396059,0.0113010071218014,-0.00610865233466029
5,1.02222228662528,0.0347222241455659,0.0680555564078778,0.000305432622553781,0.000610865245107561,-0.00580321997404099
5,1.02083339474202,0.0361111129898289,0.0652777787193518,0.0045814891345799,-0.00519235478714108,-0.00580321997404099
5,1.02222228662528,0.033333335301303,0.0611111152255539,0.00549778714776039,-0.00977384392172098,0.00488692196086049
5,1.02500007039179,0.03194444645704,0.0652777787193518,0.0268780700862408,0.00122173049021512,0.00122173049021512
5,1.02916674604155,0.030555557612777,0.0708333340964038,0.0293215326964855,0.00397062394768,0.00855211354792118
5,1.02083339474202,0.03194444645704,0.0652777787193518,0.0253509078174829,-0.000916297896765172,0.00244346098043024
5,1.02083339474202,0.029166668768514,0.0680555564078778,0.0384845100343227,0.0045814891345799,0.0100792767480016
5,1.02638896227504,0.029166668768514,0.0611111152255539,0.0461203269660473,0.0033597587607801,-0.000916297896765172
5,1.02777785415829,0.029166668768514,0.0680555564078778,0.0433714315295219,0.0113010071218014,0.0021380283869803
5,1.02500007039179,0.03194444645704,0.0694444482911319,0.0406225398182869,0.00916297826915979,0.0027488935738802
5,1.02222228662528,0.0388888906783549,0.0722222259796579,0.0394008085131645,0.0207694191485643,-0.00122173049021512
5,1.02222228662528,0.0430555572111439,0.0750000036681839,0.0329867228865623,0.0113010071218014,-0.00702495034784079
5,1.02222228662528,0.0430555572111439,0.0625000010308258,0.0308486949652433,0.01191187184304,-0.00366519158706069
5,1.02500007039179,0.0416666683668809,0.0680555564078778,0.0308486949652433,0.0100792767480016,0.00702495034784079
5,1.02222228662528,0.0458333348996699,0.0750000036681839,0.0339030213654041,0.0122173046693206,0.00946841109544039
5,1.02222228662528,0.0458333348996699,0.0722222259796579,0.0222965814173222,0.00641408516094089,0.0100792767480016
5,1.01944450285877,0.0444444460554069,0.0694444482911319,0.0140499006956816,0.00427605677396059,0.00488692196086049
5,1.02361117850853,0.0486111125881959,0.0694444482911319,0.0021380283869803,0.00519235478714108,0.00885754637420177
5,1.02361117850853,0.0472222237439329,0.0722222259796579,0.000610865245107561,-0.000305432622553781,0.00733038317412138
5,1.02500007039179,0.0416666683668809,0.0652777787193518,-0.00427605677396059,0.000305432622553781,0.00916297826915979
5,1.02222228662528,0.0430555572111439,0.0638888929140799,-0.00702495034784079,-0.00305432616733015,0.00244346098043024
5,1.01944450285877,0.033333335301303,0.0611111152255539,-0.0131336031481624,-0.0021380283869803,-0.00305432616733015
5,1.02916674604155,0.0375000018340919,0.0666666706026059,-0.00122173049021512,0.00397062394768,0.0106901414692402
5,1.02638896227504,0.0347222241455659,0.0722222259796579,0.0109955742955208,-0.00244346098043024,-0.00397062394768
5,1.02222228662528,0.033333335301303,0.0722222259796579,0.00152716308366507,-0.00122173049021512,0.00122173049021512
5,1.02361117850853,0.0388888906783549,0.0652777787193518,-0.000610865245107561,-0.0045814891345799,-0.00305432616733015
5,1.02222228662528,0.0361111129898289,0.0722222259796579,0.00977384392172098,0.00488692196086049,0.00244346098043024
5,1.02222228662528,0.0375000018340919,0.0569444456537738,0.0113010071218014,0.00519235478714108,-0.00488692196086049
5,1.02222228662528,0.0375000018340919,0.0652777787193518,0.0180205255746841,0.00244346098043024,-0.00702495034784079
5,1.02222228662528,0.030555557612777,0.0777777813567098,0.0131336031481624,0.000916297896765172,-0.00244346098043024
5,1.02500007039179,0.03194444645704,0.0625000010308258,0.0241291765123606,0.00702495034784079,0.000916297896765172
5,1.02500007039179,0.03194444645704,0.0652777787193518,0.0299323964864016,0.00183259579353034,-0.00519235478714108
5,1.02916674604155,0.0361111129898289,0.0680555564078778,0.029626963660121,0.00183259579353034,-0.0122173046693206
5,1.02638896227504,0.0361111129898289,0.0638888929140799,0.0308486949652433,0.00427605677396059,-0.00733038317412138
5,1.02083339474202,0.0388888906783549,0.0652777787193518,0.0332921557128429,0.0021380283869803,-0.00397062394768
5,1.02222228662528,0.0416666683668809,0.0694444482911319,0.0412334054708481,-0.0045814891345799,-0.00733038317412138
5,1.02222228662528,0.0361111129898289,0.0680555564078778,0.0406225398182869,0.00397062394768,-0.00977384392172098
5,1.02222228662528,0.0375000018340919,0.0847222225390337,0.0348193198442459,0.0027488935738802,-0.00702495034784079
5,1.01805561097552,0.0402777795226179,0.0777777813567098,0.0299323964864016,-0.0027488935738802,-0.00549778714776039
5,1.01666671909226,0.0458333348996699,0.0777777813567098,0.0308486949652433,0.00305432616733015,-0.00885754637420177
5,1.02222228662528,0.0388888906783549,0.0750000036681839,0.0287106670439243,0.00977384392172098,0.000916297896765172
5,1.02222228662528,0.0375000018340919,0.0763888894734557,0.0351247526705265,-0.00183259579353034,0.00855211354792118
5,1.02222228662528,0.0361111129898289,0.0666666706026059,0.0430659987032413,0.00641408516094089,0.00397062394768
5,1.02361117850853,0.0388888906783549,0.0750000036681839,0.0455094613134861,0.013744467869401,-0.000610865245107561
5,1.02083339474202,0.0388888906783549,0.0722222259796579,0.0418442711234093,0.0146607663482428,0.00610865233466029
5,1.01944450285877,0.0416666683668809,0.0736111117849297,0.0387899428606033,0.0106901414692402,0.000916297896765172
5,1.02222228662528,0.0416666683668809,0.0777777813567098,0.0381790772080422,0.0021380283869803,-0.000610865245107561
5,1.02222228662528,0.0416666683668809,0.0777777813567098,0.0284052342176437,0.00641408516094089,0.000305432622553781
5,1.02222228662528,0.0430555572111439,0.0777777813567098,0.0320704244077206,0.00855211354792118,-0.0021380283869803
5,1.02222228662528,0.0430555572111439,0.0777777813567098,0.0253509078174829,0.00580321997404099,-0.00427605677396059
5,1.02083339474202,0.0472222237439329,0.0708333340964038,0.00702495034784079,0.00580321997404099,-0.011606439948082
5,1.01805561097552,0.0472222237439329,0.0819444448505077,0.0033597587607801,0.00488692196086049,-0.015577063895762
5,1.01805561097552,0.0472222237439329,0.0819444448505077,-0.00305432616733015,-0.000610865245107561,-0.00641408516094089
5,1.01944450285877,0.0430555572111439,0.0777777813567098,-0.00427605677396059,0.0113010071218014,-0.00671951752156019
5,1.02500007039179,0.0430555572111439,0.0777777813567098,0.0045814891345799,0.0140499006956816,-0.00824668072164059
5,1.02222228662528,0.0430555572111439,0.0833333367337618,0.00122173049021512,0.00549778714776039,-0.0128281703218818
5,1.02083339474202,0.0513888902767219,0.0833333367337618,-0.0167987942695618,0.00427605677396059,-0.0134390350431204
5,1.01805561097552,0.0458333348996699,0.0736111117849297,-0.0186313893646002,0.0033597587607801,-0.00641408516094089
5,1.02083339474202,0.0458333348996699,0.0736111117849297,-0.0207694191485643,0.00488692196086049,-0.00549778714776039
5,1.02083339474202,0.0458333348996699,0.0736111117849297,-0.0183259565383196,0.0045814891345799,-0.00763581553474069
5,1.01944450285877,0.0458333348996699,0.0819444448505077,-0.015577063895762,0.00397062394768,-0.00610865233466029
5,1.01944450285877,0.0361111129898289,0.0750000036681839,-0.0140499006956816,0.00366519158706069,-0.0167987942695618
5,1.02361117850853,0.0375000018340919,0.0777777813567098,-0.0164933614432812,0.00152716308366507,-0.0131336031481624
5,1.02361117850853,0.0347222241455659,0.0861111144222878,-0.00641408516094089,-0.0033597587607801,-0.0131336031481624
5,1.01944450285877,0.0361111129898289,0.0833333367337618,-0.00977384392172098,0.00122173049021512,-0.00885754637420177
5,1.02500007039179,0.0444444460554069,0.0736111117849297,-0.000610865245107561,-0.00122173049021512,-0.00519235478714108
5,1.02361117850853,0.0444444460554069,0.0805555590452358,0.00244346098043024,-0.000610865245107561,-0.00488692196086049
5,1.01944450285877,0.0472222237439329,0.0777777813567098,0.00427605677396059,0.00397062394768,-0.01191187184304
5,1.02083339474202,0.0472222237439329,0.0833333367337618,-0.0131336031481624,-0.00488692196086049,-0.000610865245107561
5,1.02500007039179,0.0486111125881959,0.0736111117849297,-0.0103847095742822,-0.00397062394768,-0.00519235478714108
5,1.02222228662528,0.0375000018340919,0.0777777813567098,0.00916297826915979,0.00366519158706069,-0.00122173049021512
5,1.02222228662528,0.0416666683668809,0.0736111117849297,0.00122173049021512,0.0021380283869803,-0.000916297896765172
5,1.02361117850853,0.0361111129898289,0.0722222259796579,0.0207694191485643,-0.00183259579353034,-0.00152716308366507
5,1.02638896227504,0.0361111129898289,0.0652777787193518,0.0186313893646002,0.00549778714776039,0.00916297826915979
5,1.02361117850853,0.0402777795226179,0.0722222259796579,0.0219911485910416,0.00794124789535999,-0.00549778714776039
5,1.02222228662528,0.0444444460554069,0.0722222259796579,0.0146607663482428,0.00824668072164059,-0.00305432616733015
5,1.01944450285877,0.0458333348996699,0.0708333340964038,0.01588249579072,0.00763581553474069,-0.00641408516094089
5,1.01944450285877,0.0458333348996699,0.0708333340964038,0.011606439948082,0.0027488935738802,-0.00244346098043024
5,1.01944450285877,0.0458333348996699,0.0875000002275597,0.00549778714776039,-0.000916297896765172,0.000610865245107561
5,1.02222228662528,0.0472222237439329,0.0750000036681839,0.00397062394768,0.00519235478714108,0.000305432622553781
5,1.02638896227504,0.0430555572111439,0.0736111117849297,0.00519235478714108,0.00122173049021512,-0.00305432616733015
5,1.02500007039179,0.0416666683668809,0.0652777787193518,0.00885754637420177,0.0027488935738802,-0.00366519158706069
5,1.02777785415829,0.0444444460554069,0.0722222259796579,0.011606439948082,0.00549778714776039,-0.00916297826915979
5,1.02222228662528,0.0486111125881959,0.0750000036681839,0.0164933614432812,0.0045814891345799,-0.0027488935738802
5,1.02361117850853,0.0444444460554069,0.0791666671619817,0.0180205255746841,0.00397062394768,0.000916297896765172
5,1.02222228662528,0.0458333348996699,0.0777777813567098,0.0171042270958424,0.00733038317412138,0.00885754637420177
5,1.01944450285877,0.0444444460554069,0.0680555564078778,0.0149661982432008,0.0045814891345799,0.000610865245107561
5,1.01944450285877,0.0486111125881959,0.0722222259796579,0.00794124789535999,-0.00122173049021512,-0.00183259579353034
5,1.02222228662528,0.0486111125881959,0.0680555564078778,-0.00794124789535999,-0.0045814891345799,0.00427605677396059
5,1.01805561097552,0.0486111125881959,0.0680555564078778,-0.0100792767480016,0.00885754637420177,0.00183259579353034
5,1.02222228662528,0.0472222237439329,0.0819444448505077,-0.000916297896765172,0.00977384392172098,-0.00488692196086049
5,1.01944450285877,0.0500000014324589,0.0819444448505077,-0.00733038317412138,0.0021380283869803,-0.000916297896765172
5,1.02222228662528,0.0458333348996699,0.0722222259796579,-0.00244346098043024,0.00488692196086049,-0.00916297826915979
5,1.02500007039179,0.0458333348996699,0.0847222225390337,0.0027488935738802,0.000305432622553781,-0.0045814891345799
5,1.02500007039179,0.0388888906783549,0.0722222259796579,0.00580321997404099,0.000305432622553781,-0.00855211354792118
5,1.02222228662528,0.0444444460554069,0.0736111117849297,0.00519235478714108,0.00488692196086049,0.00305432616733015
5,1.02361117850853,0.0458333348996699,0.0736111117849297,0.00488692196086049,0.00763581553474069,-0.00244346098043024
5,1.02500007039179,0.0444444460554069,0.0750000036681839,-0.00671951752156019,0.00702495034784079,-0.000305432622553781
5,1.02500007039179,0.0388888906783549,0.0777777813567098,0.00488692196086049,0.00397062394768,-0.000916297896765172
5,1.02500007039179,0.0402777795226179,0.0722222259796579,0.0109955742955208,0.00397062394768,-0.0045814891345799
5,1.02222228662528,0.0416666683668809,0.0750000036681839,0.00549778714776039,0.00855211354792118,-0.00671951752156019
5,1.02083339474202,0.0458333348996699,0.0666666706026059,0.0125227374956012,0.00702495034784079,0.00183259579353034
5,1.02083339474202,0.0416666683668809,0.0694444482911319,0.013744467869401,0.0021380283869803,0.00610865233466029
5,1.01944450285877,0.0416666683668809,0.0722222259796579,0.0134390350431204,0.00397062394768,0.00702495034784079
5,1.02361117850853,0.0458333348996699,0.0777777813567098,0.0161879286170006,0.000916297896765172,-0.0033597587607801
5,1.02500007039179,0.0458333348996699,0.0805555590452358,0.00641408516094089,0.0100792767480016,-0.0045814891345799
5,1.02361117850853,0.0486111125881959,0.0694444482911319,0.00427605677396059,0.0027488935738802,0.00549778714776039
5,1.02361117850853,0.0430555572111439,0.0680555564078778,0.0140499006956816,-0.000305432622553781,0.00152716308366507
5,1.02500007039179,0.0458333348996699,0.0833333367337618,0.0183259565383196,-0.00610865233466029,0.00397062394768
5,1.01944450285877,0.0430555572111439,0.0777777813567098,0.0241291765123606,-0.00641408516094089,0.00671951752156019
5,1.01944450285877,0.0458333348996699,0.0861111144222878,0.0143553335219622,-0.00366519158706069,0.0027488935738802
5,1.02083339474202,0.0458333348996699,0.0875000002275597,0.0229074470698834,0.00152716308366507,0.00641408516094089
5,1.02361117850853,0.0458333348996699,0.0833333367337618,0.0204639863222837,0.00977384392172098,-0.00366519158706069
5,1.01944450285877,0.0458333348996699,0.0694444482911319,0.0201585534960032,0.00794124789535999,-0.00183259579353034
5,1.01944450285877,0.0458333348996699,0.0722222259796579,0.0161879286170006,0.00549778714776039,0.0021380283869803
5,1.02638896227504,0.0388888906783549,0.0763888894734557,0.0180205255746841,0.00519235478714108,-0.00855211354792118
5,1.02222228662528,0.0388888906783549,0.0750000036681839,0.0222965814173222,0.00763581553474069,-0.00946841109544039
5,1.02500007039179,0.0402777795226179,0.0680555564078778,0.0183259565383196,0.00824668072164059,-0.00733038317412138
5,1.01944450285877,0.0430555572111439,0.0722222259796579,0.0167987942695618,0.0045814891345799,-0.013744467869401
5,1.02083339474202,0.0458333348996699,0.0680555564078778,0.0122173046693206,0.00152716308366507,-0.0149661982432008
5,1.02222228662528,0.0472222237439329,0.0736111117849297,-0.00855211354792118,0.00397062394768,-0.00763581553474069
5,1.02500007039179,0.0486111125881959,0.0666666706026059,-0.00794124789535999,0.000305432622553781,-0.00916297826915979
5,1.02500007039179,0.0458333348996699,0.0750000036681839,-0.00610865233466029,0.00152716308366507,0.00122173049021512
