Activity,acc_x,acc_y,acc_z,gyro_x,gyro_y,gyro_z
0,0.462500024646461,0.055555559848502,0.883333390043015,0.0198531206697226,0.0271835029125214,-0.0143553335219622
0,0.463888916529715,0.0611111152255539,0.894444525109048,0.0259617734700441,0.0381790772080422,-0.00733038317412138
0,0.469444484062732,0.0625000010308258,0.895833319744586,0.0335975885391235,0.02382374368608,0.000916297896765172
0,0.469444484062732,0.055555559848502,0.883333390043015,0.0299323964864016,0.0189368221908808,-0.00427605677396059
0,0.459722240879953,0.0625000010308258,0.884722281926269,0.0259617734700441,0.017409659922123,-0.0140499006956816
0,0.462500024646461,0.055555559848502,0.888888957576031,0.0143553335219622,0.0369573459029198,-0.0161879286170006
0,0.466666700296224,0.0513888902767219,0.886111173809523,0.01588249579072,0.0326812900602817,-0.0125227374956012
0,0.463888916529715,0.0444444460554069,0.880555606276507,0.0189368221908808,0.0235183127224445,0.00549778714776039
0,0.463888916529715,0.052777782159976,0.877777822509998,0.00122173049021512,-0.01588249579072,0.0180205255746841
0,0.463888916529715,0.052777782159976,0.877777822509998,0.00122173049021512,-0.0164933614432812,0.00702495034784079
0,0.462500024646461,0.0541666679652478,0.880555606276507,-0.00824668072164059,-0.021685715764761,0.0140499006956816
0,0.462500024646461,0.0597222233422998,0.884722281926269,-0.0164933614432812,-0.015577063895762,0.0290160998702049
0,0.461111132763207,0.0597222233422998,0.880555606276507,0.013744467869401,0.0122173046693206,0.0143553335219622
0,0.463888916529715,0.0583333375370279,0.901388887277602,0.0293215326964855,0.0546724386513233,-0.00977384392172098
0,0.466666700296224,0.0541666679652478,0.894444525109048,0.0241291765123606,0.0433714315295219,-0.0161879286170006
0,0.459722240879953,0.0541666679652478,0.894444525109048,0.0335975885391235,0.0131336031481624,-0.0021380283869803
0,0.466666700296224,0.0625000010308258,0.887500065692777,0.00763581553474069,0.00580321997404099,-0.00427605677396059
0,0.46527780841297,0.0583333375370279,0.898611103511094,0.0207694191485643,0.00152716308366507,0.00305432616733015
0,0.46527780841297,0.0583333375370279,0.898611103511094,0.0171042270958424,0.00824668072164059,-0.0146607663482428
0,0.473611111088636,0.055555559848502,0.906944454810619,0.0427605658769607,-0.0131336031481624,-0.00122173049021512
0,0.469444484062732,0.0611111152255539,0.904166671044111,0.0363464802503586,-0.0229074470698834,-0.00794124789535999
0,0.46527780841297,0.0569444456537738,0.911111130460381,0.0284052342176437,-0.0290160998702049,-0.00885754637420177
0,0.463888916529715,0.055555559848502,0.89166674134254,0.021685715764761,-0.0470366254448891,-0.0128281703218818
0,0.466666700296224,0.0486111125881959,0.886111173809523,0.0140499006956816,-0.0021380283869803,-0.017409659922123
0,0.466666700296224,0.0486111125881959,0.886111173809523,0.0161879286170006,-0.0259617734700441,-0.0100792767480016
0,0.466666700296224,0.0583333375370279,0.888888957576031,0.0247400421649218,-0.0439822971820831,0.000916297896765172
0,0.466666700296224,0.0541666679652478,0.881944498159761,0.027488935738802,-0.0433714315295219,0.011606439948082
0,0.466666700296224,0.0541666679652478,0.881944498159761,0.0314595587551594,-0.0183259565383196,-0.00610865233466029
0,0.462500024646461,0.0597222233422998,0.877777822509998,0.0207694191485643,-0.0140499006956816,-0.00519235478714108
0,0.462500024646461,0.0583333375370279,0.880555606276507,0.0027488935738802,-0.0329867228865623,-0.000305432622553781
0,0.459722240879953,0.0625000010308258,0.883333390043015,-0.00733038317412138,-0.0100792767480016,-0.000916297896765172
0,0.458333348996699,0.0597222233422998,0.89166674134254,-0.00122173049021512,-0.0339030213654041,-0.000305432622553781
0,0.46527780841297,0.0625000010308258,0.886111173809523,-0.00305432616733015,-0.0290160998702049,0.0027488935738802
0,0.463888916529715,0.0583333375370279,0.887500065692777,0.00855211354792118,-0.00427605677396059,0.0100792767480016
0,0.468055592179478,0.0597222233422998,0.893055633225794,0.0122173046693206,-0.0192422550171614,0.0241291765123606
0,0.466666700296224,0.0583333375370279,0.884722281926269,0.0152716310694814,-0.0033597587607801,0.0146607663482428
0,0.463888916529715,0.0597222233422998,0.880555606276507,0.013744467869401,0.00152716308366507,0.00946841109544039
0,0.462500024646461,0.0597222233422998,0.87500003874349,0.0213802829384804,-0.0100792767480016,0.0140499006956816
0,0.462500024646461,0.0583333375370279,0.877777822509998,0.0109955742955208,-0.0308486949652433,0.0268780700862408
0,0.46527780841297,0.0652777787193518,0.877777822509998,0.00794124789535999,-0.0128281703218818,0.0284052342176437
0,0.463888916529715,0.0638888929140799,0.879166714393253,0.00977384392172098,-0.00824668072164059,0.017409659922123
0,0.462500024646461,0.0611111152255539,0.869444471210474,-0.00152716308366507,-0.0470366254448891,0.0164933614432812
0,0.466666700296224,0.0666666706026059,0.877777822509998,-0.011606439948082,-0.0409279726445675,0.019547687843442
0,0.468055592179478,0.0583333375370279,0.884722281926269,-0.011606439948082,-0.0403171069920063,0.0186313893646002
0,0.47500000297189,0.0625000010308258,0.890277849459286,0.0232128798961639,-0.0415388382971287,0.0299323964864016
0,0.472222219205382,0.0652777787193518,0.893055633225794,0.0262672062963247,-0.0335975885391235,0.0250454749912024
0,0.477777786738398,0.0597222233422998,0.877777822509998,0.0421497002243996,-0.013744467869401,0.0210748501121998
0,0.463888916529715,0.0652777787193518,0.880555606276507,0.0568104684352875,-0.0198531206697226,0.00427605677396059
0,0.463888916529715,0.0611111152255539,0.883333390043015,0.0436768643558025,-0.00183259579353034,-0.000916297896765172
0,0.468055592179478,0.0638888929140799,0.881944498159761,0.0167987942695618,-0.0045814891345799,0.00610865233466029
0,0.473611111088636,0.0597222233422998,0.880555606276507,0.00610865233466029,-0.000305432622553781,0.00427605677396059
0,0.480555570504907,0.0638888929140799,0.881944498159761,0.0103847095742822,-0.0033597587607801,0.000305432622553781
0,0.476388894855144,0.0597222233422998,0.877777822509998,0.0161879286170006,-0.0161879286170006,0.00702495034784079
0,0.479166678621653,0.0583333375370279,0.884722281926269,0.0311541277915239,-0.0192422550171614,0.0106901414692402
0,0.477777786738398,0.0611111152255539,0.880555606276507,0.0332921557128429,-0.0384845100343227,-0.000610865245107561
0,0.488888921804431,0.0597222233422998,0.884722281926269,0.0397062413394451,-0.0033597587607801,-0.00794124789535999
0,0.476388894855144,0.0583333375370279,0.87500003874349,0.0381790772080422,0.0345138870179653,-0.011606439948082
0,0.473611111088636,0.0625000010308258,0.86805557932722,0.0265726372599602,0.0354301854968071,-0.00488692196086049
0,0.473611111088636,0.0625000010308258,0.86805557932722,0.0161879286170006,-0.0167987942695618,0.0106901414692402
0,0.469444484062732,0.0611111152255539,0.852777768611424,0.0122173046693206,0.021685715764761,0.00733038317412138
0,0.47500000297189,0.0625000010308258,0.86805557932722,0.0198531206697226,0.0427605658769607,0.00580321997404099
0,0.473611111088636,0.0652777787193518,0.877777822509998,0.0146607663482428,0.0183259565383196,0.0232128798961639
0,0.476388894855144,0.0625000010308258,0.887500065692777,0.00244346098043024,0.0226020142436027,0.019547687843442
0,0.469444484062732,0.0611111152255539,0.890277849459286,-0.000305432622553781,-0.00152716308366507,0.0161879286170006
0,0.476388894855144,0.0652777787193518,0.881944498159761,-0.0207694191485643,-0.00427605677396059,0.00641408516094089
0,0.479166678621653,0.0652777787193518,0.879166714393253,0.000916297896765172,0.00641408516094089,-0.0140499006956816
0,0.479166678621653,0.0652777787193518,0.879166714393253,0.0219911485910416,0.011606439948082,-0.0164933614432812
0,0.479166678621653,0.0597222233422998,0.895833319744586,0.00519235478714108,-0.0027488935738802,-0.0332921557128429
0,0.483333354271415,0.0597222233422998,0.895833319744586,0.00366519158706069,0.0106901414692402,-0.0259617734700441
0,0.484722246154669,0.0611111152255539,0.894444525109048,0.000305432622553781,-0.0394008085131645,-0.000305432622553781
0,0.497222224480098,0.0375000018340919,0.916666697993398,-0.0033597587607801,-0.183870434761047,0.0555887371301651
0,0.522222229754814,0.029166668768514,0.926388941176177,0.0467311926186085,-0.241291776299477,0.124921940267086
0,0.522222229754814,0.029166668768514,0.926388941176177,0.108734011650086,-0.125532805919647,0.132863193750381
0,0.523611121638068,0.0486111125881959,0.912500022343635,0.138055548071861,-0.113010071218014,0.106595985591412
0,0.513888927079148,0.104166672436698,0.869444471210474,0.146913096308708,-0.0653625801205635,0.0516181141138077
0,0.479166678621653,0.106944444047242,0.890277849459286,0.165849909186363,-0.0522289797663689,-0.0565050356090069
0,0.479166678621653,0.106944444047242,0.890277849459286,0.133779495954514,0.00122173049021512,-0.134695783257484
0,0.449999997697174,0.0777777813567098,0.843055622676362,0.120645888149738,0.0332921557128429,-0.15851953625679
0,0.449999997697174,0.0777777813567098,0.843055622676362,0.0595593601465225,0.00183259579353034,-0.113620936870575
0,0.44861110581392,0.0875000002275597,0.831944487610329,-0.103541657328606,-0.110566608607769,-0.0552833043038845
0,0.462500024646461,0.0888888921108138,0.841666730793107,-0.18539759516716,-0.124311074614525,0.00794124789535999
0,0.488888921804431,0.101388894748172,0.854166660494678,-0.251676470041275,-0.217773467302322,-0.0372627787292004
0,0.481944462388161,0.0611111152255539,0.87500003874349,-0.219300627708435,-0.200058370828629,0.0418442711234093
0,0.505555575779623,0.0222222230277034,0.880555606276507,-0.186313897371292,-0.116675265133381,0.0717766657471657
0,0.505555575779623,0.0222222230277034,0.880555606276507,-0.0888808965682983,-0.0152716310694814,0.130419731140137
0,0.572222240304247,0.027777779924251,0.915277806110144,0.0458148941397667,-0.203418120741844,0.0409279726445675
0,0.681944455962032,-0.0625000010308258,0.905555562927365,0.379652738571167,-0.11117747426033,-0.70860368013382
0,0.866666687443965,0.0361111129898289,0.975000059842355,0.398284137248993,-0.0861319974064827,-1.30664074420929
0,0.781944477060896,0.0111111115138517,0.980555627375371,0.614530444145203,-0.00519235478714108,-1.35581541061401
0,0.555555586329055,0.0166666676506515,0.947222222177272,0.710741698741913,-0.0284052342176437,-1.06534898281097
0,0.341666673922643,0.0916666697993398,0.880555606276507,0.690277755260468,0.0549778714776039,-0.803593218326569
0,0.215277779977737,0.193055558469529,0.797222239152834,0.55527651309967,0.0897971913218498,-0.5128213763237
0,0.0986111170596459,0.241666677135707,0.683333347845286,0.145996794104576,-0.0675006061792374,0.166766211390495
0,-0.0111111115138517,0.236111109602691,0.558333370095563,-0.412028610706329,-0.281303435564041,0.839023411273956
0,0.0458333348996699,0.20972223675665,0.541666667496514,-0.74159038066864,-0.64537912607193,1.31580376625061
0,0.301388906555989,0.140277788465518,0.648611148011649,-0.799622595310211,-1.06809782981873,1.41476392745972
0,0.758333363669434,0.0944444474878658,0.856944444261187,-0.415082931518555,-0.795041143894196,0.540310323238373
0,1.08194444310977,0.0583333375370279,0.994444448960196,-0.11117747426033,-0.112093769013882,-0.404392778873444
0,1.01666671909226,0.029166668768514,1.02500007039179,0.189368233084679,0.332616120576859,-0.816421389579773
0,0.836111163260091,0.0138888899621255,0.998611124609959,0.370184332132339,0.529620170593262,-0.919352173805237
0,0.670833369519857,0.0736111117849297,0.92083337364316,0.387288570404053,0.485943287611008,-0.881478548049927
0,0.470833327322128,0.156944454596674,0.825000028194058,0.223271250724793,0.251371055841446,-0.671035468578339
0,0.190277786858986,0.197222234119292,0.729166682744956,-0.0699440687894821,0.0427605658769607,-0.0565050356090069
0,0.0611111152255539,0.211111128639904,0.679166672195524,-0.40164390206337,-0.0372627787292004,0.691499471664429
0,0.17361112072783,0.200000005729836,0.688888915378302,-0.510072469711304,-0.373849540948868,1.02319931983948
0,0.42916666807222,0.150000007336368,0.773611125761372,-0.470366239547729,-0.715323209762573,1.04793930053711
0,0.715277812536273,0.0944444474878658,0.834722271376837,-0.331088960170746,-0.409585148096085,0.546724379062653
0,0.800000022919342,0.0763888894734557,0.879166714393253,-0.157908663153648,0.122478485107422,-0.10598511993885
0,0.697222266677827,0.0458333348996699,0.899999995394348,0.0433714315295219,0.326507478952408,-0.22235494852066
0,0.598611137462217,0.0416666683668809,0.870833363093728,0.0873537287116051,0.471587955951691,-0.218078896403313
0,0.52083333787156,0.0638888929140799,0.833333379493583,0.0280998013913631,0.207388743758202,0.00977384392172098
0,0.506944467662877,0.0777777813567098,0.82222224442755,-0.090408056974411,-0.0675006061792374,0.130419731140137
0,0.512500035195893,0.0902777839940679,0.827777811960566,-0.16371189057827,-0.141415297985077,0.125532805919647
0,0.519444445988306,0.10972222781375,0.887500065692777,-0.0800233483314514,-0.0647517144680023,0.0616973899304867
0,0.529166689171085,0.101388894748172,0.89722221162784,0.0613919571042061,0.126143679022789,-0.0516181141138077
0,0.516666662221798,0.0750000036681839,0.856944444261187,0.0510072484612465,0.170736834406853,-0.0647517144680023
0,0.515277818962402,0.0722222259796579,0.841666730793107,0.0678060427308083,0.0268780700862408,0.0122173046693206
0,0.52083333787156,0.0583333375370279,0.833333379493583,0.0678060427308083,0.0198531206697226,0.00763581553474069
0,0.556944478212309,0.0694444482911319,0.855555552377932,0.0656680166721344,0.105068825185299,-0.0403171069920063
0,0.551388910679293,0.0750000036681839,0.854166660494678,0.0565050356090069,0.138360977172852,-0.0620028227567673
0,0.519444445988306,0.0833333367337618,0.858333336144441,0.0693332031369209,0.140804439783096,-0.0131336031481624
0,0.512500035195893,0.0763888894734557,0.849999984844916,0.0406225398182869,0.0885754600167274,0.0177150927484035
0,0.522222229754814,0.0888888921108138,0.854166660494678,0.0354301854968071,0.0320704244077206,0.0455094613134861
0,0.530555581054339,0.100000002864918,0.859722228027695,0.0433714315295219,0.05283984541893,0.0323758572340012
0,0.531944472937593,0.101388894748172,0.861111119910949,0.0464257597923279,0.0500909499824047,0.00977384392172098
0,0.519444445988306,0.0958333393711199,0.848611190209378,0.0763581544160843,0.0198531206697226,0.00580321997404099
0,0.511111143312639,0.0958333393711199,0.841666730793107,0.0662788823246956,0.04764748737216,-0.0134390350431204
0,0.518055554105052,0.0972222251763917,0.844444514559616,0.0589484944939613,0.0552833043038845,-0.0345138870179653
0,0.512500035195893,0.0944444474878658,0.855555552377932,0.0357356183230877,0.00244346098043024,-0.037568211555481
0,0.52083333787156,0.0944444474878658,0.847222298326124,0.0546724386513233,0.0503963828086853,-0.0574213340878487
0,0.515277818962402,0.0944444474878658,0.858333336144441,0.0445931628346443,0.0977384373545647,-0.0641408488154411
0,0.515277818962402,0.0875000002275597,0.866666687443965,0.0222965814173222,0.133474051952362,-0.0723875313997269
0,0.518055554105052,0.0902777839940679,0.859722228027695,0.0021380283869803,0.0922406539320946,-0.0516181141138077
0,0.511111143312639,0.0972222251763917,0.854166660494678,0.00183259579353034,0.0314595587551594,-0.00855211354792118
0,0.513888927079148,0.0972222251763917,0.848611190209378,-0.00244346098043024,0.0433714315295219,0.00794124789535999
0,0.512500035195893,0.0972222251763917,0.861111119910949,0.0140499006956816,0.0021380283869803,-0.00244346098043024
0,0.508333359546131,0.0916666697993398,0.879166714393253,0.0106901414692402,0.0027488935738802,-0.0100792767480016
0,0.497222224480098,0.0972222251763917,0.85138887672817,0.00641408516094089,-0.00824668072164059,0.0128281703218818
0,0.502777792013115,0.0986111170596459,0.858333336144441,0.0109955742955208,-0.0448985956609249,0.0360410511493683
0,0.508333359546131,0.101388894748172,0.861111119910949,0.0122173046693206,0.0464257597923279,0.0109955742955208
0,0.509722251429385,0.101388894748172,0.849999984844916,0.0106901414692402,0.112704634666443,-0.0180205255746841
0,0.505555575779623,0.111111119697004,0.848611190209378,0.03176499158144,-0.0244346093386412,0.027488935738802
0,0.505555575779623,0.111111119697004,0.848611190209378,0.00794124789535999,-0.0189368221908808,0.00855211354792118
0,0.502777792013115,0.10972222781375,0.861111119910949,0.0033597587607801,-0.0128281703218818,-0.00610865233466029
0,0.497222224480098,0.0916666697993398,0.85138887672817,0.00763581553474069,0.0455094613134861,0.0189368221908808
0,0.50138890012986,0.101388894748172,0.844444514559616,-0.00549778714776039,0.0913243517279625,0.0244346093386412
0,0.502777792013115,0.112499999424294,0.837500055143345,-0.0522289797663689,0.0833831056952477,0.0546724386513233
0,0.509722251429385,0.1194444466846,0.87500003874349,-0.0510072484612465,-0.0357356183230877,0.0595593601465225
0,0.509722251429385,0.1194444466846,0.87500003874349,0.0253509078174829,-0.207388743758202,0.0467311926186085
0,0.509722251429385,0.1194444466846,0.87500003874349,0.0253509078174829,-0.207388743758202,0.0467311926186085
0,0.516666662221798,0.0986111170596459,0.84583340644287,0.0604756586253643,0.10567969083786,-0.090408056974411
0,0.516666662221798,0.0986111170596459,0.84583340644287,0.0833831056952477,0.114537231624126,-0.0754418596625328
0,0.506944467662877,0.102777780553444,0.848611190209378,0.104152522981167,0.133779495954514,-0.0705549344420433
0,0.506944467662877,0.105555564319952,0.843055622676362,0.0940732508897781,0.139582708477974,-0.0852157026529312
0,0.513888927079148,0.102777780553444,0.848611190209378,0.135917514562607,0.0626136884093285,-0.0956004112958908
0,0.534722256704101,0.113888891307548,0.863888903677457,0.213802829384804,0.129503428936005,-0.126449108123779
0,0.543055559379768,0.130555557438704,0.879166714393253,0.335059583187103,0.0809396430850029,-0.180510684847832
0,0.530555581054339,0.136111112815755,0.866666687443965,0.452651143074036,-0.141720741987228,-0.211970239877701
0,0.495833332596844,0.140277788465518,0.833333379493583,0.455400049686432,-0.286801218986511,-0.259312301874161
0,0.479166678621653,0.14583334384257,0.790277828360421,0.283136039972305,-0.188757359981537,-0.303905457258224
0,0.486111138037923,0.15555556271342,0.751388904253164,0.0180205255746841,-0.0387899428606033,-0.391870051622391
0,0.486111138037923,0.15555556271342,0.751388904253164,-0.142331600189209,-0.31703907251358,-0.415693789720535
0,0.598611137462217,0.123611110178398,0.68472223972854,0.0928515195846558,-0.0167987942695618,-0.432492583990097
0,0.325000019947452,0.0777777813567098,0.877777822509998,-0.00733038317412138,0.120951317250729,-0.00305432616733015
0,0.325000019947452,0.0777777813567098,0.877777822509998,0.64049220085144,-0.289244681596756,0.219606056809425
0,0.590277786162692,0.17361112072783,0.745833336720147,0.531452775001526,0.0937678143382072,-0.177456349134445
0,0.495833332596844,0.143055560076062,0.666666693870094,0.0345138870179653,0.693026602268219,-0.639881372451782
0,0.495833332596844,0.143055560076062,0.666666693870094,0.0671951770782471,0.253509074449539,-0.364991992712021
0,0.368055571080613,0.154166670830166,0.637500012945616,0.0952949747443199,-0.0675006061792374,0.102319926023483
0,0.390277792588821,0.163888889701015,0.601388921228725,-0.0620028227567673,-0.103236228227615,0.321620553731918
0,0.390277792588821,0.163888889701015,0.601388921228725,-0.394008070230484,0.136222943663597,0.267558991909027
0,0.466666700296224,0.158333334323963,0.590277786162692,-0.691193997859955,-0.0161879286170006,0.263588339090347
0,0.466666700296224,0.158333334323963,0.590277786162692,-0.899804532527924,-0.418748140335083,0.531147301197052
0,0.400000011459671,0.126388893944906,0.634722229179108,-0.972192049026489,-0.282525181770325,0.709825396537781
0,0.411111122213775,0.148611115453114,0.738888925927735,-1.07359564304352,0.424245923757553,0.545502662658691
0,0.452777781463682,0.150000007336368,0.800000022919342,-0.923628270626068,0.74464476108551,0.36529740691185
0,0.461111132763207,0.113888891307548,0.82222224442755,-0.572380721569061,0.332310706377029,0.362853944301605
0,0.44583337067127,0.0736111117849297,0.800000022919342,-0.353080123662949,-0.647822618484497,0.656069278717041
0,0.398611119576417,0.027777779924251,0.791666671619817,-0.26969701051712,-0.478918343782425,0.776715159416199
0,0.490277813687686,0.052777782159976,0.838888947026599,-0.392786353826523,0.0555887371301651,0.467922776937485
0,0.529166689171085,0.0694444482911319,0.863888903677457,-0.379958182573318,0.314595609903336,0.124921940267086
0,0.576388915954009,0.0694444482911319,0.886111173809523,-0.376293003559113,0.115148097276688,-0.0800233483314514
0,0.522222229754814,0.0361111129898289,0.879166714393253,-0.567799270153046,0.237015709280968,0.0335975885391235
0,0.500000008246606,0.0430555572111439,0.89166674134254,-0.650266051292419,0.505796432495117,0.0733038261532784
0,0.544444451263022,0.033333335301303,0.916666697993398,-0.777326047420502,0.230601623654366,0.05283984541893
0,0.577777807837263,0.029166668768514,0.980555627375371,-0.897971928119659,-0.389732033014297,0.194866016507149
0,0.609722223904392,0.0138888899621255,1.01111115155925,-0.881173133850098,-0.903775155544281,0.267864406108856
0,0.670833369519857,0.00277777787846293,1.00555558402623,-0.937372744083405,-0.995710372924805,0.187230199575424
0,0.800000022919342,-0.0500000014324589,1.00555558402623,-0.838717997074127,-1.23303151130676,0.00488692196086049
0,0.813888941751883,-0.0875000002275597,1.00972225967599,-0.902553379535675,-1.38177716732025,0.0342084541916847
0,0.786111152710659,-0.106944444047242,1.00000001649321,-0.899804532527924,-1.39827048778534,0.105374254286289
0,0.770833341994863,-0.118055554801345,1.02638896227504,-0.542753756046295,-1.36100780963898,0.156992360949516
0,0.75694447178618,-0.113888891307548,1.04166667574312,-0.124311074614525,-1.14537239074707,0.0455094613134861
0,0.765277823085705,-0.0666666706026059,0.972222276075846,-0.0445931628346443,-0.902553379535675,-0.0791070461273193
0,0.744444493460751,-0.052777782159976,0.899999995394348,-0.173485726118088,-0.975551784038544,-0.0516181141138077
0,0.690277807261557,-0.0583333375370279,0.895833319744586,-0.0901026204228401,-1.01709067821503,0.208305045962334
0,0.723611115211939,-0.0375000018340919,0.975000059842355,0.289244681596756,-1.12826812267303,0.211664810776711
0,0.890277849459286,-0.0763888894734557,0.99583334084345,0.850629866123199,-1.4022411108017,-0.115453533828259
0,0.99583334084345,-0.251388896006557,0.798611131036088,0.726013362407684,-1.21073496341705,-0.669202864170074
0,0.85138887672817,-0.0847222225390337,0.650000039894903,-0.00946841109544039,-1.37414133548737,-0.397062420845032
0,0.805555590452358,-0.106944444047242,0.766666714968959,-0.0720821022987366,-1.57206165790558,0.0470366254448891
0,0.872222254976982,-0.118055554801345,0.858333336144441,0.919657647609711,-1.70981180667877,0.0161879286170006
0,0.934722292475701,-0.108333335930496,0.823611136310804,1.27334856986999,-1.67926859855652,-0.0592539273202419
0,1.03888889197661,-0.118055554801345,0.647222256128395,1.34115469455719,-1.90315067768097,-0.224492982029915
0,1.03888889197661,-0.159722226207217,0.545833343146276,0.922711968421936,-2.40192222595215,-0.212581098079681
0,1.0125000434425,-0.143055560076062,0.548611126912784,0.440128415822983,-2.57968401908875,-0.509461641311646
0,0.930555616825939,-0.0513888902767219,0.52083333787156,0.283441483974457,-1.68507182598114,-0.796262860298157
0,0.912500022343635,-0.0680555564078778,0.456944457113445,0.568104684352875,-1.97614908218384,-0.821308314800262
0,0.958333357243305,-0.108333335930496,0.393055576355329,0.325896620750427,-3.36556196212769,-0.406225383281708
0,0.902777779160856,-0.141666668192807,0.383333357484479,-0.116980694234371,-2.97827339172363,-0.124005645513535
0,0.902777779160856,-0.141666668192807,0.383333357484479,-0.0656680166721344,-2.16490650177002,-0.362853944301605
0,0.855555552377932,-0.0388888906783549,0.408333338447267,0.166155353188515,-1.34848499298096,-0.571769893169403
0,0.819444460661041,-0.0388888906783549,0.323611128064198,0.475558578968048,-1.60535383224487,-0.414777487516403
0,0.806944482335612,-0.100000002864918,0.170833336961321,0.33292156457901,-2.20247459411621,-0.158214092254639
0,0.695833374794573,-0.108333335930496,0.168055565350778,0.357356160879135,-2.94864654541016,0.508850753307343
0,0.548611126912784,-0.101388894748172,0.302777798439244,0.568104684352875,-2.34450078010559,0.82375180721283
0,0.548611126912784,-0.101388894748172,0.302777798439244,0.821308314800262,-1.51800012588501,0.869566679000854
0,0.548611126912784,-0.101388894748172,0.302777798439244,0.340862810611725,-0.521373510360718,0.878118813037872
0,1.05555559457566,-0.144444451959316,-0.00972222266958873,-0.74647730588913,-0.361632227897644,0.475558578968048
0,1.05555559457566,-0.144444451959316,-0.00972222266958873,-1.10566604137421,0.0699440687894821,0.0103847095742822
0,1.10555560512509,-0.102777780553444,0.125000002061652,-0.985020220279694,0.572380721569061,-0.278859972953796
0,1.10555560512509,-0.102777780553444,0.125000002061652,-0.597426235675812,0.103847093880177,-0.675616979598999
0,0.986111194908388,-0.0430555572111439,0.101388894748172,-0.405003666877747,0.00763581553474069,-0.505491018295288
0,0.82222224442755,0.0875000002275597,0.115277783190802,-0.547640681266785,-0.247094988822937,-0.200058370828629
0,0.855555552377932,0.0569444456537738,0.2194444556275,-0.288939267396927,-1.09650313854218,0.419358998537064
0,0.855555552377932,0.0569444456537738,0.2194444556275,-0.140193566679955,-1.08581292629242,0.337503045797348
0,0.855555552377932,0.0569444456537738,0.2194444556275,0.118813291192055,-0.333532422780991,-0.201280102133751
0,1.12499999424293,0.0250000007162294,0.197222234119292,0.360105067491531,-0.382401645183563,-0.396451532840729
0,1.0333333244436,-0.105555564319952,-0.0430555572111439,-0.224187538027763,-0.787099897861481,-0.0772744566202164
0,1.0125000434425,-0.0402777795226179,-0.0847222225390337,-0.390953749418259,-0.420580714941025,-0.136222943663597
0,1.03194452980806,-0.033333335301303,-0.0444444460554069,-0.386066824197769,-0.194866016507149,-0.123089343309402
0,1.02638896227504,-0.00833333382532574,0.00972222266958873,-0.270613312721252,-0.259312301874161,-0.153632611036301
0,1.00833336779274,0.0125000003581147,0.00833333382532574,-0.178983509540558,-0.577267646789551,-0.0565050356090069
0,1.04027778385987,0.0125000003581147,0.0388888906783549,0.349720358848572,-0.880562245845795,-0.0650571510195732
0,1.07777786470773,-0.03194444645704,0.03194444645704,0.430965423583984,-0.831387579441071,0.0662788823246956
0,1.01944450285877,-0.0361111129898289,-0.122222230451108,0.279470860958099,-0.853684186935425,0.258395999670029
0,1.14583337249175,-0.0222222230277034,-0.0777777813567098,0.019547687843442,-0.844521224498749,0.207694187760353
0,1.27916670154099,-0.00833333382532574,-0.0486111125881959,-0.145996794104576,-1.33412969112396,0.0601702257990837
0,1.2638888908252,0.03194444645704,-0.0986111170596459,-0.204334422945976,-1.71561503410339,-0.0021380283869803
0,1.19444449115793,0.101388894748172,-0.102777780553444,-0.275194793939591,-2.12397837638855,0.36529740691185
0,1.04722224327614,0.0638888929140799,-0.202777789496344,-0.287717521190643,-2.7458393573761,0.816115975379944
0,1.00555558402623,0.00277777787846293,-0.259722222994153,0.165239050984383,-2.29227185249329,0.591012120246887
0,0.877777822509998,0.0569444456537738,-0.262500006760661,0.324980318546295,-1.61146247386932,0.513737678527832
0,0.73055557462821,0.0541666679652478,-0.355555568443255,0.108428582549095,-0.753502309322357,0.429743707180023
0,0.633333337295854,0.0458333348996699,-0.387500008822313,-0.226325571537018,0.324064016342163,0.0592539273202419
0,0.727777790861702,-0.029166668768514,-0.327777779402031,-0.34941491484642,0.476780325174332,-0.131946891546249
0,0.862500011794203,-0.108333335930496,-0.216666671860991,-0.281914323568344,0.383928805589676,-0.187841057777405
0,0.859722228027695,-0.108333335930496,-0.223611131277262,-0.176540061831474,0.495106279850006,-0.203723564743996
0,0.941666654644256,-0.0875000002275597,-0.243055569018962,-0.262977480888367,0.778547763824463,-0.244651526212692
0,0.958333357243305,-0.0722222259796579,-0.24583335278547,0.117896988987923,0.105374254286289,-0.0980438739061356
0,1.02083339474202,-0.0777777813567098,-0.263888898643915,0.233350530266762,-0.0140499006956816,-0.0723875313997269
0,0.936111184358955,-0.0513888902767219,-0.311111125426839,0.487470477819443,0.473115146160126,-0.0339030213654041
0,0.877777822509998,-0.0736111117849297,-0.280555576931036,0.762665271759033,-0.159130394458771,0.228463605046272
0,1.12499999424293,-0.0486111125881959,-0.325000019947452,0.454178303480148,0.187230199575424,-0.0635299831628799
0,1.11527784830787,-0.0444444460554069,-0.375000006184955,0.00610865233466029,0.896750152111053,-0.414777487516403
0,0.922222265526414,-0.055555559848502,-0.308333341660331,0.076052725315094,1.26876711845398,-0.191506251692772
0,1.00000001649321,-0.0888888921108138,-0.315277801076602,-0.0271835029125214,1.51861095428467,-0.0540615729987621
0,1.03750000009336,-0.0361111129898289,-0.176388892338373,-0.230601623654366,1.40834987163544,-0.000916297896765172
0,0.969444492309338,-0.0416666683668809,-0.161111118090472,-0.154854342341423,1.20645880699158,0.0794124826788902
0,0.911111130460381,-0.029166668768514,-0.170833336961321,-0.114231802523136,1.09253251552582,0.225714713335037
0,0.894444525109048,-0.03194444645704,-0.140277788465518,-0.107206851243973,1.11910510063171,0.18509216606617
0,0.611111115787646,-0.0388888906783549,-0.0986111170596459,0.798095464706421,-2.13436317443848,0.424856781959534
0,0.744444493460751,-0.190277786858986,0.1194444466846,0.336281329393387,-0.371406078338623,1.24066734313965
0,1.01666671909226,-0.00277777787846293,-0.241666677135707,-0.32284227013588,-0.397367835044861,-1.19973933696747
0,0.955555573476797,-0.136111112815755,-0.198611113846581,-0.0372627787292004,0.273362189531326,-1.32985365390778
0,0.956944465360051,-0.120833338567854,-0.161111118090472,-0.272445887327194,0.959974706172943,-1.56259334087372
0,0.82916670384382,-0.0486111125881959,-0.193055558469529,0.179288953542709,1.24799764156342,-0.901331663131714
0,0.994444448960196,0.0986111170596459,-0.197222234119292,0.181426972150803,2.18659210205078,0.132557764649391
0,1.52916675428816,0.180555567988136,-0.029166668768514,0.131030589342117,0.373849540948868,-0.157297804951668
0,1.32777782020717,0.14722222356986,0.027777779924251,0.0971275717020035,-0.584292590618134,0.0207694191485643
0,1.06388894587519,0.113888891307548,-0.0875000002275597,0.0537561401724815,-0.731816589832306,0.146913096308708
0,1.0125000434425,0.1194444466846,-0.0986111170596459,-0.017409659922123,-0.627358615398407,0.278859972953796
0,0.977777843608863,0.0597222233422998,-0.15555556271342,-0.0430659987032413,-0.197614908218384,0.217468023300171
0,1.05833337834217,-0.026388891079988,-0.159722226207217,0.0164933614432812,-0.126143679022789,0.17470745742321
0,1.04444445950963,-0.033333335301303,-0.190277786858986,0.10048733651638,0.203723564743996,0.0568104684352875
0,1.0125000434425,-0.00972222266958873,-0.197222234119292,0.132863193750381,0.662788808345795,-0.0189368221908808
0,0.926388941176177,0.00833333382532574,-0.111111119697004,0.13744467496872,0.893390417098999,0.180816113948822
0,0.983333411141879,0.0972222251763917,-0.0625000010308258,0.0534507073462009,0.599564254283905,0.355523586273193
0,1.00972225967599,0.0416666683668809,-0.0416666683668809,-0.0439822971820831,0.315817326307297,0.389121174812317
0,0.981944519258625,0.0152777788063885,-0.03194444645704,-0.0867428630590439,0.145996794104576,0.480750948190689
0,1.01527782720901,0.030555557612777,-0.00833333382532574,-0.000610865245107561,-0.253509074449539,0.691499471664429
0,0.986111194908388,0.0152777788063885,-0.0347222241455659,0.146607652306557,-0.489608496427536,0.942870497703552
0,0.981944519258625,-0.0666666706026059,-0.0791666671619817,0.299323976039886,-0.437684953212738,0.802676916122437
0,0.881944498159761,-0.0583333375370279,-0.0750000036681839,0.271835029125214,-0.0778853222727776,0.838717997074127
0,1.0361111082101,-0.100000002864918,-0.18333333959868,0.218078896403313,0.0632245540618896,0.750753402709961
0,1.0361111082101,-0.100000002864918,-0.18333333959868,0.192422553896904,1.02319931983948,0.58704149723053
0,0.934722292475701,-0.104166672436698,-0.105555564319952,0.306348919868469,0.869566679000854,0.845437526702881
0,0.929166724942685,-0.104166672436698,-0.0180555564949145,0.363464832305908,0.684474527835846,1.05435335636139
0,1.00833336779274,-0.154166670830166,0.029166668768514,0.336892187595367,0.519540905952454,0.488997638225555
0,1.15555561567453,-0.161111118090472,-0.055555559848502,0.166766211390495,0.638354182243347,0.0354301854968071
0,1.07083340529146,-0.161111118090472,-0.0416666683668809,0.204334422945976,0.874759018421173,-0.0806342139840126
0,1.03888889197661,-0.15555556271342,-0.0444444460554069,0.352469235658646,0.937372744083405,0.0855211317539215
0,1.18750003174166,-0.161111118090472,0.00555555575692586,0.207694187760353,0.563523173332214,-0.222965821623802
0,1.15138894002476,-0.15555556271342,0.0347222241455659,0.0418442711234093,0.229074463248253,-0.376598417758942
0,1.07916665934326,-0.151388899219622,0.0416666683668809,-0.0901026204228401,-0.0226020142436027,-0.339946508407593
0,0.997222232726705,-0.0916666697993398,0.055555559848502,-0.133779495954514,-0.240986332297325,-0.193338856101036
0,0.991666665193688,-0.101388894748172,0.0958333393711199,-0.156381502747536,-0.556498229503632,-0.150883719325066
0,0.893055633225794,-0.03194444645704,0.0986111170596459,-0.261450320482254,-0.587652385234833,-0.102014496922493
0,0.95000000594378,-0.0986111170596459,0.03194444645704,-0.0690277740359306,-0.673478960990906,0.150272846221924
0,1.01666671909226,-0.134722233088466,0.03194444645704,-0.0522289797663689,-0.431881725788117,0.0678060427308083
0,1.03472221632685,-0.134722233088466,-0.0638888929140799,0.0412334054708481,-0.0021380283869803,0.252898216247559
0,0.993055557076942,-0.0819444448505077,-0.0402777795226179,0.0806342139840126,0.159130394458771,0.361021369695664
0,1.02916674604155,-0.122222230451108,-0.0486111125881959,0.0348193198442459,0.295353353023529,0.249233022332191
0,1.03472221632685,-0.166666673467524,-0.0222222230277034,0.0314595587551594,0.25411993265152,-0.0204639863222837
0,1.02638896227504,-0.13750000469901,0.033333335301303,-0.114537231624126,-0.0910189226269722,-0.0907134860754013
0,1.00555558402623,-0.113888891307548,0.0402777795226179,-0.173180297017098,-0.438295811414719,-0.210443079471588
0,0.956944465360051,-0.0541666679652478,0.0111111115138517,-0.429132848978043,-0.939205288887024,-0.634688973426819
0,0.859722228027695,-0.108333335930496,-0.0375000018340919,-0.422413319349289,-0.685390830039978,-1.38849675655365
0,1.02083339474202,-0.14722222356986,0.0222222230277034,-0.08460483700037,0.122173048555851,-2.07449841499329
0,1.09583336194232,-0.170833336961321,-0.0236111118719664,0.0342084541916847,-0.224798411130905,-1.43400621414185
0,1.04305556762637,-0.0444444460554069,0.0111111115138517,0.206777885556221,-0.432798027992248,-1.21531641483307
0,0.956944465360051,0.0111111115138517,-0.0750000036681839,0.0791070461273193,-0.458759784698486,-0.913243532180786
0,0.952777789710289,0.0138888899621255,-0.0875000002275597,0.0222965814173222,-0.291382730007172,-0.647211730480194
0,1.17222222102586,0.0430555572111439,-0.120833338567854,0.19028452038765,-0.164933621883392,-0.10567969083786
0,1.15833339944103,0.0541666679652478,-0.120833338567854,0.186313897371292,0.0430659987032413,-0.0210748501121998
0,1.00277780025972,0.0500000014324589,-0.0722222259796579,0.217162594199181,0.239764615893364,0.0812450796365738
0,1.00277780025972,0.0500000014324589,-0.0722222259796579,0.295658767223358,0.460286974906921,-0.0366519130766392
0,0.825000028194058,0.0638888929140799,-0.112499999424294,0.0620028227567673,0.389426589012146,0.62002819776535
0,1.11388895642462,0.00555555575692586,-0.0680555564078778,0.0293215326964855,0.442266434431076,0.43401974439621
0,1.1652778588573,-0.0208333341834404,-0.0694444482911319,0.0720821022987366,0.668592035770416,0.361326783895493
0,1.1652778588573,-0.0208333341834404,-0.0694444482911319,0.102930791676045,0.751364231109619,0.255952537059784
0,1.04027778385987,0.00972222266958873,-0.0388888906783549,0.0641408488154411,1.02747535705566,0.196087747812271
0,1.10416671324184,0.00277777787846293,-0.0222222230277034,-0.101098194718361,1.06657075881958,-0.013744467869401
0,0.983333411141879,-0.0111111115138517,0.0194444453391775,-0.0931569486856461,0.963334500789642,-0.134390354156494
0,1.07083340529146,0.00833333382532574,0.0708333340964038,-0.129808858036995,0.474947720766068,-0.156992360949516
0,1.09861114570882,0.00833333382532574,0.0916666697993398,-0.0653625801205635,0.152410879731178,-0.105374254286289
0,1.02916674604155,0.00277777787846293,0.0902777839940679,-0.0027488935738802,0.021685715764761,-0.291688144207001
0,1.00000001649321,-0.00555555575692586,0.0666666706026059,0.064446285367012,-0.096211276948452,-0.324674874544144
0,1.02916674604155,0.0152777788063885,0.0472222237439329,0.168293371796608,-0.196393176913261,-0.22174409031868
0,1.01666671909226,0.0125000003581147,0.0875000002275597,0.0143553335219622,-0.450818538665771,-0.262977480888367
0,1.00138890837647,0.033333335301303,0.0722222259796579,-0.0635299831628799,-0.530536472797394,-0.22204951941967
0,1.02083339474202,0.0402777795226179,0.03194444645704,-0.0775798857212067,-0.153632611036301,-0.200058370828629
0,1.02500007039179,0.0388888906783549,0.00972222266958873,-0.0546724386513233,0.0687223374843597,-0.229379892349243
0,1.06111116210868,0.0208333341834404,0.0347222241455659,0.120645888149738,0.209526777267456,-0.0100792767480016
0,1.04861113515939,0.0375000018340919,-0.0388888906783549,0.0665843114256859,0.107817716896534,-0.0470366254448891
0,1.03194452980806,0.0347222241455659,0.00833333382532574,0.0919352173805237,0.0650571510195732,0.000610865245107561
0,1.03472221632685,0.0430555572111439,0.0250000007162294,0.0980438739061356,0.0485637858510017,0.00977384392172098
0,1.02916674604155,0.0402777795226179,0.0513888902767219,0.0748309940099716,-0.0959058403968811,0.0210748501121998
0,1.03472221632685,0.0472222237439329,0.0888888921108138,0.0595593601465225,-0.499382346868515,0.0858265683054924
0,1.14861115625826,0.148611115453114,-0.508333359546131,-0.230296194553375,-0.293520748615265,0.383623361587524
0,1.06250005399193,0.0680555564078778,0.115277783190802,-0.212581098079681,-1.86924767494202,0.364381104707718
0,1.09861114570882,0.03194444645704,0.111111119697004,-0.268169850111008,-2.16521191596985,0.569937288761139
0,1.09861114570882,0.03194444645704,0.111111119697004,-0.0565050356090069,1.25807702541351,0.437074095010758
0,1.09861114570882,0.03194444645704,0.111111119697004,0.310014098882675,4.49902248382568,0.521373510360718
0,1.17361111290911,-0.0458333348996699,-0.436111127488491,-0.156381502747536,4.53445291519165,0.578794836997986
0,0.870833363093728,-0.027777779924251,0.647222256128395,0.0415388382971287,-0.415388375520706,-0.136833816766739
0,0.633333337295854,0.00833333382532574,0.318055560531181,-0.058643065392971,-0.400116741657257,-0.0717766657471657
0,1.08750001064279,-0.0361111129898289,0.0513888902767219,-0.0464257597923279,0.298102229833603,0.0335975885391235
0,0.994444448960196,-0.00277777787846293,0.108333335930496,0.0308486949652433,-0.00763581553474069,0.0690277740359306
0,0.99583334084345,-0.0152777788063885,0.14722222356986,0.0342084541916847,-0.0314595587551594,0.0271835029125214
0,1.02222228662528,-0.0180555564949145,0.118055554801345,0.0033597587607801,-0.0891863256692886,-0.00794124789535999
0,1.02500007039179,-0.0208333341834404,0.113888891307548,-0.000916297896765172,-0.133168622851372,-0.0442877300083637
0,1.0305556379248,-0.026388891079988,0.104166672436698,0.00763581553474069,-0.107512280344963,-0.0400116741657257
0,1.02500007039179,-0.0180555564949145,0.0944444474878658,0.00824668072164059,-0.0290160998702049,-0.0213802829384804
0,1.01388893532575,-0.0152777788063885,0.0944444474878658,0.00763581553474069,-0.0171042270958424,-0.00916297826915979
0,1.00694447590948,-0.0180555564949145,0.0888888921108138,0.0400116741657257,-0.0433714315295219,-0.00610865233466029
0,1.02083339474202,-0.026388891079988,0.0861111144222878,0.0400116741657257,0.0128281703218818,0.0192422550171614
0,1.01111115155925,-0.026388891079988,0.101388894748172,0.0485637858510017,0.0033597587607801,0.00855211354792118
0,1.02361117850853,-0.03194444645704,0.108333335930496,0.0668897479772568,0.00549778714776039,-0.000916297896765172
0,1.0333333244436,-0.03194444645704,0.106944444047242,0.0675006061792374,0.0299323964864016,0.00397062394768
0,1.03194452980806,-0.0138888899621255,0.0916666697993398,0.0687223374843597,0.0140499006956816,0.00824668072164059
0,0.969444492309338,0.00694444498106275,0.0486111125881959,-0.0983493030071259,-0.127365410327911,0.0561996027827263
0,0.930555616825939,0.030555557612777,0.113888891307548,0.0907134860754013,-0.198225766420364,0.0534507073462009
0,0.994444448960196,0.0208333341834404,0.0902777839940679,0.0427605658769607,-0.28557950258255,0.0378736443817616
0,1.08055555122652,-0.0138888899621255,0.0500000014324589,0.03176499158144,-0.0537561401724815,-0.01191187184304
0,1.07777786470773,-0.0250000007162294,0.0763888894734557,0.0610865242779255,-0.00733038317412138,0.027488935738802
0,1.03194452980806,-0.0236111118719664,0.0833333367337618,0.0546724386513233,-0.0601702257990837,0.013744467869401
0,1.01527782720901,-0.0222222230277034,0.0861111144222878,0.0733038261532784,-0.0143553335219622,-0.0546724386513233
0,1.00416669214298,-0.00972222266958873,0.104166672436698,0.0897971913218498,0.00855211354792118,-0.105374254286289
0,1.02083339474202,-0.00555555575692586,0.0875000002275597,0.0949895456433296,-0.0971275717020035,-0.0711658000946045
0,1.01527782720901,0.0152777788063885,0.0861111144222878,0.103847093880177,-0.16951510310173,-0.0507018156349659
0,1.01944450285877,0.0166666676506515,0.0777777813567098,0.0763581544160843,-0.190895393490791,-0.0247400421649218
0,1.04305556762637,0.00972222266958873,0.0583333375370279,0.11636982858181,-0.168598800897598,0.0268780700862408
0,1.04305556762637,0.00555555575692586,0.0569444456537738,0.0647517144680023,-0.0326812900602817,0.0455094613134861
0,1.0305556379248,0.00555555575692586,0.055555559848502,-0.0390953756868839,0.0580321997404099,0.0235183127224445
0,1.01944450285877,-0.00555555575692586,0.0805555590452358,-0.13744467496872,0.078801617026329,0.0204639863222837
0,1.03194452980806,-0.0125000003581147,0.0930555616825939,-0.123394779860973,0.233961388468742,-0.0103847095742822
0,1.05416670269241,-0.0416666683668809,0.0680555564078778,-0.148745685815811,0.296269655227661,0.0311541277915239
0,1.07222229717471,-0.0347222241455659,0.0986111170596459,-0.117591559886932,0.36987891793251,0.0363464802503586
0,1.00277780025972,-0.027777779924251,0.0888888921108138,-0.027488935738802,0.19058994948864,0.0558941699564457
0,0.940277860008718,-0.0166666676506515,0.104166672436698,-0.0183259565383196,-0.0363464802503586,0.00794124789535999
0,1.01944450285877,-0.0250000007162294,0.0986111170596459,0.017409659922123,0.0488692186772823,0.0201585534960032
0,1.02222228662528,-0.033333335301303,0.10972222781375,0.037568211555481,0.0277943685650826,0.0180205255746841
0,1.02222228662528,-0.027777779924251,0.113888891307548,0.0497855171561241,0.00794124789535999,0.0134390350431204
0,1.01805561097552,-0.0250000007162294,0.111111119697004,0.0604756586253643,0.0146607663482428,0.00946841109544039
0,1.01944450285877,-0.0222222230277034,0.118055554801345,0.0626136884093285,0.00641408516094089,0.00824668072164059
0,1.01666671909226,-0.00833333382532574,0.104166672436698,0.0503963828086853,0.00244346098043024,0.00824668072164059
0,1.02222228662528,-0.00138888893923146,0.0944444474878658,0.0210748501121998,0.00641408516094089,0.00946841109544039
0,1.02222228662528,-0.00972222266958873,0.0986111170596459,-0.0134390350431204,0.017409659922123,0.0100792767480016
0,1.02361117850853,-0.0111111115138517,0.0944444474878658,-0.02382374368608,0.0271835029125214,0.0222965814173222
0,1.01805561097552,-0.0125000003581147,0.0861111144222878,-0.0311541277915239,0.0232128798961639,0.0167987942695618
0,1.02222228662528,-0.0194444453391775,0.101388894748172,-0.0180205255746841,0.0244346093386412,0.01588249579072
0,1.02777785415829,-0.0194444453391775,0.0986111170596459,-0.0128281703218818,0.0235183127224445,0.0146607663482428
0,1.01944450285877,-0.0152777788063885,0.102777780553444,-0.000916297896765172,0.0284052342176437,0.0140499006956816
0,1.02916674604155,-0.0250000007162294,0.111111119697004,0.00427605677396059,0.0192422550171614,0.01191187184304
0,1.02916674604155,-0.0250000007162294,0.111111119697004,0.0232128798961639,0.0140499006956816,0.000916297896765172
0,1.01527782720901,-0.026388891079988,0.102777780553444,0.0210748501121998,0.00885754637420177,0.00366519158706069
0,1.01527782720901,-0.026388891079988,0.102777780553444,0.029626963660121,-0.0027488935738802,-0.01191187184304
0,1.01805561097552,-0.026388891079988,0.0986111170596459,0.0253509078174829,-0.00152716308366507,-0.0207694191485643
0,1.02500007039179,-0.0194444453391775,0.101388894748172,0.0171042270958424,0.00794124789535999,-0.00824668072164059
0,1.02500007039179,-0.0194444453391775,0.101388894748172,0.0241291765123606,0.00855211354792118,-0.00366519158706069
0,1.02916674604155,-0.0152777788063885,0.0986111170596459,0.0262672062963247,0.00946841109544039,-0.00183259579353034
0,1.02222228662528,-0.0194444453391775,0.100000002864918,0.0171042270958424,0.00549778714776039,-0.000610865245107561
0,1.02222228662528,-0.0194444453391775,0.101388894748172,0.00671951752156019,0.00763581553474069,0.000610865245107561
0,1.02222228662528,-0.0152777788063885,0.101388894748172,0.00733038317412138,0.00885754637420177,-0.00733038317412138
0,1.01666671909226,-0.0152777788063885,0.0944444474878658,0.00397062394768,0.00122173049021512,0.00152716308366507
0,1.01944450285877,-0.0152777788063885,0.105555564319952,0.00885754637420177,0.00641408516094089,0.0103847095742822
0,1.02222228662528,-0.0166666676506515,0.105555564319952,0.0210748501121998,0.00427605677396059,0.00152716308366507
0,1.01944450285877,-0.0138888899621255,0.112499999424294,0.0100792767480016,0.00488692196086049,0.00763581553474069
0,1.02222228662528,-0.00972222266958873,0.108333335930496,-0.00794124789535999,0.00855211354792118,0.0045814891345799
0,1.02083339474202,-0.0111111115138517,0.0930555616825939,-0.0210748501121998,0.00763581553474069,0.00183259579353034
0,1.01805561097552,-0.00833333382532574,0.100000002864918,-0.027488935738802,0.00977384392172098,-0.00702495034784079
0,1.02083339474202,-0.0125000003581147,0.106944444047242,-0.0109955742955208,0.00519235478714108,0.00152716308366507
0,1.01944450285877,-0.0125000003581147,0.113888891307548,-0.0161879286170006,0.00152716308366507,0.00305432616733015
0,1.01805561097552,-0.0138888899621255,0.104166672436698,-0.0201585534960032,-0.00152716308366507,0.00824668072164059
0,1.02500007039179,-0.00555555575692586,0.115277783190802,-0.0207694191485643,-0.000305432622553781,0.00610865233466029
0,1.02500007039179,-0.0180555564949145,0.104166672436698,-0.0287106670439243,0.00549778714776039,0.00397062394768
0,1.02500007039179,-0.0222222230277034,0.115277783190802,-0.0250454749912024,0.0021380283869803,-0.0113010071218014
0,1.01527782720901,-0.0236111118719664,0.122222230451108,-0.0201585534960032,-0.0167987942695618,-0.0186313893646002
0,1.00555558402623,-0.0194444453391775,0.113888891307548,-0.0403171069920063,-0.058643065392971,-0.0219911485910416
0,1.02500007039179,-0.0125000003581147,0.108333335930496,-0.0409279726445675,-0.0503963828086853,-0.0302378293126821
0,1.0333333244436,-0.0125000003581147,0.113888891307548,-0.0354301854968071,-0.0232128798961639,-0.00977384392172098
0,1.0305556379248,-0.0194444453391775,0.108333335930496,-0.0311541277915239,-0.0293215326964855,-0.0284052342176437
0,1.02222228662528,-0.0194444453391775,0.10972222781375,-0.0226020142436027,-0.0189368221908808,-0.0299323964864016
0,1.02222228662528,-0.0194444453391775,0.10972222781375,-0.0241291765123606,-0.0164933614432812,-0.0271835029125214
0,1.00833336779274,-0.0138888899621255,0.10972222781375,-0.0354301854968071,-0.037568211555481,-0.0247400421649218
0,1.0125000434425,-0.00833333382532574,0.108333335930496,-0.0503963828086853,-0.0186313893646002,-0.00733038317412138
0,1.01944450285877,-0.0125000003581147,0.111111119697004,-0.04764748737216,-0.0100792767480016,-0.0033597587607801
0,1.01944450285877,-0.0222222230277034,0.108333335930496,-0.0186313893646002,-0.0143553335219622,-0.00733038317412138
0,1.02500007039179,-0.03194444645704,0.113888891307548,0.0226020142436027,-0.0143553335219622,-0.00885754637420177
0,1.02361117850853,-0.027777779924251,0.108333335930496,0.0369573459029198,-0.00885754637420177,-0.0033597587607801
0,1.0125000434425,-0.0208333341834404,0.104166672436698,0.0485637858510017,-0.0189368221908808,0.00122173049021512
0,1.01944450285877,-0.0152777788063885,0.102777780553444,0.0464257597923279,-0.0171042270958424,0.00610865233466029
0,1.02361117850853,-0.0208333341834404,0.106944444047242,0.0629191175103188,-0.011606439948082,0.013744467869401
0,1.02361117850853,-0.0194444453391775,0.0930555616825939,0.0699440687894821,-0.00733038317412138,0.0146607663482428
0,1.01527782720901,-0.0166666676506515,0.0958333393711199,0.0711658000946045,-0.00488692196086049,0.0204639863222837
0,1.01944450285877,-0.0180555564949145,0.0972222251763917,0.0684169083833694,-0.0262672062963247,0.0241291765123606
0,1.02777785415829,-0.00833333382532574,0.0930555616825939,0.0574213340878487,-0.0229074470698834,0.00885754637420177
0,1.02916674604155,-0.00833333382532574,0.0875000002275597,0.05283984541893,-0.00794124789535999,0.00152716308366507
0,1.02500007039179,-0.00138888893923146,0.0916666697993398,0.0372627787292004,-0.0152716310694814,0.00763581553474069
0,1.02500007039179,-0.00138888893923146,0.0944444474878658,0.019547687843442,-0.00519235478714108,0.0100792767480016
0,1.01805561097552,-0.00694444498106275,0.106944444047242,0.00763581553474069,-0.017409659922123,0.0222965814173222
0,1.01944450285877,-0.0125000003581147,0.105555564319952,-0.00641408516094089,-0.0167987942695618,0.00855211354792118
0,1.02500007039179,-0.0125000003581147,0.102777780553444,0.00733038317412138,-0.00946841109544039,0.0134390350431204
0,1.02361117850853,-0.0125000003581147,0.0944444474878658,0.00580321997404099,0.00824668072164059,0.01191187184304
0,1.02222228662528,-0.0194444453391775,0.0986111170596459,-0.00305432616733015,0.00244346098043024,0.0299323964864016
0,1.02638896227504,-0.0166666676506515,0.0972222251763917,0.00580321997404099,0.00824668072164059,0.0232128798961639
0,1.02222228662528,-0.0152777788063885,0.0986111170596459,-0.000610865245107561,0.00916297826915979,0.01588249579072
0,1.01944450285877,-0.0138888899621255,0.0986111170596459,-0.00885754637420177,0.0109955742955208,0.0256563406437635
0,1.01805561097552,-0.0166666676506515,0.101388894748172,-0.00366519158706069,0.0192422550171614,0.0433714315295219
0,1.02222228662528,-0.0208333341834404,0.0944444474878658,-0.00305432616733015,0.0253509078174829,0.0473420582711697
0,1.02500007039179,-0.0194444453391775,0.0916666697993398,0.00397062394768,0.0229074470698834,0.0439822971820831
0,1.01944450285877,-0.0194444453391775,0.0972222251763917,0.0027488935738802,0.0222965814173222,0.037568211555481
0,1.01944450285877,-0.0222222230277034,0.0944444474878658,-0.00397062394768,0.00610865233466029,0.0354301854968071
0,1.0305556379248,-0.0125000003581147,0.0916666697993398,-0.0100792767480016,0.0131336031481624,0.0265726372599602
0,1.01944450285877,-0.00555555575692586,0.0875000002275597,-0.0183259565383196,0.0232128798961639,0.0418442711234093
0,1.01805561097552,-0.0125000003581147,0.0916666697993398,-0.0277943685650826,0.03176499158144,0.0510072484612465
0,1.02638896227504,-0.0125000003581147,0.0944444474878658,-0.0473420582711697,0.0470366254448891,0.0574213340878487
0,1.02638896227504,-0.0125000003581147,0.0944444474878658,-0.0629191175103188,0.0647517144680023,0.0458148941397667
0,1.02222228662528,-0.0236111118719664,0.104166672436698,-0.0696386396884918,0.0595593601465225,0.0574213340878487
0,1.0125000434425,-0.033333335301303,0.120833338567854,-0.0656680166721344,0.0659734457731247,0.0690277740359306
0,1.0125000434425,-0.033333335301303,0.120833338567854,-0.0574213340878487,0.0641408488154411,0.0763581544160843
0,1.01805561097552,-0.029166668768514,0.104166672436698,-0.0522289797663689,0.0690277740359306,0.0613919571042061
0,1.02638896227504,-0.03194444645704,0.0958333393711199,-0.0418442711234093,0.058643065392971,0.0516181141138077
0,1.02222228662528,-0.03194444645704,0.106944444047242,-0.0381790772080422,0.0574213340878487,0.0427605658769607
0,1.02083339474202,-0.0361111129898289,0.115277783190802,-0.0305432621389627,0.0171042270958424,0.0100792767480016
0,1.02500007039179,-0.0416666683668809,0.111111119697004,-0.0167987942695618,0.0253509078174829,0.0033597587607801
0,1.01527782720901,-0.0361111129898289,0.113888891307548,-0.0033597587607801,0.0250454749912024,0.0302378293126821
0,1.01944450285877,-0.03194444645704,0.115277783190802,0.00549778714776039,0.0335975885391235,0.0418442711234093
0,1.02777785415829,-0.030555557612777,0.111111119697004,0.00916297826915979,0.0610865242779255,0.0406225398182869
0,1.02638896227504,-0.030555557612777,0.108333335930496,-0.00305432616733015,0.0537561401724815,0.0427605658769607
0,1.02083339474202,-0.0486111125881959,0.113888891307548,0.00763581553474069,0.0293215326964855,0.027488935738802
0,1.00833336779274,-0.0486111125881959,0.115277783190802,0.0229074470698834,0.017409659922123,0.0201585534960032
0,1.0125000434425,-0.0444444460554069,0.113888891307548,0.0164933614432812,0.0247400421649218,0.0250454749912024
0,1.03472221632685,-0.0416666683668809,0.118055554801345,0.00702495034784079,0.02382374368608,0.00763581553474069
0,1.0333333244436,-0.0402777795226179,0.130555557438704,0.0287106670439243,0.058643065392971,0.0131336031481624
0,1.02083339474202,-0.0375000018340919,0.111111119697004,0.0244346093386412,0.0901026204228401,0.0357356183230877
0,1.01944450285877,-0.03194444645704,0.118055554801345,0.0021380283869803,0.0745255574584007,0.0342084541916847
0,1.02222228662528,-0.029166668768514,0.1194444466846,0.000610865245107561,0.0641408488154411,-0.0021380283869803
0,1.02222228662528,-0.029166668768514,0.118055554801345,-0.0177150927484035,0.0546724386513233,-0.0277943685650826
0,1.02222228662528,-0.03194444645704,0.112499999424294,-0.0470366254448891,0.0833831056952477,-0.0201585534960032
0,1.00833336779274,-0.0375000018340919,0.12916666555545,-0.0565050356090069,0.0455094613134861,-0.0100792767480016
0,1.01111115155925,-0.055555559848502,0.12916666555545,-0.0357356183230877,0.00885754637420177,-0.0265726372599602
0,1.01527782720901,-0.0513888902767219,0.118055554801345,-0.00488692196086049,0.0366519130766392,-0.0250454749912024
0,1.00833336779274,-0.0486111125881959,0.144444451959316,0.0103847095742822,0.0357356183230877,-0.0149661982432008
0,1.01527782720901,-0.0472222237439329,0.12777778582816,0.0183259565383196,-0.000610865245107561,-0.0265726372599602
0,1.02500007039179,-0.0402777795226179,0.118055554801345,0.0222965814173222,0.00641408516094089,-0.0329867228865623
0,1.02500007039179,-0.0402777795226179,0.125000002061652,0.0418442711234093,0.00824668072164059,-0.0293215326964855
0,1.01527782720901,-0.0388888906783549,0.130555557438704,0.0546724386513233,0.000305432622553781,-0.0241291765123606
0,1.00972225967599,-0.029166668768514,0.136111112815755,0.0335975885391235,-0.0354301854968071,-0.04764748737216
0,1.02500007039179,-0.0236111118719664,0.130555557438704,0.00152716308366507,-0.0574213340878487,-0.0803287774324417
0,1.0125000434425,-0.029166668768514,0.138888896582264,0.0378736443817616,-0.0192422550171614,-0.0522289797663689
0,1.02361117850853,-0.0208333341834404,0.12777778582816,0.0620028227567673,-0.0598647929728031,-0.0714712366461754
0,1.03888889197661,-0.0125000003581147,0.118055554801345,0.0226020142436027,-0.0693332031369209,-0.0971275717020035
0,1.04166667574312,-0.0125000003581147,0.10972222781375,-0.0244346093386412,-0.0751364231109619,-0.141109868884087
0,1.03472221632685,-0.0236111118719664,0.113888891307548,-0.0656680166721344,-0.139888137578964,-0.239153742790222
0,1.04861113515939,-0.03194444645704,0.106944444047242,-0.0745255574584007,-0.165239050984383,-0.309403240680695
0,0.977777843608863,-0.0208333341834404,0.1194444466846,-0.0442877300083637,-0.16401731967926,-0.364075690507889
0,0.983333411141879,-0.026388891079988,0.12916666555545,0.0436768643558025,-0.119118720293045,-0.183870434761047
0,1.05694448645892,-0.0125000003581147,0.0972222251763917,-0.0033597587607801,-0.299629390239716,-0.338113903999329
0,1.05694448645892,-0.0125000003581147,0.0972222251763917,-0.0635299831628799,-0.282525181770325,-0.442571878433227
0,1.09305557817581,0.0152777788063885,0.0708333340964038,-0.0882700309157372,-0.298407673835754,-0.541532039642334
0,0.98888888142718,0.026388891079988,0.0875000002275597,-0.0937678143382072,-0.263588339090347,-0.53328537940979
0,0.98888888142718,0.026388891079988,0.0875000002275597,0.0357356183230877,-0.0824668109416962,-0.188757359981537
0,0.869444471210474,0.033333335301303,0.106944444047242,0.0277943685650826,-0.16951510310173,0.0919352173805237
0,0.908333346693873,0.0180555564949145,0.0652777787193518,-0.112093769013882,-0.166460782289505,0.102625362575054
0,0.952777789710289,0.0458333348996699,0.0597222233422998,-0.0152716310694814,-0.106595985591412,0.154854342341423
0,1.0305556379248,0.0250000007162294,0.0819444448505077,0.0280998013913631,-0.147523954510689,0.128281697630882
0,1.05833337834217,-0.0152777788063885,0.0888888921108138,0.109955742955208,-0.259006857872009,0.029626963660121
0,1.07083340529146,-0.0194444453391775,0.0875000002275597,0.256563395261765,-0.01588249579072,-0.167377084493637
0,1.09583336194232,0.033333335301303,0.0500000014324589,0.154854342341423,0.0943786799907684,-0.165849909186363
0,1.02638896227504,0.0486111125881959,0.0611111152255539,0.064446285367012,0.0189368221908808,0.0363464802503586
0,0.968055600426084,0.0611111152255539,0.0847222225390337,-0.00122173049021512,-0.0262672062963247,0.0656680166721344
0,1.00138890837647,0.0486111125881959,0.0680555564078778,0.037568211555481,0.029626963660121,0.0418442711234093
0,1.03194452980806,0.0375000018340919,0.0680555564078778,0.0442877300083637,0.0128281703218818,0.0183259565383196
0,1.0305556379248,0.0208333341834404,0.0666666706026059,0.0888808965682983,0.000305432622553781,0.0180205255746841
0,1.02500007039179,0.0194444453391775,0.0625000010308258,0.0335975885391235,-0.0329867228865623,-0.0452040284872055
0,1.06388894587519,0.0388888906783549,0.055555559848502,-0.0381790772080422,0.0033597587607801,-0.155770644545555
0,1.10694449700835,0.0486111125881959,0.0416666683668809,-0.0769690200686455,0.0540615729987621,-0.236099421977997
0,1.08750001064279,0.0513888902767219,0.052777782159976,-0.0943786799907684,0.0351247526705265,-0.320093393325806
0,1.05277781080915,0.0513888902767219,0.0625000010308258,-0.112704634666443,0.0733038261532784,-0.303905457258224
0,1.0125000434425,0.0375000018340919,0.0750000036681839,0.00885754637420177,0.0775798857212067,-0.194255143404007
0,0.96666670854283,0.0583333375370279,0.0972222251763917,-0.0235183127224445,-0.0122173046693206,-0.153632611036301
0,0.969444492309338,0.0875000002275597,0.0583333375370279,-0.0525344125926495,0.0778853222727776,-0.0244346093386412
0,0.951388897827035,0.0222222230277034,0.101388894748172,0.213497400283814,0.0992656052112579,0.109039448201656
0,0.952777789710289,0.0500000014324589,0.100000002864918,0.141720741987228,0.00488692196086049,0.117591559886932
0,1.00694447590948,0.0458333348996699,0.0583333375370279,0.0623082555830479,0.0397062413394451,0.0922406539320946
0,1.06527783775844,0.026388891079988,0.0486111125881959,0.0381790772080422,0.0372627787292004,0.0604756586253643
0,1.06527783775844,0.00555555575692586,0.0875000002275597,0.207999616861343,0.106901414692402,0.0681114718317986
0,1.0125000434425,0.00833333382532574,0.0819444448505077,0.278554558753967,0.0974330082535744,0.101098194718361
0,0.976388951725609,0.00833333382532574,0.0888888921108138,0.306348919868469,0.0247400421649218,0.126143679022789
0,0.961111141009813,0.026388891079988,0.0916666697993398,0.31154128909111,-0.00763581553474069,0.223576679825783
0,1.0125000434425,0.029166668768514,0.102777780553444,0.339946508407593,-0.134390354156494,0.133168622851372
0,1.0513889189259,0.0430555572111439,0.0819444448505077,0.330783516168594,-0.0934623852372169,0.096211276948452
0,1.01666671909226,0.0486111125881959,0.0694444482911319,0.29107728600502,0.0125227374956012,0.178983509540558
0,0.984722303025134,0.055555559848502,0.0875000002275597,0.246484130620956,-0.0650571510195732,0.200974673032761
0,0.99583334084345,0.0625000010308258,0.0833333367337618,0.249843880534172,-0.0714712366461754,0.188451930880547
0,1.05277781080915,0.0472222237439329,0.0736111117849297,0.201280102133751,-0.0332921557128429,0.152716308832169
0,1.06250005399193,0.0388888906783549,0.0680555564078778,0.140804439783096,-0.0390953756868839,0.0931569486856461
0,1.07222229717471,0.029166668768514,0.0819444448505077,0.144775062799454,-0.0412334054708481,0.0354301854968071
0,1.07222229717471,0.0208333341834404,0.0777777813567098,0.153021737933159,-0.0390953756868839,-0.0323758572340012
0,1.05000002704265,0.029166668768514,0.0680555564078778,0.120951317250729,-0.0293215326964855,-0.0412334054708481
0,1.02083339474202,0.0236111118719664,0.0930555616825939,0.155159771442413,-0.0681114718317986,-0.0797179117798805
0,1.02777785415829,0.030555557612777,0.0888888921108138,0.133779495954514,-0.0864374339580536,-0.0977384373545647
0,1.02638896227504,0.0666666706026059,0.0625000010308258,0.0836885422468185,-0.0229074470698834,-0.0543670058250427
0,1.00416669214298,0.0819444448505077,0.0666666706026059,0.0226020142436027,-0.0241291765123606,-0.0357356183230877
0,1.00694447590948,0.0722222259796579,0.0722222259796579,0.0134390350431204,-0.0198531206697226,-0.0280998013913631
0,1.01666671909226,0.0569444456537738,0.0763888894734557,0.0268780700862408,0.000610865245107561,-0.0308486949652433
0,1.01666671909226,0.0569444456537738,0.0763888894734557,-0.00519235478714108,0.0109955742955208,-0.0161879286170006
0,1.02638896227504,0.0611111152255539,0.0583333375370279,-0.0442877300083637,0.0277943685650826,-0.00397062394768
0,1.01805561097552,0.0569444456537738,0.0777777813567098,-0.0549778714776039,0.0229074470698834,0.0045814891345799
0,1.01527782720901,0.052777782159976,0.0652777787193518,-0.0653625801205635,0.0253509078174829,0.017409659922123
0,1.02638896227504,0.0416666683668809,0.0597222233422998,-0.0977384373545647,0.0244346093386412,0.0106901414692402
0,1.04027778385987,0.0416666683668809,0.0583333375370279,-0.106595985591412,0.0241291765123606,-0.00519235478714108
0,1.03750000009336,0.0222222230277034,0.0680555564078778,-0.0937678143382072,0.00794124789535999,-0.0400116741657257
0,1.03750000009336,0.0222222230277034,0.0680555564078778,-0.0412334054708481,-0.0201585534960032,-0.0809396430850029
0,1.0333333244436,0.0250000007162294,0.0652777787193518,-0.0400116741657257,-0.00641408516094089,-0.0891863256692886
0,1.01944450285877,0.033333335301303,0.0625000010308258,-0.0696386396884918,0.015577063895762,-0.0641408488154411
0,0.998611124609959,0.0375000018340919,0.0805555590452358,-0.0665843114256859,-0.00916297826915979,-0.0421497002243996
0,1.00277780025972,0.026388891079988,0.0861111144222878,-0.0378736443817616,-0.029626963660121,-0.0406225398182869
0,1.00972225967599,0.0250000007162294,0.0750000036681839,-0.0183259565383196,-0.00977384392172098,-0.0381790772080422
0,1.02222228662528,0.0444444460554069,0.0666666706026059,-0.0284052342176437,-0.00305432616733015,-0.027488935738802
0,1.02500007039179,0.0430555572111439,0.0680555564078778,-0.0436768643558025,0.0100792767480016,-0.00885754637420177
0,1.02222228662528,0.0444444460554069,0.0833333367337618,-0.0409279726445675,0.0109955742955208,-0.00397062394768
0,1.00972225967599,0.0430555572111439,0.0722222259796579,-0.0497855171561241,0.00397062394768,0.00305432616733015
0,1.01388893532575,0.0458333348996699,0.0638888929140799,-0.0525344125926495,0.0106901414692402,0.0143553335219622
0,1.02222228662528,0.0430555572111439,0.0597222233422998,-0.0390953756868839,0.0229074470698834,0.0128281703218818
0,1.02083339474202,0.0375000018340919,0.0625000010308258,-0.03176499158144,0.00733038317412138,0.0134390350431204
0,1.02222228662528,0.03194444645704,0.0722222259796579,-0.0436768643558025,0.00702495034784079,0.0027488935738802
0,1.02222228662528,0.03194444645704,0.0680555564078778,-0.0620028227567673,0.00671951752156019,-0.00580321997404099
0,1.02500007039179,0.0375000018340919,0.0638888929140799,-0.0598647929728031,0.0033597587607801,0.000305432622553781
0,1.01944450285877,0.0388888906783549,0.0625000010308258,-0.0604756586253643,0.00427605677396059,-0.0131336031481624
0,1.01527782720901,0.0388888906783549,0.0652777787193518,-0.0513126812875271,0.00488692196086049,-0.0149661982432008
0,1.02361117850853,0.0416666683668809,0.0722222259796579,-0.0513126812875271,0.00824668072164059,-0.0149661982432008
0,1.02500007039179,0.0444444460554069,0.052777782159976,-0.0748309940099716,0.00122173049021512,-0.0280998013913631
0,1.02083339474202,0.0486111125881959,0.0666666706026059,-0.0772744566202164,0.00946841109544039,-0.0210748501121998
0,1.01805561097552,0.0444444460554069,0.0680555564078778,-0.0650571510195732,-0.00733038317412138,-0.0180205255746841
0,1.01805561097552,0.0388888906783549,0.0736111117849297,-0.0558941699564457,0.00885754637420177,-0.0131336031481624
0,1.02222228662528,0.0361111129898289,0.0652777787193518,-0.0467311926186085,0.00519235478714108,-0.00946841109544039
0,1.03194452980806,0.029166668768514,0.0736111117849297,-0.0299323964864016,0.00702495034784079,-0.0146607663482428
0,1.02222228662528,0.029166668768514,0.0652777787193518,-0.0167987942695618,-0.00305432616733015,-0.0232128798961639
0,1.01944450285877,0.033333335301303,0.0652777787193518,-0.00366519158706069,0.00244346098043024,-0.013744467869401
0,1.0125000434425,0.0388888906783549,0.0652777787193518,-0.00488692196086049,-0.00519235478714108,-0.00916297826915979
0,1.02222228662528,0.0388888906783549,0.0722222259796579,-0.00733038317412138,-0.000610865245107561,0.0033597587607801
0,1.02638896227504,0.0416666683668809,0.0722222259796579,-0.0106901414692402,0.0033597587607801,0.00855211354792118
0,1.01944450285877,0.0458333348996699,0.0680555564078778,-0.0305432621389627,0.0021380283869803,-0.00702495034784079
0,1.01944450285877,0.0388888906783549,0.0777777813567098,-0.0171042270958424,0.00824668072164059,-0.0122173046693206
0,1.02222228662528,0.0361111129898289,0.0708333340964038,-0.00549778714776039,0.0171042270958424,-0.00763581553474069
0,1.02916674604155,0.0416666683668809,0.0750000036681839,0.00183259579353034,0.0149661982432008,-0.00885754637420177
0,1.02500007039179,0.0444444460554069,0.0791666671619817,0.00397062394768,0.0189368221908808,-0.011606439948082
0,1.02361117850853,0.0541666679652478,0.0625000010308258,0.00244346098043024,0.00946841109544039,-0.0235183127224445
0,1.02361117850853,0.055555559848502,0.0666666706026059,-0.0210748501121998,0.0128281703218818,-0.0290160998702049
0,1.02222228662528,0.055555559848502,0.0597222233422998,-0.0329867228865623,0.017409659922123,-0.0293215326964855
0,1.02500007039179,0.0513888902767219,0.0583333375370279,-0.0522289797663689,0.0210748501121998,-0.0314595587551594
0,1.02222228662528,0.0486111125881959,0.0638888929140799,-0.0522289797663689,0.0167987942695618,-0.0222965814173222
0,1.02222228662528,0.0513888902767219,0.0625000010308258,-0.0574213340878487,-0.00183259579353034,-0.0219911485910416
0,1.02500007039179,0.0458333348996699,0.0680555564078778,-0.0507018156349659,-0.00610865233466029,-0.0183259565383196
0,1.02500007039179,0.0416666683668809,0.0611111152255539,-0.0378736443817616,0.0027488935738802,-0.02382374368608
0,1.01666671909226,0.0472222237439329,0.0763888894734557,-0.0345138870179653,0.011606439948082,-0.0219911485910416
0,1.01666671909226,0.0486111125881959,0.0680555564078778,-0.0507018156349659,0.00885754637420177,-0.00977384392172098
0,1.02638896227504,0.0500000014324589,0.0722222259796579,-0.0543670058250427,0.0183259565383196,-0.0177150927484035
0,1.02361117850853,0.0500000014324589,0.0777777813567098,-0.0540615729987621,0.0171042270958424,-0.0226020142436027
0,1.02361117850853,0.0472222237439329,0.0750000036681839,-0.0421497002243996,0.0125227374956012,-0.0271835029125214
0,1.02222228662528,0.0513888902767219,0.0625000010308258,-0.0421497002243996,0.0100792767480016,-0.0247400421649218
0,1.01944450285877,0.0513888902767219,0.0694444482911319,-0.0519235469400883,0.00671951752156019,-0.0287106670439243
0,1.01944450285877,0.0513888902767219,0.0694444482911319,-0.0500909499824047,0.0134390350431204,-0.021685715764761
0,1.01805561097552,0.0486111125881959,0.0750000036681839,-0.0503963828086853,0.017409659922123,-0.0213802829384804
0,1.01944450285877,0.0486111125881959,0.0694444482911319,-0.0565050356090069,0.0229074470698834,-0.0143553335219622
0,1.01805561097552,0.0513888902767219,0.0680555564078778,-0.0668897479772568,0.01588249579072,-0.0277943685650826
0,1.01805561097552,0.0500000014324589,0.0638888929140799,-0.0620028227567673,0.0177150927484035,-0.0293215326964855
0,1.02361117850853,0.0458333348996699,0.0722222259796579,-0.0464257597923279,0.0140499006956816,-0.0308486949652433
0,1.02500007039179,0.0513888902767219,0.0750000036681839,-0.0522289797663689,0.00763581553474069,-0.0308486949652433
0,1.02500007039179,0.0472222237439329,0.0777777813567098,-0.0436768643558025,0.0140499006956816,-0.0329867228865623
0,1.01805561097552,0.0569444456537738,0.0736111117849297,-0.0543670058250427,0.0192422550171614,-0.0326812900602817
0,1.01527782720901,0.055555559848502,0.0777777813567098,-0.037568211555481,0.0210748501121998,-0.0366519130766392
0,1.02222228662528,0.0500000014324589,0.0777777813567098,-0.0354301854968071,0.0109955742955208,-0.0415388382971287
0,1.02083339474202,0.0500000014324589,0.0750000036681839,-0.0418442711234093,0.0109955742955208,-0.0320704244077206
0,1.02222228662528,0.0513888902767219,0.0750000036681839,-0.0384845100343227,0.0134390350431204,-0.0293215326964855
0,1.02500007039179,0.0541666679652478,0.0750000036681839,-0.0335975885391235,0.0311541277915239,-0.0351247526705265
0,1.02777785415829,0.0597222233422998,0.0625000010308258,-0.0314595587551594,0.0403171069920063,-0.0430659987032413
0,1.01805561097552,0.055555559848502,0.0805555590452358,-0.0305432621389627,0.029626963660121,-0.0339030213654041
0,1.0125000434425,0.0541666679652478,0.0750000036681839,-0.0259617734700441,0.0226020142436027,-0.0308486949652433
0,1.01527782720901,0.0597222233422998,0.0847222225390337,-0.00916297826915979,0.0250454749912024,-0.0326812900602817
0,1.02083339474202,0.055555559848502,0.0875000002275597,-0.00733038317412138,0.0198531206697226,-0.0494800843298435
0,1.01388893532575,0.055555559848502,0.0930555616825939,-0.0302378293126821,0.0201585534960032,-0.0418442711234093
0,1.02222228662528,0.0625000010308258,0.0916666697993398,-0.0253509078174829,0.0244346093386412,-0.0427605658769607
0,1.02500007039179,0.0680555564078778,0.0861111144222878,-0.0323758572340012,0.0378736443817616,-0.0378736443817616
0,1.02777785415829,0.0666666706026059,0.0847222225390337,-0.0290160998702049,0.0357356183230877,-0.0448985956609249
0,1.01527782720901,0.0791666671619817,0.0819444448505077,-0.0662788823246956,0.0241291765123606,-0.0473420582711697
0,1.0125000434425,0.0861111144222878,0.0819444448505077,-0.113315500319004,0.0290160998702049,-0.0546724386513233
0,1.01111115155925,0.0819444448505077,0.0819444448505077,-0.118507854640484,0.0332921557128429,-0.0516181141138077
0,1.00833336779274,0.0750000036681839,0.0819444448505077,-0.112704634666443,0.0290160998702049,-0.0522289797663689
0,1.01944450285877,0.0819444448505077,0.0847222225390337,-0.0965167060494423,0.0210748501121998,-0.0555887371301651
0,1.01944450285877,0.0736111117849297,0.0763888894734557,-0.103236228227615,0.0268780700862408,-0.0445931628346443
0,1.01111115155925,0.0722222259796579,0.0597222233422998,-0.131030589342117,0.0436768643558025,-0.0363464802503586
0,1.00555558402623,0.0722222259796579,0.0736111117849297,-0.135306656360626,0.0577267669141293,-0.0277943685650826
0,0.994444448960196,0.0666666706026059,0.0847222225390337,-0.111788339912891,0.0302378293126821,-0.0109955742955208
0,1.0125000434425,0.055555559848502,0.0805555590452358,-0.0833831056952477,0.029626963660121,-0.01588249579072
0,1.04861113515939,0.0513888902767219,0.0875000002275597,-0.0949895456433296,0.0510072484612465,-0.0113010071218014
0,1.07500008094122,0.0444444460554069,0.118055554801345,-0.0580321997404099,0.0833831056952477,-0.0369573459029198
0,1.03750000009336,0.0513888902767219,0.113888891307548,-0.0510072484612465,0.0268780700862408,-0.0830776765942574
0,1.03750000009336,0.0513888902767219,0.113888891307548,-0.0461203269660473,-0.0213802829384804,-0.126449108123779
0,1.00138890837647,0.0513888902767219,0.0944444474878658,-0.017409659922123,-0.0470366254448891,-0.164322748780251
0,1.00555558402623,0.0736111117849297,0.0875000002275597,0.0192422550171614,-0.0510072484612465,-0.19058994948864
0,1.00555558402623,0.0736111117849297,0.0875000002275597,0.0180205255746841,-0.0470366254448891,-0.181426972150803
0,1.00833336779274,0.102777780553444,0.0875000002275597,-0.00427605677396059,-0.0232128798961639,-0.157908663153648
0,1.02638896227504,0.125000002061652,0.0819444448505077,-0.029626963660121,0.000610865245107561,-0.122478485107422
0,1.02638896227504,0.125000002061652,0.0819444448505077,-0.0690277740359306,0.0455094613134861,-0.0919352173805237
0,1.00694447590948,0.123611110178398,0.0986111170596459,-0.0888808965682983,0.0531452745199203,-0.0699440687894821
0,0.991666665193688,0.111111119697004,0.0972222251763917,-0.11117747426033,0.04764748737216,-0.0494800843298435
0,0.991666665193688,0.111111119697004,0.0972222251763917,-0.109955742955208,0.0467311926186085,-0.0360410511493683
0,0.99583334084345,0.100000002864918,0.115277783190802,-0.137139245867729,0.0265726372599602,-0.0323758572340012
0,0.99583334084345,0.0986111170596459,0.1194444466846,-0.161268427968025,0.00152716308366507,-0.0574213340878487
0,0.99583334084345,0.0833333367337618,0.108333335930496,-0.130114302039146,0.0280998013913631,-0.0693332031369209
0,0.987499989543926,0.0569444456537738,0.122222230451108,-0.132557764649391,0.00397062394768,-0.0445931628346443
0,1.05000002704265,0.0444444460554069,0.120833338567854,-0.0940732508897781,0.0736092627048492,-0.0027488935738802
0,1.06805562152495,0.0402777795226179,0.125000002061652,0.00244346098043024,0.106290549039841,0.0351247526705265
0,1.03888889197661,0.033333335301303,0.143055560076062,0.0565050356090069,0.0574213340878487,0.0470366254448891
0,1.00972225967599,0.0458333348996699,0.130555557438704,0.0901026204228401,0.0033597587607801,0.0161879286170006
0,1.00972225967599,0.0458333348996699,0.130555557438704,0.108428582549095,-0.0339030213654041,-0.0265726372599602
0,1.0125000434425,0.0569444456537738,0.118055554801345,0.148440256714821,-0.0394008085131645,-0.0485637858510017
0,1.01944450285877,0.106944444047242,0.118055554801345,0.127670839428902,-0.0351247526705265,-0.0922406539320946
0,1.01944450285877,0.106944444047242,0.118055554801345,0.0809396430850029,-0.0314595587551594,-0.119118720293045
0,1.02083339474202,0.151388899219622,0.0847222225390337,0.0134390350431204,0.0213802829384804,-0.10048733651638
0,0.987499989543926,0.13750000469901,0.0986111170596459,-0.0247400421649218,0.0143553335219622,-0.0699440687894821
0,0.987499989543926,0.13750000469901,0.0986111170596459,-0.0045814891345799,-0.00580321997404099,-0.0815505087375641
0,0.970833384192592,0.123611110178398,0.113888891307548,0.0335975885391235,-0.013744467869401,-0.0687223374843597
0,1.00277780025972,0.125000002061652,0.0972222251763917,0.0149661982432008,-0.015577063895762,-0.0681114718317986
0,1.00277780025972,0.125000002061652,0.0972222251763917,0.000610865245107561,0.0287106670439243,-0.0503963828086853
0,1.01666671909226,0.123611110178398,0.106944444047242,-0.00671951752156019,0.0198531206697226,-0.0455094613134861
0,1.00277780025972,0.134722233088466,0.12777778582816,-0.0171042270958424,0.0192422550171614,-0.037568211555481
0,1.00277780025972,0.134722233088466,0.12777778582816,-0.0143553335219622,0.0106901414692402,-0.0323758572340012
0,1.00138890837647,0.14722222356986,0.1194444466846,-0.0540615729987621,0.0253509078174829,-0.0186313893646002
0,1.00972225967599,0.156944454596674,0.104166672436698,-0.08460483700037,0.0287106670439243,0.00183259579353034
0,1.01111115155925,0.154166670830166,0.111111119697004,-0.0959058403968811,0.0229074470698834,0.00641408516094089
0,1.0333333244436,0.123611110178398,0.116666675074056,-0.0665843114256859,0.0623082555830479,0.027488935738802
0,1.03194452980806,0.105555564319952,0.118055554801345,-0.0464257597923279,0.0711658000946045,0.0335975885391235
0,1.00555558402623,0.111111119697004,0.130555557438704,-0.0485637858510017,0.0580321997404099,0.0186313893646002
0,0.990277773310434,0.113888891307548,0.120833338567854,-0.0510072484612465,0.0354301854968071,0.0397062413394451
0,0.973611167959101,0.125000002061652,0.134722233088466,-0.0378736443817616,0.01588249579072,0.0488692186772823
0,0.96666670854283,0.12777778582816,0.122222230451108,-0.0497855171561241,-0.00519235478714108,0.0558941699564457
0,0.976388951725609,0.136111112815755,0.112499999424294,-0.0653625801205635,-0.00152716308366507,0.0482583530247212
0,0.993055557076942,0.133333341205212,0.108333335930496,-0.0775798857212067,0.0180205255746841,0.0461203269660473
0,1.00972225967599,0.134722233088466,0.106944444047242,-0.0952949747443199,0.013744467869401,0.0442877300083637
0,1.01944450285877,0.134722233088466,0.113888891307548,-0.0956004112958908,0.0125227374956012,0.0491746515035629
0,1.02222228662528,0.130555557438704,0.130555557438704,-0.0681114718317986,0.0210748501121998,0.0503963828086853
0,1.02222228662528,0.115277783190802,0.116666675074056,-0.0387899428606033,0.027488935738802,0.0394008085131645
0,1.01944450285877,0.106944444047242,0.108333335930496,-0.00671951752156019,0.0198531206697226,0.0433714315295219
0,1.00833336779274,0.101388894748172,0.108333335930496,0.00733038317412138,0.00580321997404099,0.0320704244077206
0,1.00138890837647,0.104166672436698,0.113888891307548,0.0131336031481624,-0.0229074470698834,0.0268780700862408
0,0.98888888142718,0.0986111170596459,0.104166672436698,0.00763581553474069,-0.0271835029125214,0.0320704244077206
0,0.98888888142718,0.0944444474878658,0.120833338567854,0.0180205255746841,-0.0201585534960032,0.0277943685650826
0,1.00277780025972,0.0902777839940679,0.125000002061652,0.0403171069920063,0.0164933614432812,0.0250454749912024
0,1.01944450285877,0.0847222225390337,0.104166672436698,0.0821613743901253,0.027488935738802,0.0247400421649218
0,1.02916674604155,0.0986111170596459,0.105555564319952,0.0415388382971287,0.0226020142436027,0.0482583530247212
0,1.03472221632685,0.116666675074056,0.12777778582816,0.00122173049021512,0.00855211354792118,0.0522289797663689
0,1.02222228662528,0.115277783190802,0.120833338567854,-0.0436768643558025,-0.00824668072164059,0.0394008085131645
0,1.0125000434425,0.0986111170596459,0.118055554801345,-0.0189368221908808,-0.0198531206697226,0.0226020142436027
0,1.01527782720901,0.0888888921108138,0.108333335930496,0.0125227374956012,-0.0167987942695618,0.013744467869401
0,1.01527782720901,0.0763888894734557,0.116666675074056,0.0540615729987621,-0.0378736443817616,-0.00824668072164059
0,1.0125000434425,0.0930555616825939,0.111111119697004,0.017409659922123,-0.0510072484612465,-0.00916297826915979
0,1.0125000434425,0.0930555616825939,0.118055554801345,0.000610865245107561,-0.0348193198442459,0.00580321997404099
0,1.00833336779274,0.0944444474878658,0.1194444466846,0.0027488935738802,-0.011606439948082,0.0128281703218818
0,1.00555558402623,0.0861111144222878,0.113888891307548,0.0427605658769607,-0.0045814891345799,0.0403171069920063
0,1.00555558402623,0.0847222225390337,0.113888891307548,0.0595593601465225,0.00702495034784079,0.0522289797663689
0,1.00416669214298,0.0902777839940679,0.120833338567854,0.0668897479772568,0.0045814891345799,0.0632245540618896
0,1.00555558402623,0.0944444474878658,0.120833338567854,0.0345138870179653,-0.00519235478714108,0.058643065392971
0,1.01388893532575,0.0930555616825939,0.120833338567854,-0.0164933614432812,-0.00733038317412138,0.05283984541893
0,1.01944450285877,0.0888888921108138,0.115277783190802,-0.015577063895762,-0.00794124789535999,0.0467311926186085
0,1.02500007039179,0.0833333367337618,0.112499999424294,0.00488692196086049,-0.00397062394768,0.0189368221908808
0,1.02222228662528,0.0902777839940679,0.0916666697993398,0.013744467869401,-0.0189368221908808,-0.00152716308366507
0,1.02361117850853,0.0916666697993398,0.105555564319952,-0.0021380283869803,-0.0207694191485643,-0.00397062394768
0,1.01527782720901,0.0916666697993398,0.108333335930496,-0.0180205255746841,-0.0265726372599602,-0.0125227374956012
0,1.0125000434425,0.0875000002275597,0.105555564319952,-0.0171042270958424,-0.021685715764761,0.00244346098043024
0,1.01666671909226,0.0861111144222878,0.104166672436698,0.000305432622553781,-0.00366519158706069,0.00549778714776039
0,1.01527782720901,0.0875000002275597,0.108333335930496,0.00549778714776039,-0.00305432616733015,0.0128281703218818
0,1.01527782720901,0.105555564319952,0.105555564319952,-0.0213802829384804,0.000916297896765172,0.0201585534960032
0,1.00694447590948,0.0958333393711199,0.105555564319952,-0.0403171069920063,0.0027488935738802,0.0314595587551594
0,1.00277780025972,0.0958333393711199,0.0958333393711199,-0.0561996027827263,-0.00580321997404099,0.0222965814173222
0,1.00138890837647,0.0875000002275597,0.108333335930496,-0.0442877300083637,-0.00519235478714108,0.0167987942695618
0,1.01111115155925,0.0819444448505077,0.108333335930496,-0.0250454749912024,-0.00152716308366507,0.0250454749912024
0,1.01944450285877,0.0861111144222878,0.108333335930496,-0.0299323964864016,0.00366519158706069,0.0360410511493683
0,1.01666671909226,0.0944444474878658,0.106944444047242,-0.05283984541893,-0.0140499006956816,0.0467311926186085
0,1.02222228662528,0.0944444474878658,0.112499999424294,-0.0641408488154411,-0.0021380283869803,0.0436768643558025
0,1.02500007039179,0.0875000002275597,0.118055554801345,-0.0421497002243996,0.0244346093386412,0.0308486949652433
0,1.0125000434425,0.0777777813567098,0.118055554801345,-0.00610865233466029,0.01588249579072,0.0339030213654041
0,1.00416669214298,0.0750000036681839,0.122222230451108,0.0241291765123606,0.0180205255746841,0.037568211555481
0,1.00694447590948,0.0819444448505077,0.113888891307548,0.0320704244077206,0.00366519158706069,0.0467311926186085
0,1.0125000434425,0.0916666697993398,0.118055554801345,0.0177150927484035,-0.0033597587607801,0.0424551330506802
0,1.01666671909226,0.0916666697993398,0.116666675074056,0.0125227374956012,0.000916297896765172,0.0247400421649218
0,1.00972225967599,0.100000002864918,0.105555564319952,0.0146607663482428,0.00580321997404099,0.0143553335219622
0,1.00694447590948,0.102777780553444,0.10972222781375,0.0140499006956816,-0.000305432622553781,0.00488692196086049
0,1.00555558402623,0.105555564319952,0.111111119697004,0.00824668072164059,0.00305432616733015,0.0186313893646002
0,1.00694447590948,0.0958333393711199,0.120833338567854,-0.00946841109544039,0.0109955742955208,0.0409279726445675
0,1.01111115155925,0.0847222225390337,0.111111119697004,-0.0256563406437635,0.0027488935738802,0.0400116741657257
0,1.01527782720901,0.0722222259796579,0.111111119697004,-0.0207694191485643,0.00763581553474069,0.0394008085131645
0,1.01527782720901,0.0722222259796579,0.111111119697004,0.015577063895762,0.0183259565383196,0.037568211555481
0,1.01944450285877,0.0611111152255539,0.105555564319952,0.0394008085131645,0.029626963660121,0.0342084541916847
0,1.01944450285877,0.0722222259796579,0.108333335930496,0.0452040284872055,0.0293215326964855,0.0424551330506802
0,1.01944450285877,0.0722222259796579,0.108333335930496,0.0384845100343227,0.013744467869401,0.0287106670439243
0,1.02222228662528,0.0652777787193518,0.108333335930496,0.0470366254448891,0.00702495034784079,0.0204639863222837
0,1.02916674604155,0.0666666706026059,0.113888891307548,0.0571159012615681,0.00702495034784079,0.0219911485910416
0,1.02916674604155,0.0666666706026059,0.113888891307548,0.0635299831628799,-0.0167987942695618,0.0235183127224445
0,1.01527782720901,0.0722222259796579,0.116666675074056,0.0626136884093285,-0.0574213340878487,0.0161879286170006
0,1.01111115155925,0.0777777813567098,0.102777780553444,0.0613919571042061,-0.0494800843298435,0.0103847095742822
0,1.01111115155925,0.0777777813567098,0.102777780553444,0.0852157026529312,-0.0305432621389627,-0.00610865233466029
0,1.00555558402623,0.0750000036681839,0.0958333393711199,0.101098194718361,-0.0140499006956816,-0.00519235478714108
0,1.01388893532575,0.0722222259796579,0.0916666697993398,0.117591559886932,0.0131336031481624,0.0146607663482428
0,1.01527782720901,0.0722222259796579,0.0916666697993398,0.124616511166096,0.0122173046693206,0.01191187184304
0,1.00972225967599,0.0750000036681839,0.0944444474878658,0.098960168659687,0.00183259579353034,0.0345138870179653
0,1.0125000434425,0.0791666671619817,0.101388894748172,0.0616973899304867,-0.00702495034784079,0.0201585534960032
0,1.0125000434425,0.0833333367337618,0.108333335930496,0.0387899428606033,0.0033597587607801,0.0171042270958424
0,1.00833336779274,0.0722222259796579,0.101388894748172,0.04764748737216,0.00610865233466029,0.0192422550171614
0,1.01666671909226,0.0583333375370279,0.0944444474878658,0.0864374339580536,0.0421497002243996,0.0213802829384804
0,1.03194452980806,0.0444444460554069,0.0916666697993398,0.122783914208412,0.064446285367012,0.0354301854968071
0,1.02916674604155,0.0444444460554069,0.0986111170596459,0.11117747426033,0.0329867228865623,0.0403171069920063
0,1.01944450285877,0.0597222233422998,0.106944444047242,0.058643065392971,0.000305432622553781,0.0192422550171614
0,1.0125000434425,0.0583333375370279,0.116666675074056,0.0552833043038845,0.00244346098043024,-0.0106901414692402
0,1.00972225967599,0.052777782159976,0.108333335930496,0.0757472887635231,-0.0207694191485643,-0.0348193198442459
0,1.0125000434425,0.0472222237439329,0.113888891307548,0.143247902393341,-0.0516181141138077,-0.0470366254448891
0,1.02361117850853,0.0652777787193518,0.102777780553444,0.123394779860973,-0.0791070461273193,-0.0397062413394451
0,1.03750000009336,0.0930555616825939,0.0666666706026059,0.0705549344420433,-0.0650571510195732,-0.0293215326964855
0,1.0333333244436,0.113888891307548,0.0805555590452358,-0.0125227374956012,-0.0537561401724815,-0.0455094613134861
0,1.02638896227504,0.112499999424294,0.0875000002275597,-0.0671951770782471,-0.00305432616733015,-0.0531452745199203
0,1.00555558402623,0.0972222251763917,0.101388894748172,-0.0427605658769607,-0.00152716308366507,-0.0452040284872055
0,0.993055557076942,0.0722222259796579,0.0958333393711199,-0.00244346098043024,0.0033597587607801,-0.0369573459029198
0,1.00416669214298,0.0611111152255539,0.0958333393711199,0.0503963828086853,0.0180205255746841,-0.00244346098043024
0,1.01944450285877,0.0625000010308258,0.111111119697004,0.0458148941397667,0.0125227374956012,0.00763581553474069
0,1.00833336779274,0.0833333367337618,0.116666675074056,-0.00610865233466029,0.0125227374956012,-0.0109955742955208
0,1.00694447590948,0.0861111144222878,0.108333335930496,-0.0473420582711697,0.0106901414692402,-0.00977384392172098
0,1.01527782720901,0.0944444474878658,0.111111119697004,-0.0873537287116051,0.00152716308366507,-0.011606439948082
0,1.02222228662528,0.0847222225390337,0.118055554801345,-0.0891863256692886,0.000305432622553781,-0.0265726372599602
0,1.02500007039179,0.0777777813567098,0.116666675074056,-0.0742201283574104,-0.00488692196086049,-0.0470366254448891
0,1.01666671909226,0.0777777813567098,0.113888891307548,-0.0549778714776039,-0.0103847095742822,-0.0574213340878487
0,1.01111115155925,0.0833333367337618,0.118055554801345,-0.0427605658769607,-0.00763581553474069,-0.0452040284872055
0,1.00555558402623,0.0875000002275597,0.101388894748172,-0.0409279726445675,-0.00152716308366507,-0.0397062413394451
0,1.01111115155925,0.0916666697993398,0.0944444474878658,-0.0555887371301651,0.0146607663482428,-0.0354301854968071
0,1.00972225967599,0.0930555616825939,0.1194444466846,-0.0681114718317986,0.0277943685650826,-0.0134390350431204
0,1.00277780025972,0.0958333393711199,0.125000002061652,-0.0864374339580536,0.0183259565383196,0.0045814891345799
0,1.00416669214298,0.0888888921108138,0.118055554801345,-0.104763388633728,0.0268780700862408,0.0106901414692402
0,1.00277780025972,0.0902777839940679,0.120833338567854,-0.0842994004487991,0.019547687843442,0.0167987942695618
0,1.00416669214298,0.0791666671619817,0.120833338567854,-0.0803287774324417,0.0226020142436027,0.0146607663482428
0,1.02222228662528,0.0805555590452358,0.1194444466846,-0.0665843114256859,0.0201585534960032,0.0125227374956012
0,1.02222228662528,0.0791666671619817,0.118055554801345,-0.0696386396884918,0.0342084541916847,0.00916297826915979
0,1.02222228662528,0.0875000002275597,0.115277783190802,-0.0699440687894821,0.0204639863222837,0.0021380283869803
0,1.01944450285877,0.0902777839940679,0.118055554801345,-0.0653625801205635,0.021685715764761,-0.00397062394768
0,1.00972225967599,0.0875000002275597,0.112499999424294,-0.0461203269660473,0.0192422550171614,0.00671951752156019
0,1.00972225967599,0.0819444448505077,0.106944444047242,-0.0302378293126821,0.0259617734700441,0.013744467869401
0,1.01111115155925,0.0777777813567098,0.10972222781375,-0.0106901414692402,0.0128281703218818,0.0113010071218014
0,1.0125000434425,0.0805555590452358,0.108333335930496,-0.0167987942695618,-0.0021380283869803,0.00397062394768
0,1.01944450285877,0.0847222225390337,0.112499999424294,-0.0302378293126821,0.0033597587607801,-0.000610865245107561
0,1.01805561097552,0.0861111144222878,0.101388894748172,-0.0204639863222837,0.0103847095742822,0.00305432616733015
0,1.01111115155925,0.0875000002275597,0.123611110178398,-0.00977384392172098,0.01588249579072,-0.00366519158706069
0,1.00833336779274,0.0916666697993398,0.112499999424294,-0.0033597587607801,0.0146607663482428,-0.00671951752156019
0,1.0125000434425,0.0916666697993398,0.12916666555545,-0.0140499006956816,0.0180205255746841,0.0113010071218014
0,1.01111115155925,0.0916666697993398,0.125000002061652,-0.0201585534960032,0.0232128798961639,0.00977384392172098
0,1.00833336779274,0.0875000002275597,0.113888891307548,-0.0201585534960032,0.0265726372599602,0.0177150927484035
0,1.00694447590948,0.0861111144222878,0.112499999424294,-0.01191187184304,0.019547687843442,0.0134390350431204
0,1.0125000434425,0.0875000002275597,0.115277783190802,0.0149661982432008,0.0122173046693206,0.0387899428606033
0,1.01666671909226,0.0888888921108138,0.126388893944906,-0.000916297896765172,0.0180205255746841,0.0436768643558025
0,1.02777785415829,0.0861111144222878,0.123611110178398,-0.0134390350431204,0.0342084541916847,0.0372627787292004
0,1.02916674604155,0.0875000002275597,0.12777778582816,-0.0143553335219622,0.0412334054708481,0.0409279726445675
0,1.01527782720901,0.0791666671619817,0.12777778582816,0.00641408516094089,0.0262672062963247,0.0519235469400883
0,1.01944450285877,0.0791666671619817,0.136111112815755,0.0354301854968071,0.0351247526705265,0.0494800843298435
0,1.01666671909226,0.0944444474878658,0.138888896582264,0.0513126812875271,0.0445931628346443,0.0473420582711697
0,1.00972225967599,0.108333335930496,0.13750000469901,0.0436768643558025,0.0241291765123606,0.04764748737216
0,1.01527782720901,0.118055554801345,0.13750000469901,-0.00977384392172098,0.0421497002243996,0.0485637858510017
0,1.01805561097552,0.118055554801345,0.152777778946911,-0.0354301854968071,0.0552833043038845,0.0445931628346443
0,1.00555558402623,0.108333335930496,0.15555556271342,-0.0109955742955208,0.0546724386513233,0.0265726372599602
0,1.00277780025972,0.115277783190802,0.154166670830166,0.00733038317412138,0.0552833043038845,0.00305432616733015
0,1.00277780025972,0.118055554801345,0.14583334384257,0.0326812900602817,0.0497855171561241,-0.00183259579353034
0,0.99583334084345,0.118055554801345,0.14583334384257,0.0323758572340012,0.0357356183230877,0.00824668072164059
0,0.983333411141879,0.122222230451108,0.154166670830166,-0.0167987942695618,-0.0027488935738802,0.0161879286170006
0,0.98888888142718,0.116666675074056,0.166666673467524,-0.00794124789535999,-0.0482583530247212,0.0226020142436027
0,0.993055557076942,0.101388894748172,0.170833336961321,0.0125227374956012,-0.0665843114256859,0.0470366254448891
0,0.993055557076942,0.0777777813567098,0.161111118090472,0.0323758572340012,-0.0736092627048492,0.0491746515035629
0,0.993055557076942,0.0694444482911319,0.161111118090472,0.0626136884093285,-0.0681114718317986,0.0326812900602817
0,0.970833384192592,0.0458333348996699,0.14583334384257,0.112704634666443,-0.0839939713478088,0.00702495034784079
0,0.922222265526414,0.0458333348996699,0.134722233088466,0.196393176913261,-0.108734011650086,-0.00152716308366507
0,0.905555562927365,0.0597222233422998,0.13750000469901,0.210748508572578,-0.10598511993885,0.0192422550171614
0,0.94305554652751,0.0736111117849297,0.162500009973726,0.211970239877701,-0.0931569486856461,0.098960168659687
0,1.04027778385987,0.111111119697004,0.14583334384257,0.146302223205566,-0.130725160241127,0.149967417120934
0,1.10694449700835,0.140277788465518,0.106944444047242,-0.0620028227567673,-0.0519235469400883,0.198225766420364
0,1.08333333499303,0.0875000002275597,0.1194444466846,-0.157603234052658,-0.0198531206697226,0.160657554864883
0,1.08333333499303,0.0875000002275597,0.1194444466846,-0.221133217215538,-0.0500909499824047,0.0510072484612465
0,1.10555560512509,0.0472222237439329,0.0986111170596459,-0.256257981061935,-0.0729983970522881,-0.0784961804747581
0,1.05555559457566,0.0125000003581147,0.111111119697004,-0.19058994948864,0.110566608607769,-0.123700208961964
0,1.05555559457566,0.0125000003581147,0.111111119697004,-0.0531452745199203,0.0708603709936142,-0.0885754600167274
0,1.06805562152495,0.030555557612777,0.138888896582264,-0.0442877300083637,-0.0494800843298435,-0.16401731967926
0,1.0361111082101,0.0722222259796579,0.0750000036681839,-0.0452040284872055,0.0507018156349659,-0.230601623654366
0,1.0361111082101,0.0722222259796579,0.0750000036681839,0.0494800843298435,0.0229074470698834,-0.11117747426033
0,1.00138890837647,0.0430555572111439,0.101388894748172,0.0467311926186085,0.106595985591412,0.0775798857212067
0,0.99583334084345,0.0444444460554069,0.0777777813567098,-0.0210748501121998,0.0342084541916847,0.0784961804747581
0,0.99583334084345,0.0444444460554069,0.0777777813567098,-0.019547687843442,0.11636982858181,0.144469633698463
0,1.03750000009336,0.0513888902767219,0.0680555564078778,-0.0595593601465225,0.0956004112958908,0.116675265133381
0,1.06527783775844,0.0777777813567098,0.055555559848502,-0.152716308832169,0.144469633698463,0.102319926023483
0,1.06527783775844,0.0777777813567098,0.055555559848502,-0.231517925858498,0.218384325504303,0.153021737933159
0,0.986111194908388,0.0236111118719664,0.0861111144222878,-0.124616511166096,0.188451930880547,0.167987942695618
0,0.941666654644256,-0.0416666683668809,0.134722233088466,0.0381790772080422,0.156076073646545,0.16920967400074
0,0.951388897827035,-0.0444444460554069,0.158333334323963,0.11636982858181,0.0647517144680023,0.0870482996106148
0,1.02638896227504,-0.0444444460554069,0.148611115453114,0.0699440687894821,0.0613919571042061,0.0479529201984406
0,1.02500007039179,0.0361111129898289,0.154166670830166,0.0589484944939613,-0.0021380283869803,0.0424551330506802
0,1.01527782720901,0.0416666683668809,0.154166670830166,0.0684169083833694,-0.0745255574584007,0.0219911485910416
0,1.02916674604155,0.0430555572111439,0.12777778582816,0.0733038261532784,-0.0592539273202419,0.0109955742955208
0,1.03194452980806,0.0458333348996699,0.122222230451108,0.087659165263176,-0.0387899428606033,0.01191187184304
0,1.0125000434425,0.0638888929140799,0.113888891307548,0.0650571510195732,-0.0629191175103188,0.0177150927484035
0,1.00972225967599,0.0625000010308258,0.116666675074056,0.0723875313997269,-0.0839939713478088,-0.0106901414692402
0,1.02222228662528,0.0666666706026059,0.108333335930496,0.111788339912891,-0.0555887371301651,-0.0113010071218014
0,1.01527782720901,0.0722222259796579,0.0986111170596459,0.0919352173805237,-0.0229074470698834,0.0409279726445675
0,1.01527782720901,0.0680555564078778,0.0902777839940679,0.00152716308366507,-0.0635299831628799,0.00152716308366507
0,1.01666671909226,0.0500000014324589,0.0819444448505077,0.0180205255746841,-0.0180205255746841,0.0222965814173222
0,1.01527782720901,0.0847222225390337,0.0888888921108138,0.0812450796365738,-0.0280998013913631,0.011606439948082
0,1.04166667574312,0.0847222225390337,0.0652777787193518,-0.0580321997404099,0.121867619454861,0.0109955742955208
0,1.0902777944093,0.0611111152255539,0.0750000036681839,0.0525344125926495,0.275500237941742,-0.0329867228865623
0,1.0125000434425,0.0625000010308258,0.1194444466846,-0.029626963660121,0.0952949747443199,-0.0705549344420433
0,0.922222265526414,-0.0208333341834404,0.13750000469901,-0.120645888149738,-0.208915919065475,-0.107512280344963
0,0.981944519258625,-0.0916666697993398,0.13750000469901,0.0280998013913631,-0.244651526212692,-0.145080491900444
0,1.07777786470773,-0.106944444047242,0.104166672436698,0.178678080439568,-0.217162594199181,-0.294437050819397
0,1.14444448060849,-0.029166668768514,0.0847222225390337,0.344527989625931,-0.179288953542709,-0.364381104707718
0,1.1291666698927,0.0888888921108138,0.00972222266958873,0.153021737933159,-0.121256753802299,-0.350636661052704
0,1.04166667574312,0.170833336961321,0.0152777788063885,-0.162184715270996,-0.138360977172852,-0.297185927629471
0,0.95000000594378,0.177777784221628,0.0222222230277034,-0.554971098899841,-0.198531210422516,-0.177150920033455
0,0.92083337364316,0.108333335930496,0.0611111152255539,-0.692415773868561,-0.208610475063324,-0.0965167060494423
0,0.948611114060526,0.0208333341834404,0.0833333367337618,-0.723569869995117,-0.125227376818657,-0.015577063895762
0,1.00277780025972,-0.0583333375370279,0.104166672436698,-0.540310323238373,-0.0219911485910416,0.00152716308366507
0,1.0333333244436,-0.0986111170596459,0.134722233088466,-0.363159388303757,0.0910189226269722,-0.0397062413394451
0,1.06111116210868,-0.0736111117849297,0.17361112072783,-0.157603234052658,0.186924770474434,-0.0647517144680023
0,1.04861113515939,0.00555555575692586,0.166666673467524,-0.0531452745199203,0.249843880534172,-0.0455094613134861
0,1.00277780025972,0.0680555564078778,0.0986111170596459,-0.135612085461616,0.166766211390495,0.0448985956609249
0,0.954166681593543,0.0875000002275597,0.0500000014324589,-0.212581098079681,0.0549778714776039,0.0723875313997269
0,0.899999995394348,0.0861111144222878,0.0250000007162294,-0.0565050356090069,-0.0940732508897781,0.0705549344420433
0,0.866666687443965,0.0875000002275597,0.0388888906783549,-0.0412334054708481,-0.0488692186772823,0.127365410327911
0,0.870833363093728,0.0458333348996699,0.0611111152255539,-0.0729983970522881,0.0766635909676552,0.196698606014252
0,0.998611124609959,-0.0486111125881959,0.205555561106887,-0.182648703455925,0.223882108926773,0.324369430541992
0,1.16111118320754,-0.055555559848502,0.266666682410424,-0.151800006628036,0.176845490932465,0.296880513429642
0,1.22916669099156,-0.105555564319952,0.283333336385615,-0.076052725315094,0.153021737933159,0.16951510310173
0,1.30694453920608,-0.273611117514765,0.325000019947452,0.159130394458771,0.301156580448151,0.0311541277915239
0,1.29166672849028,-0.280555576931036,0.323611128064198,0.480445504188538,0.470671683549881,-0.115148097276688
0,1.2430556098241,-0.250000004123303,0.309722233543585,0.668592035770416,0.516181111335754,-0.324980318546295
0,1.11805563207438,-0.0902777839940679,0.288888903918631,0.699746131896973,0.51923543214798,-0.402865618467331
0,0.976388951725609,0.03194444645704,0.283333336385615,0.602007687091827,0.53328537940979,-0.378431022167206
0,0.843055622676362,0.0986111170596459,0.269444466176932,0.427911102771759,0.490524798631668,-0.294437050819397
0,0.755555579902926,0.113888891307548,0.276388901281273,0.306654363870621,0.403476506471634,-0.249843880534172
0,0.737500034044481,0.122222230451108,0.277777793164528,0.200058370828629,0.278554558753967,-0.194255143404007
0,0.775000017644626,0.104166672436698,0.277777793164528,0.0369573459029198,0.15332718193531,-0.148134827613831
0,0.834722271376837,0.0458333348996699,0.315277801076602,-0.0222965814173222,0.098960168659687,-0.10598511993885
0,0.82222224442755,-0.00277777787846293,0.320833344297689,-0.0943786799907684,0.00549778714776039,-0.0439822971820831
0,0.827777811960566,-0.0763888894734557,0.298611122789481,-0.142026171088219,-0.131641462445259,-0.0177150927484035
0,0.899999995394348,-0.12777778582816,0.341666673922643,-0.0833831056952477,-0.188146501779556,0.0198531206697226
0,0.990277773310434,-0.131944449321958,0.368055571080613,-0.0201585534960032,-0.217162594199181,0.0678060427308083
0,1.05416670269241,-0.122222230451108,0.388888900705567,0.0366519130766392,-0.267558991909027,0.0879645943641663
0,1.09861114570882,-0.106944444047242,0.438888911254999,0.0913243517279625,-0.226631000638008,0.122173048555851
0,1.05277781080915,-0.0972222251763917,0.480555570504907,0.0907134860754013,-0.22785273194313,0.150883719325066
0,1.03888889197661,-0.0750000036681839,0.50138890012986,0.0748309940099716,-0.398894995450974,0.04764748737216
0,1.24583339359061,0.122222230451108,0.430555559955475,0.149661988019943,-0.560468852519989,-0.120951317250729
0,1.62500009973726,0.187500003092477,0.162500009973726,-0.315511912107468,-0.595288157463074,-0.419664412736893
0,1.55277781905576,0.326388911830706,0.055555559848502,-0.788321614265442,0.287717521190643,-0.478002041578293
0,1.06527783775844,0.359722244093018,0.179166676104882,-1.04335784912109,0.510072469711304,-0.137750118970871
0,0.719444488186035,0.231944458264858,0.215277779977737,-0.933402121067047,0.0555887371301651,0.064446285367012
0,0.66527780198684,0.156944454596674,0.106944444047242,-0.878118813037872,-0.379958182573318,0.0485637858510017
0,0.813888941751883,0.13750000469901,0.055555559848502,-0.913854420185089,-0.561996042728424,0.0134390350431204
0,1.00972225967599,0.105555564319952,0.0583333375370279,-0.923628270626068,-0.525649547576904,0.0723875313997269
0,1.13750002119222,0.027777779924251,0.0819444448505077,-0.771828234195709,-0.323147714138031,0.0916297882795334
0,1.15000004814151,-0.0180555564949145,0.104166672436698,-0.540004849433899,-0.247094988822937,-0.0247400421649218
0,1.0694445134082,-0.027777779924251,0.106944444047242,-0.29046642780304,-0.292909890413284,-0.121867619454861
0,1.00000001649321,-0.0180555564949145,0.102777780553444,-0.101403631269932,-0.339335650205612,-0.133779495954514
0,0.790277828360421,0.0541666679652478,0.0888888921108138,0.00580321997404099,-0.406836241483688,-0.108734011650086
0,0.765277823085705,0.0736111117849297,0.0750000036681839,-0.0479529201984406,-0.72418075799942,-0.058643065392971
0,0.795833347269579,0.101388894748172,0.0416666683668809,-0.090408056974411,-0.866512358188629,-0.0366519130766392
0,0.913888914226889,0.125000002061652,0.0180555564949145,-0.146913096308708,-0.826195240020752,0.0100792767480016
0,0.926388941176177,0.122222230451108,0.0111111115138517,-0.22724187374115,-0.645073711872101,0.0427605658769607
0,0.911111130460381,0.101388894748172,0.0111111115138517,-0.262672066688538,-0.565355777740479,0.0497855171561241
0,0.893055633225794,0.0708333340964038,-0.00694444498106275,-0.284663200378418,-0.602923989295959,0.146913096308708
0,0.947222222177272,-0.0208333341834404,-0.00972222266958873,-0.291382730007172,-0.495717138051987,0.10567969083786
0,0.952777789710289,-0.0902777839940679,-0.00972222266958873,-0.1750128865242,-0.316733628511429,0.0226020142436027
0,0.952777789710289,-0.0902777839940679,-0.00972222266958873,-0.0500909499824047,-0.259923160076141,-0.0919352173805237
0,1.00000001649321,-0.136111112815755,-0.0152777788063885,0.0678060427308083,-0.262672066688538,-0.22785273194313
0,1.07777786470773,-0.125000002061652,-0.0180555564949145,0.151800006628036,-0.181121543049812,-0.367740869522095
0,1.07777786470773,-0.125000002061652,-0.0180555564949145,0.130114302039146,-0.029626963660121,-0.381790786981583
0,1.08888890252604,-0.030555557612777,0.00138888893923146,0.0400116741657257,0.0458148941397667,-0.376293003559113
0,1.11944452395763,-0.0125000003581147,-0.0166666676506515,-0.134390354156494,0.0574213340878487,-0.353690981864929
0,1.11944452395763,-0.0125000003581147,-0.0166666676506515,-0.470060795545578,0.0882700309157372,-0.284663200378418
0,1.13055556177595,0.00277777787846293,-0.0250000007162294,-0.572380721569061,0.00946841109544039,-0.178372651338577
0,1.17777778855888,-0.0625000010308258,0.0250000007162294,-0.485637873411179,-0.264810085296631,0.0406225398182869
0,1.17777778855888,-0.0625000010308258,0.0250000007162294,-0.375376701354981,-0.321009695529938,0.182037845253944
0,1.2041667343407,-0.0875000002275597,0.0222222230277034,-0.255952537059784,-0.223271250724793,0.30207285284996
0,1.02083339474202,0.283333336385615,-0.00555555575692586,-0.176845490932465,-0.280387133359909,0.497855186462402
0,1.02083339474202,0.283333336385615,-0.00555555575692586,0.256868839263916,-0.441044718027115,0.909272909164429
0,0.848611190209378,0.229166674498349,0.0361111129898289,0.686917960643768,-0.647517144680023,1.05190992355347
0,0.805555590452358,0.138888896582264,-0.0777777813567098,0.627053201198578,-0.348193198442459,1.12857353687286
0,1.07361118905796,0.122222230451108,-0.0986111170596459,0.460286974906921,0.270307868719101,1.1423180103302
0,1.45138890607364,0.18333333959868,-0.112499999424294,0.306043475866318,0.928209722042084,0.846353769302368
0,1.45138890607364,0.18333333959868,-0.112499999424294,0.12675453722477,1.12551915645599,0.574213325977325
0,1.47361117620571,0.16527778158427,0.0930555616825939,0.254425376653671,1.15575706958771,0.304516315460205
0,1.18333335609189,0.052777782159976,0.0625000010308258,0.304516315460205,1.1267409324646,0.153021737933159
0,1.18333335609189,0.052777782159976,0.0625000010308258,0.451734840869904,0.945924818515778,0.0565050356090069
0,0.968055600426084,-0.0208333341834404,0.102777780553444,0.607200026512146,0.796262860298157,0.0503963828086853
0,0.797222239152834,-0.0236111118719664,0.0444444460554069,0.637132465839386,0.740674138069153,-0.0311541277915239
0,0.797222239152834,-0.0236111118719664,0.0444444460554069,0.598342478275299,0.839634299278259,-0.0772744566202164
0,0.755555579902926,-0.00138888893923146,0.0652777787193518,0.603229403495789,0.85215699672699,-0.0867428630590439
0,0.700000001820477,0.00972222266958873,0.0972222251763917,0.657290995121002,0.687223374843597,-0.0516181141138077
0,0.679166672195524,0.0111111115138517,0.13750000469901,0.69730269908905,0.583070874214172,-0.0299323964864016
0,0.676388937052873,-0.00972222266958873,0.169444445078067,0.751975119113922,0.413861215114594,-0.181732416152954
0,0.688888915378302,-0.0222222230277034,0.216666671860991,0.732732832431793,0.206777885556221,-0.356745302677154
0,0.681944455962032,0.00555555575692586,0.24583335278547,0.673173487186432,-0.101709060370922,-0.489608496427536
0,0.668055585753349,0.0472222237439329,0.269444466176932,0.446237057447434,-0.455400049686432,-0.450207680463791
0,0.688888915378302,0.0416666683668809,0.279166685047782,0.215635433793068,-0.605978310108185,-0.329561799764633
0,0.770833341994863,0.0250000007162294,0.288888903918631,0.136528387665749,-0.641408503055573,-0.15851953625679
0,0.940277860008718,-0.00555555575692586,0.295833339022973,0.152410879731178,-0.529009282588959,0.0329867228865623
0,1.16111118320754,0.0166666676506515,0.272222225631511,0.428827404975891,-0.470671683549881,0.0403171069920063
0,1.35694445250779,0.181944447715425,0.166666673467524,0.461203247308731,-0.268780708312988,-0.0280998013913631
0,1.51250005168911,0.0944444474878658,0.134722233088466,-0.389121174812317,0.241597205400467,-0.00488692196086049
0,1.5819445486041,-0.105555564319952,0.470833327322128,-0.220827788114548,1.05465888977051,0.239459171891212
0,1.58472223512289,-0.163888889701015,0.338888890156135,0.0033597587607801,0.770911931991577,-0.0531452745199203
0,1.76666678008603,0.0208333341834404,0.03194444645704,0.356439858675003,0.515875697135925,-0.728762209415436
0,1.50277780850633,0.459722240879953,-0.120833338567854,-0.0769690200686455,1.29808866977692,-0.564744889736176
0,0.837500055143345,0.565277780887976,-0.00555555575692586,-0.484721571207047,0.833831071853638,-0.0390953756868839
0,0.384722225055805,0.348611133338914,0.163888889701015,-0.580932855606079,0.0971275717020035,0.200363799929619
0,0.302777798439244,0.20972223675665,0.156944454596674,-0.537256002426147,-0.350636661052704,0.3961461186409
0,0.418055581630046,-0.00555555575692586,0.101388894748172,-0.282830595970154,-0.642630219459534,0.471282541751862
0,0.979166735492117,-0.0777777813567098,0.0375000018340919,0.105068825185299,-0.64996063709259,0.422413319349289
0,1.17500000479237,-0.0763888894734557,0.0388888906783549,0.448069661855698,-0.601702272891998,0.109344877302647
0,1.45416668984015,-0.0416666683668809,0.0388888906783549,0.530841886997223,-0.207999616861343,-0.325285732746124
0,1.43055562507255,0.116666675074056,-0.03194444645704,0.387288570404053,0.0665843114256859,-0.394313514232635
0,1.13888891307548,0.188888894975731,-0.0208333341834404,0.181121543049812,0.0821613743901253,-0.340251952409744
0,0.763888931202451,0.202777789496344,0.0250000007162294,0.0033597587607801,-0.326202034950256,-0.261450320482254
0,0.577777807837263,0.170833336961321,0.0416666683668809,-0.171042263507843,-0.884227454662323,-0.127365410327911
0,0.655555558804062,0.0888888921108138,0.0180555564949145,-0.127976268529892,-0.937678158283234,-0.0467311926186085
0,0.801388914802596,-0.00138888893923146,-0.00833333382532574,0.0045814891345799,-0.838412523269653,-0.0916297882795334
0,0.906944454810619,-0.0138888899621255,-0.0152777788063885,0.0849102661013603,-0.738841533660889,-0.122783914208412
0,0.941666654644256,0.0125000003581147,-0.029166668768514,0.0534507073462009,-0.674089789390564,-0.197614908218384
0,0.96666670854283,-0.0194444453391775,-0.0458333348996699,0.0610865242779255,-0.457843512296677,-0.324369430541992
0,0.913888914226889,-0.0666666706026059,-0.0416666683668809,0.0968221426010132,-0.403476506471634,-0.44959682226181
0,0.913888914226889,-0.113888891307548,-0.00694444498106275,0.215330004692078,-0.403781920671463,-0.554665625095367
0,1.0125000434425,-0.115277783190802,-0.0194444453391775,0.315206468105316,-0.176540061831474,-0.559858024120331
0,1.11388895642462,-0.0416666683668809,-0.033333335301303,0.267864406108856,0.0507018156349659,-0.514653980731964
0,1.17361111290911,-0.0416666683668809,-0.0444444460554069,0.03176499158144,0.200363799929619,-0.441044718027115
0,1.17916668044213,-0.00555555575692586,-0.00972222266958873,-0.173180297017098,0.237015709280968,-0.380569040775299
0,1.11388895642462,-0.00277777787846293,0.0208333341834404,-0.290771842002869,0.0922406539320946,-0.222660377621651
0,1.09861114570882,-0.03194444645704,0.0402777795226179,-0.299323976039886,-0.167071640491486,0.0305432621389627
0,1.19305559927467,-0.0847222225390337,0.00694444498106275,-0.0665843114256859,-0.42852196097374,0.22754730284214
0,1.31805557702439,0.0833333367337618,-0.00833333382532574,0.143553331494331,-0.427911102771759,0.313679307699203
0,1.15694450755778,0.33750002258481,-0.0708333340964038,0.389121174812317,-0.715017795562744,0.660039901733398
0,1.05555559457566,0.306944449777077,-0.055555559848502,0.737008929252625,-0.87262099981308,0.871704697608948
0,1.05555559457566,0.306944449777077,-0.055555559848502,0.756251156330109,-0.320398807525635,0.923628270626068
0,1.06527783775844,0.134722233088466,-0.20138889761309,0.40775254368782,0.806953012943268,0.952644348144531
0,1.07361118905796,0.18333333959868,-0.0888888921108138,0.300851136445999,1.16308736801148,0.97830069065094
0,1.10555560512509,0.212499996211229,0.0486111125881959,0.235488548874855,0.792292237281799,0.782823801040649
0,1.24444450170736,0.123611110178398,0.0888888921108138,0.18509216606617,0.580932855606079,0.622166275978088
0,1.27500002589123,0.029166668768514,0.0833333367337618,0.375376701354981,0.466701060533524,0.417220950126648
0,1.27500002589123,0.029166668768514,0.0833333367337618,0.903164267539978,0.509767055511475,0.146913096308708
0,1.20000005869094,-0.0152777788063885,0.0500000014324589,1.11635625362396,0.540921151638031,0.0879645943641663
0,1.08333333499303,-0.033333335301303,0.03194444645704,1.15972769260406,0.71318519115448,0.0491746515035629
0,0.986111194908388,-0.00555555575692586,0.0583333375370279,1.19179809093475,0.827722430229187,0.0302378293126821
0,0.887500065692777,0.0694444482911319,0.0444444460554069,1.16156029701233,0.893695831298828,0.0833831056952477
0,0.794444455386325,0.140277788465518,0.0416666683668809,1.02533733844757,0.809701859951019,0.184481307864189
0,0.695833374794573,0.0777777813567098,0.104166672436698,1.00578963756561,0.635910749435425,0.204945296049118
0,0.695833374794573,0.029166668768514,0.126388893944906,1.06107294559479,0.472198843955994,0.191811680793762
0,0.708333353120002,-0.0513888902767219,0.175000000455119,1.20401537418366,0.276111096143722,0.0565050356090069
0,0.729166682744956,-0.0819444448505077,0.190277786858986,1.29350709915161,0.0164933614432812,-0.0995710343122482
0,0.731944466511464,-0.0805555590452358,0.200000005729836,1.22111964225769,-0.30146199464798,-0.168293371796608
0,0.781944477060896,-0.1194444466846,0.108333335930496,0.898888230323792,-0.271835029125214,-0.102319926023483
0,0.89166674134254,-0.125000002061652,0.166666673467524,0.868344962596893,-0.173180297017098,-0.0280998013913631
0,0.976388951725609,-0.0930555616825939,0.193055558469529,0.983798503875732,-0.0901026204228401,0.00305432616733015
0,1.03750000009336,-0.0958333393711199,0.17361112072783,1.07298481464386,-0.0455094613134861,-0.0253509078174829
0,1.13472223742571,-0.0625000010308258,0.190277786858986,1.33932209014893,-0.0757472887635231,-0.113926365971565
0,1.18750003174166,0.0388888906783549,0.0986111170596459,0.960585594177246,0.170125976204872,0.0369573459029198
0,1.23888893417434,-0.0208333341834404,0.236111109602691,0.580321967601776,0.621555387973785,0.377209275960922
0,1.25000006924037,0.00972222266958873,0.213888888094483,0.541226625442505,1.0690141916275,0.514959394931793
0,1.57500008918783,0.13750000469901,-0.0347222241455659,0.781907498836517,0.773966252803802,0.0775798857212067
0,1.83472228787005,0.298611122789481,-0.216666671860991,0.676533281803131,1.35948061943054,-0.433714330196381
0,1.53611121370443,0.511111143312639,-0.298611122789481,0.295353353023529,1.39613246917725,-0.211053937673569
0,0.977777843608863,0.259722222994153,-0.055555559848502,0.411417752504349,1.04488503932953,-0.0995710343122482
0,0.608333332021137,0.14722222356986,0.133333341205212,0.581849157810211,0.252287358045578,0.315206468105316
0,0.5930555699292,0.0347222241455659,0.151388899219622,0.908662080764771,-0.293826192617416,0.538477718830109
0,0.82916670384382,0.0444444460554069,0.0986111170596459,1.20035016536713,-0.737925231456757,0.535728812217712
0,0.970833384192592,0.0916666697993398,0.0375000018340919,0.918130457401276,-0.812756180763245,0.212275668978691
0,1.25416674489014,0.223611131277262,-0.0597222233422998,0.440739274024963,-0.872010111808777,-0.178678080439568
0,1.4319445169558,0.250000004123303,-0.0722222259796579,0.317955374717712,-0.505796432495117,-0.304210901260376
0,1.22638890722505,0.055555559848502,-0.0694444482911319,0.570548117160797,-0.48685958981514,-0.399505883455276
0,0.865277795560711,-0.104166672436698,0.0375000018340919,0.897361040115356,-0.737008929252625,-0.442571878433227
0,0.695833374794573,-0.0902777839940679,0.0680555564078778,1.16369831562042,-0.828027844429016,-0.472504258155823
0,0.718055596302781,-0.0666666706026059,0.00416666691266287,1.25288462638855,-0.768163025379181,-0.335670441389084
0,0.78333336894415,-0.0125000003581147,-0.0458333348996699,1.29839408397675,-0.537256002426147,-0.246789559721947
0,0.812500049868629,0.0222222230277034,-0.0875000002275597,1.22356307506561,-0.48685958981514,-0.21685716509819
0,0.82916670384382,0.0375000018340919,-0.0958333393711199,1.15606248378754,-0.354607284069061,-0.164933621883392
0,0.881944498159761,0.052777782159976,-0.101388894748172,1.03114056587219,-0.237321153283119,-0.195171445608139
0,0.926388941176177,0.0152777788063885,-0.0805555590452358,0.959669291973114,-0.244956970214844,-0.294437050819397
0,0.997222232726705,-0.027777779924251,-0.0722222259796579,0.927598893642426,-0.176845490932465,-0.39064833521843
0,1.05972227022542,-0.0722222259796579,-0.0638888929140799,0.88819807767868,-0.0033597587607801,-0.414472073316574
0,1.09861114570882,-0.116666675074056,-0.0652777787193518,0.796873688697815,0.0708603709936142,-0.431881725788117
0,1.11666674019113,-0.101388894748172,-0.0569444456537738,0.775187969207764,0.161573857069016,-0.452956587076187
0,1.18333335609189,-0.0250000007162294,-0.0388888906783549,0.621249973773956,0.232128798961639,-0.488692194223404
0,1.23611115040783,0.0805555590452358,-0.0541666679652478,0.353080123662949,0.405614525079727,-0.232128798961639
0,1.25694452865664,0.0361111129898289,-0.029166668768514,0.488692194223404,0.418748140335083,0.0183259565383196
0,1.20833340999047,-0.180555567988136,-0.0444444460554069,0.666759431362152,0.32284227013588,0.139888137578964
0,1.14583337249175,-0.12777778582816,-0.125000002061652,0.960585594177246,0.321009695529938,0.135612085461616
0,1.08472222687628,0.156944454596674,-0.14722222356986,1.19393610954285,0.253203630447388,0.303905457258224
0,0.94305554652751,0.316666668647927,-0.125000002061652,1.38513696193695,0.278554558753967,0.638354182243347
0,0.888888957576031,0.277777793164528,-0.115277783190802,1.74738001823425,0.176234617829323,1.13804197311401
0,1.13055556177595,0.140277788465518,-0.150000007336368,1.9956967830658,0.390037447214127,1.13468217849731
0,1.13055556177595,0.140277788465518,-0.150000007336368,2.0201313495636,0.489608496427536,1.01281452178955
0,1.52500007863839,0.1194444466846,-0.17361112072783,2.06319737434387,1.01495265960693,0.747088193893433
