Activity,acc_x,acc_y,acc_z,gyro_x,gyro_y,gyro_z
0,0.451388889580428,0.0125000003581147,0.77638890952788,0.30757063627243,-0.395229816436768,0.13744467496872
0,0.472222219205382,0.0152777788063885,0.780555585177642,0.281608879566193,-0.345138877630234,0.146607652306557
0,0.523611121638068,-0.0222222230277034,0.830555595727074,0.346666038036346,0.324369430541992,-0.00671951752156019
0,0.523611121638068,-0.0222222230277034,0.830555595727074,0.317955374717712,0.332310706377029,-0.0171042270958424
0,0.523611121638068,-0.0222222230277034,0.830555595727074,0.317955374717712,0.332310706377029,-0.0171042270958424
0,0.49166670557094,-0.029166668768514,0.84583340644287,0.0598647929728031,0.17409659922123,0.00977384392172098
0,0.444444478788016,-0.0125000003581147,0.880555606276507,-0.197614908218384,0.172874867916107,0.0726929605007172
0,0.440277803138253,-0.00833333382532574,0.913888914226889,-0.221133217215538,0.205861583352089,0.0543670058250427
0,0.455555565230191,0.00277777787846293,0.906944454810619,-0.164322748780251,0.280692577362061,-0.00183259579353034
0,0.486111138037923,0.029166668768514,0.825000028194058,-0.112093769013882,0.326812893152237,-0.0552833043038845
0,0.488888921804431,0.033333335301303,0.798611131036088,-0.0439822971820831,0.212275668978691,-0.127976268529892
0,0.488888921804431,0.0388888906783549,0.775000017644626,0.0167987942695618,0.0503963828086853,-0.156381502747536
0,0.490277813687686,0.033333335301303,0.775000017644626,-0.013744467869401,-0.01588249579072,-0.189673662185669
0,0.508333359546131,0.0194444453391775,0.812500049868629,-0.0742201283574104,0.11087204515934,-0.205250725150108
0,0.512500035195893,0.0166666676506515,0.819444460661041,-0.212581098079681,0.260534018278122,-0.211664810776711
0,0.515277818962402,0.0152777788063885,0.841666730793107,-0.358883321285248,0.27458393573761,-0.252592772245407
0,0.493055597454194,0.0208333341834404,0.854166660494678,-0.438906669616699,0.202501833438873,-0.25411993265152
0,0.486111138037923,0.0388888906783549,0.86805557932722,-0.458759784698486,0.08460483700037,-0.250760197639465
0,0.486111138037923,0.0430555572111439,0.886111173809523,-0.45998153090477,-0.0302378293126821,-0.265726387500763
0,0.495833332596844,0.055555559848502,0.899999995394348,-0.412028610706329,-0.0314595587551594,-0.294742494821549
0,0.511111143312639,0.0625000010308258,0.898611103511094,-0.322231411933899,-0.00763581553474069,-0.339335650205612
0,0.518055554105052,0.0625000010308258,0.905555562927365,-0.167377084493637,-0.0415388382971287,-0.361326783895493
0,0.515277818962402,0.0722222259796579,0.936111184358955,0.0595593601465225,-0.0720821022987366,-0.403781920671463
0,0.515277818962402,0.0722222259796579,0.936111184358955,0.172569438815117,-0.111482910811901,-0.416304677724838
0,0.516666662221798,0.0750000036681839,0.962500032893068,0.147218525409698,-0.22174409031868,-0.388204872608185
0,0.515277818962402,0.0680555564078778,0.933333400592447,0.0167987942695618,-0.141720741987228,-0.366519153118133
0,0.515277818962402,0.0680555564078778,0.933333400592447,-0.0583376325666905,-0.114231802523136,-0.354607284069061
0,0.513888927079148,0.0361111129898289,0.815277785011279,-0.248927593231201,-0.0366519130766392,-0.298102229833603
0,0.504166683896369,0.0111111115138517,0.784722260827405,-0.272140473127365,-0.0482583530247212,-0.272445887327194
0,0.519444445988306,-0.0138888899621255,0.791666671619817,-0.299629390239716,-0.108734011650086,-0.231517925858498
0,0.522222229754814,-0.0208333341834404,0.812500049868629,-0.27000242471695,-0.114231802523136,-0.189368233084679
0,0.505555575779623,-0.0166666676506515,0.855555552377932,-0.151494577527046,-0.0259617734700441,-0.178067222237587
0,0.486111138037923,-0.0236111118719664,0.863888903677457,-0.0400116741657257,0.0134390350431204,-0.159741267561913
0,0.486111138037923,-0.0236111118719664,0.863888903677457,-0.0549778714776039,-0.0754418596625328,-0.113620936870575
0,0.493055597454194,-0.0375000018340919,0.844444514559616,-0.164322748780251,-0.0650571510195732,-0.0995710343122482
0,0.498611116363352,-0.0375000018340919,0.854166660494678,-0.27000242471695,0.0418442711234093,-0.0998764708638191
0,0.49444444071359,-0.0472222237439329,0.85138887672817,-0.290771842002869,0.135917514562607,-0.140193566679955
0,0.49166670557094,-0.052777782159976,0.844444514559616,-0.288328409194946,0.166155353188515,-0.152105450630188
0,0.486111138037923,-0.0638888929140799,0.843055622676362,-0.248316720128059,0.144469633698463,-0.16371189057827
0,0.486111138037923,-0.0666666706026059,0.858333336144441,-0.225103840231896,0.110261179506779,-0.173180297017098
0,0.473611111088636,-0.0847222225390337,0.877777822509998,-0.222965821623802,0.103541657328606,-0.167987942695618
0,0.493055597454194,-0.0763888894734557,0.883333390043015,-0.16951510310173,0.173485726118088,-0.20616702735424
0,0.486111138037923,-0.0750000036681839,0.887500065692777,-0.0894917547702789,0.178678080439568,-0.226325571537018
0,0.486111138037923,-0.0750000036681839,0.887500065692777,-0.0433714315295219,0.0766635909676552,-0.225714713335037
0,0.500000008246606,-0.0805555590452358,0.880555606276507,-0.0812450796365738,-0.0403171069920063,-0.204334422945976
0,0.500000008246606,-0.0722222259796579,0.883333390043015,-0.139277279376984,-0.0668897479772568,-0.192422553896904
0,0.50138890012986,-0.0652777787193518,0.899999995394348,-0.162490159273148,-0.00977384392172098,-0.19028452038765
0,0.516666662221798,-0.0819444448505077,0.887500065692777,-0.156686931848526,0.0332921557128429,-0.202501833438873
0,0.522222229754814,-0.0875000002275597,0.866666687443965,-0.152105450630188,0.0342084541916847,-0.226631000638008
0,0.508333359546131,-0.0875000002275597,0.883333390043015,-0.0839939713478088,-0.0568104684352875,-0.203112691640854
0,0.512500035195893,-0.0847222225390337,0.881944498159761,-0.0293215326964855,-0.147218525409698,-0.206777885556221
0,0.519444445988306,-0.0708333340964038,0.880555606276507,-0.102014496922493,-0.10048733651638,-0.191506251692772
0,0.516666662221798,-0.0486111125881959,0.888888957576031,-0.122173048555851,-0.0971275717020035,-0.221133217215538
0,0.519444445988306,-0.0486111125881959,0.880555606276507,-0.140804439783096,-0.0919352173805237,-0.23243422806263
0,0.522222229754814,-0.0430555572111439,0.862500011794203,-0.279165416955948,-0.0827722400426865,-0.255952537059784
0,0.52083333787156,-0.033333335301303,0.861111119910949,-0.32284227013588,-0.0861319974064827,-0.263893783092499
0,0.515277818962402,-0.029166668768514,0.840277838909853,-0.321315109729767,-0.0403171069920063,-0.285274058580399
0,0.519444445988306,-0.0361111129898289,0.825000028194058,-0.314290165901184,0.00397062394768,-0.314290165901184
0,0.518055554105052,-0.0430555572111439,0.827777811960566,-0.28008171916008,0.0387899428606033,-0.323453158140182
0,0.509722251429385,-0.0416666683668809,0.85138887672817,-0.266337245702743,0.0329867228865623,-0.328340083360672
0,0.512500035195893,-0.03194444645704,0.87500003874349,-0.28008171916008,-0.00794124789535999,-0.28496864438057
0,0.519444445988306,-0.0166666676506515,0.89722221162784,-0.2379320114851,-0.0329867228865623,-0.277332812547684
0,0.512500035195893,-0.00972222266958873,0.89722221162784,-0.220827788114548,-0.0473420582711697,-0.247094988822937
0,0.509722251429385,-0.00972222266958873,0.876388930626744,-0.205250725150108,-0.0693332031369209,-0.226325571537018
0,0.508333359546131,0.00277777787846293,0.852777768611424,-0.178372651338577,-0.0858265683054924,-0.194255143404007
0,0.508333359546131,0.00277777787846293,0.852777768611424,-0.142637029290199,-0.0754418596625328,-0.17470745742321
0,0.526388905404577,0.00277777787846293,0.827777811960566,-0.108123145997524,-0.0891863256692886,-0.167987942695618
0,0.526388905404577,0.00277777787846293,0.827777811960566,-0.0647517144680023,-0.0720821022987366,-0.159741267561913
0,0.526388905404577,0.0125000003581147,0.836111163260091,-0.0604756586253643,-0.0546724386513233,-0.142637029290199
0,0.525000013521323,0.0180555564949145,0.843055622676362,-0.0934623852372169,-0.0739146918058395,-0.104457959532738
0,0.530555581054339,0.0111111115138517,0.837500055143345,-0.132557764649391,-0.0766635909676552,-0.0849102661013603
0,0.531944472937593,0.00972222266958873,0.85138887672817,-0.118507854640484,-0.0522289797663689,-0.0766635909676552
0,0.534722256704101,0.00694444498106275,0.841666730793107,-0.078801617026329,-0.0192422550171614,-0.0723875313997269
0,0.534722256704101,0.00694444498106275,0.841666730793107,-0.0791070461273193,-0.000916297896765172,-0.0723875313997269
0,0.545833343146276,-0.00138888893923146,0.852777768611424,-0.0775798857212067,-0.0390953756868839,-0.0757472887635231
0,0.536111148587356,-0.00277777787846293,0.876388930626744,-0.10598511993885,-0.0931569486856461,-0.0668897479772568
0,0.536111148587356,-0.00277777787846293,0.873611146860236,-0.0800233483314514,-0.0742201283574104,-0.0687223374843597
0,0.545833343146276,-0.00277777787846293,0.86805557932722,-0.0305432621389627,-0.0641408488154411,-0.0803287774324417
0,0.550000018796039,-0.00972222266958873,0.85138887672817,0.0406225398182869,-0.0943786799907684,-0.0943786799907684
0,0.550000018796039,-0.0111111115138517,0.84583340644287,0.0916297882795334,-0.0781907513737679,-0.0937678143382072
0,0.545833343146276,-0.0222222230277034,0.82916670384382,0.108734011650086,-0.160046696662903,-0.0739146918058395
0,0.541666667496514,-0.0111111115138517,0.813888941751883,0.0647517144680023,-0.199752941727638,-0.0665843114256859
0,0.536111148587356,-0.00972222266958873,0.812500049868629,0.0488692186772823,-0.154548913240433,-0.0729983970522881
0,0.536111148587356,0.00138888893923146,0.818055568777787,0.0180205255746841,-0.0632245540618896,-0.076052725315094
0,0.536111148587356,-0.00833333382532574,0.812500049868629,-0.00122173049021512,-0.0247400421649218,-0.0778853222727776
0,0.536111148587356,-0.00833333382532574,0.812500049868629,0.0284052342176437,-0.0311541277915239,-0.0885754600167274
0,0.548611126912784,-0.00277777787846293,0.806944482335612,0.0775798857212067,0.0140499006956816,-0.112704634666443
0,0.550000018796039,-0.00277777787846293,0.794444455386325,0.120340451598167,-0.0329867228865623,-0.108734011650086
0,0.541666667496514,0.00277777787846293,0.808333374218867,0.175318330526352,-0.0690277740359306,-0.107817716896534
0,0.54027777561326,0.0138888899621255,0.815277785011279,0.130114302039146,-0.00488692196086049,-0.11117747426033
0,0.551388910679293,0.0180555564949145,0.820833352544296,0.0445931628346443,0.04764748737216,-0.100181899964809
0,0.551388910679293,0.0208333341834404,0.805555590452358,-0.0149661982432008,0.0772744566202164,-0.0897971913218498
0,0.555555586329055,0.0152777788063885,0.812500049868629,-0.00855211354792118,0.0177150927484035,-0.0980438739061356
0,0.562499997121468,0.00833333382532574,0.831944487610329,0.0113010071218014,0.017409659922123,-0.102014496922493
0,0.558333370095563,0.0152777788063885,0.849999984844916,0.0259617734700441,0.0626136884093285,-0.0971275717020035
0,0.562499997121468,0.0194444453391775,0.85138887672817,0.00183259579353034,0.0543670058250427,-0.0901026204228401
0,0.558333370095563,0.00555555575692586,0.837500055143345,-0.0445931628346443,0.0739146918058395,-0.0647517144680023
0,0.562499997121468,0.00972222266958873,0.837500055143345,-0.0766635909676552,0.0287106670439243,-0.0458148941397667
0,0.565277780887976,0.0125000003581147,0.85138887672817,-0.0546724386513233,0.00855211354792118,-0.00946841109544039
0,0.562499997121468,0.00972222266958873,0.848611190209378,-0.0387899428606033,-0.0103847095742822,-0.029626963660121
0,0.56666667277123,0.00555555575692586,0.852777768611424,0.00427605677396059,-0.0250454749912024,-0.0268780700862408
0,0.558333370095563,-0.00138888893923146,0.854166660494678,0.0113010071218014,-0.0207694191485643,-0.0131336031481624
0,0.551388910679293,0.00277777787846293,0.837500055143345,-0.00427605677396059,0.0177150927484035,-0.0106901414692402
0,0.558333370095563,0.0111111115138517,0.825000028194058,-0.0461203269660473,0.0445931628346443,-0.011606439948082
0,0.548611126912784,0.0125000003581147,0.820833352544296,-0.0696386396884918,0.103847093880177,-0.0323758572340012
0,0.552777802562547,0.0166666676506515,0.831944487610329,-0.0516181141138077,0.0937678143382072,-0.0635299831628799
0,0.548611126912784,0.00972222266958873,0.834722271376837,-0.0268780700862408,-0.00794124789535999,-0.0513126812875271
0,0.53750004047061,0.0138888899621255,0.831944487610329,0.0201585534960032,0.00122173049021512,-0.0561996027827263
0,0.538888932353864,0.0125000003581147,0.837500055143345,0.0146607663482428,0.00244346098043024,-0.0610865242779255
0,0.548611126912784,0.0166666676506515,0.830555595727074,0.00183259579353034,0.0186313893646002,-0.0552833043038845
0,0.543055559379768,0.0180555564949145,0.825000028194058,-0.015577063895762,0.0299323964864016,-0.0335975885391235
0,0.531944472937593,0.0194444453391775,0.815277785011279,-0.0369573459029198,0.00946841109544039,-0.0397062413394451
0,0.545833343146276,0.0125000003581147,0.815277785011279,-0.0693332031369209,-0.106290549039841,-0.00152716308366507
0,0.533333364820847,0.0208333341834404,0.85138887672817,-0.0571159012615681,-0.100792765617371,0.0210748501121998
0,0.550000018796039,0.0222222230277034,0.858333336144441,-0.04764748737216,-0.0748309940099716,-0.0021380283869803
0,0.565277780887976,0.00972222266958873,0.841666730793107,-0.0467311926186085,-0.0488692186772823,-0.015577063895762
0,0.561111153862072,0.0111111115138517,0.82222224442755,-0.0390953756868839,-0.0406225398182869,-0.0204639863222837
0,0.555555586329055,0.00972222266958873,0.818055568777787,-0.0152716310694814,-0.0418442711234093,-0.0213802829384804
0,0.551388910679293,0.0180555564949145,0.826388920077312,-0.0027488935738802,-0.0464257597923279,-0.0299323964864016
0,0.561111153862072,0.0236111118719664,0.848611190209378,0.00824668072164059,-0.0543670058250427,-0.0271835029125214
0,0.568055564654484,0.0250000007162294,0.834722271376837,-0.0418442711234093,-0.0171042270958424,-0.0192422550171614
0,0.577777807837263,0.0222222230277034,0.841666730793107,-0.0687223374843597,-0.0479529201984406,-0.011606439948082
0,0.587500002396184,0.0166666676506515,0.848611190209378,-0.0891863256692886,-0.0045814891345799,-0.021685715764761
0,0.58611111051293,0.0111111115138517,0.826388920077312,-0.109650313854218,0.0143553335219622,-0.0448985956609249
0,0.570833348420992,0.0111111115138517,0.834722271376837,-0.116675265133381,0.0635299831628799,-0.0595593601465225
0,0.570833348420992,0.0111111115138517,0.834722271376837,-0.151189148426056,0.106901414692402,-0.0369573459029198
0,0.555555586329055,0.029166668768514,0.847222298326124,-0.154243469238281,0.0809396430850029,-0.0342084541916847
0,0.558333370095563,0.026388891079988,0.838888947026599,-0.0901026204228401,0.070249505341053,-0.0421497002243996
0,0.551388910679293,0.0222222230277034,0.834722271376837,-0.0748309940099716,0.0406225398182869,-0.0369573459029198
0,0.54027777561326,0.027777779924251,0.837500055143345,-0.0192422550171614,0.0323758572340012,-0.0360410511493683
0,0.522222229754814,0.03194444645704,0.825000028194058,0.0235183127224445,0.0601702257990837,-0.021685715764761
0,0.533333364820847,0.03194444645704,0.823611136310804,0.0558941699564457,0.0293215326964855,-0.000305432622553781
0,0.548611126912784,0.027777779924251,0.834722271376837,0.0488692186772823,-0.0103847095742822,-0.00427605677396059
0,0.548611126912784,0.026388891079988,0.837500055143345,0.0342084541916847,-0.0500909499824047,0.00580321997404099
0,0.541666667496514,0.029166668768514,0.831944487610329,0.0335975885391235,-0.0665843114256859,0.0201585534960032
0,0.541666667496514,0.0361111129898289,0.825000028194058,0.0525344125926495,-0.0537561401724815,0.0268780700862408
0,0.534722256704101,0.0388888906783549,0.809722266102121,0.0403171069920063,-0.0232128798961639,0.0354301854968071
0,0.533333364820847,0.0430555572111439,0.812500049868629,0.0122173046693206,0.027488935738802,0.0574213340878487
0,0.538888932353864,0.0388888906783549,0.825000028194058,-0.0256563406437635,0.0723875313997269,0.0513126812875271
0,0.544444451263022,0.0375000018340919,0.827777811960566,-0.0647517144680023,0.113926365971565,0.0537561401724815
0,0.545833343146276,0.027777779924251,0.831944487610329,-0.0561996027827263,0.116675265133381,0.0589484944939613
0,0.54027777561326,0.0236111118719664,0.818055568777787,0.00427605677396059,0.137139245867729,0.0656680166721344
0,0.541666667496514,0.0138888899621255,0.816666676894533,0.0497855171561241,0.143553331494331,0.0745255574584007
0,0.530555581054339,0.0152777788063885,0.811111157985375,0.0503963828086853,0.108734011650086,0.090408056974411
0,0.531944472937593,0.0152777788063885,0.825000028194058,0.0577267669141293,0.140499010682106,0.122173048555851
0,0.531944472937593,0.00277777787846293,0.773611125761372,0.015577063895762,0.0839939713478088,0.163101017475128
0,0.555555586329055,0.0138888899621255,0.808333374218867,0.114537231624126,0.0791070461273193,0.161268427968025
0,0.531944472937593,0.00277777787846293,0.823611136310804,0.145385921001434,0.258395999670029,0.16401731967926
0,0.505555575779623,-0.030555557612777,0.786111152710659,0.135306656360626,-0.109955742955208,0.308792382478714
0,0.515277818962402,-0.0458333348996699,0.765277823085705,-0.0354301854968071,-0.922406494617462,0.572075307369232
0,0.591666678045946,-0.0388888906783549,0.82222224442755,-0.177150920033455,-0.728151381015778,0.620944499969482
0,0.640277796712124,-0.0597222233422998,0.870833363093728,-0.139582708477974,0.26419922709465,0.262672066688538
0,0.605555596878487,-0.0875000002275597,0.77638890952788,-0.497855186462402,0.447764217853546,0.32253685593605
0,0.550000018796039,-0.100000002864918,0.726388898978447,-0.864679753780365,0.101098194718361,0.395840674638748
0,0.490277813687686,-0.125000002061652,0.698611158561081,-1.15575706958771,-0.693332076072693,0.731816589832306
0,0.44861110581392,-0.0805555590452358,0.733333358394718,-1.63101017475128,-0.879035115242004,1.11330187320709
0,0.447222262554524,-0.0777777813567098,0.765277823085705,-1.86039006710052,-0.47647488117218,1.32252323627472
0,0.531944472937593,-0.122222230451108,0.813888941751883,-1.7223345041275,-0.368351757526398,1.47768306732178
0,0.616666683320662,-0.200000005729836,0.834722271376837,-1.27762460708618,-0.68630713224411,1.46271681785583
0,0.618055575203916,-0.238888893369199,0.762500039319197,-0.852462470531464,-0.910800099372864,1.47493410110474
0,0.519444445988306,-0.202777789496344,0.705555569353494,-0.627969443798065,-0.677754998207092,1.72141826152801
0,0.513888927079148,-0.144444451959316,0.670833369519857,-0.452345728874206,-0.189673662185669,1.94927096366882
0,0.513888927079148,-0.144444451959316,0.670833369519857,0.181732416152954,0.62338799238205,2.35549640655518
0,0.608333332021137,-0.215277779977737,0.820833352544296,0.550084173679352,0.609338104724884,2.2568416595459
0,0.640277796712124,-0.252777787889811,0.788888936477167,0.811839938163757,0.166460782289505,2.26081228256226
0,0.640277796712124,-0.252777787889811,0.788888936477167,0.754724025726318,0.0180205255746841,2.25500893592835
0,0.581944483487025,-0.229166674498349,0.700000001820477,0.419358998537064,0.123089343309402,2.32586932182312
0,0.576388915954009,-0.227777782615095,0.687500023495048,-0.13744467496872,0.350636661052704,2.35885620117188
0,0.575000024070755,-0.268055574293678,0.705555569353494,-0.434936046600342,0.3378084897995,2.24890041351318
0,0.654166666920807,-0.386111116939059,0.808333374218867,-0.236404851078987,0.493884563446045,1.85580861568451
0,0.655555558804062,-0.437500019371745,0.961111141009813,0.425467640161514,0.238848313689232,1.59985601902008
0,0.627777818386695,-0.447222262554524,1.06250005399193,1.31733095645904,0.345138877630234,1.36558926105499
0,0.548611126912784,-0.454166673346937,1.04722224327614,1.92605817317963,0.747088193893433,1.19057631492615
0,0.529166689171085,-0.541666667496514,0.930555616825939,2.1258111000061,1.50975346565247,1.22386848926544
0,0.393055576355329,-0.58611111051293,0.861111119910949,2.13986086845398,1.69698369503021,1.67254900932312
0,0.213888888094483,-0.508333359546131,0.86805557932722,1.74188220500946,2.55311131477356,2.37565493583679
0,0.166666673467524,-0.326388911830706,0.901388887277602,0.814588785171509,3.60105061531067,3.00637340545654
0,0.0777777813567098,-0.466666700296224,0.86805557932722,-0.720515549182892,3.04119253158569,3.49689817428589
0,0.156944454596674,-0.525000013521323,0.870833363093728,-0.914770722389221,2.58579254150391,3.84845113754273
0,0.161111118090472,-0.454166673346937,0.84583340644287,-0.63438355922699,2.56410694122314,4.01918792724609
0,0.104166672436698,-0.404166687109433,0.795833347269579,-0.418748140335083,2.34877681732178,3.94527316093445
0,0.0472222237439329,-0.404166687109433,0.748611120486655,-0.469144523143768,1.73455190658569,3.78858613967896
0,0.0194444453391775,-0.477777786738398,0.733333358394718,-0.613003253936768,0.970970332622528,3.88265943527222
0,-0.0125000003581147,-0.502777792013115,0.740277817810989,-0.631023824214935,0.412028610706329,4.10470914840698
0,-0.029166668768514,-0.481944462388161,0.769444450111609,-0.379041880369186,0.212581098079681,4.2723913192749
0,-0.0736111117849297,-0.409722230330521,0.805555590452358,-0.163406446576118,0.469449937343597,4.10134935379028
0,-0.180555567988136,-0.390277792588821,0.863888903677457,-0.0424551330506802,0.566882967948914,3.82615447044373
0,-0.361111135976272,-0.413888905980283,0.883333390043015,-0.211970239877701,0.328645497560501,3.39641070365906
0,-0.444444478788016,-0.377777789951463,0.86805557932722,-0.527482151985168,-0.195171445608139,2.95231175422669
0,-0.581944483487025,-0.404166687109433,0.861111119910949,-0.464563012123108,-0.949284613132477,2.66245627403259
0,-0.644444472361887,-0.397222227693163,0.815277785011279,-0.439212113618851,-1.85703039169312,2.38542866706848
0,-0.598611137462217,-0.366666679197359,0.801388914802596,-0.477391183376312,-3.00148630142212,2.01585531234741
0,-0.481944462388161,-0.29166668768514,0.94305554652751,-0.633467257022858,-2.98560380935669,1.61207342147827
0,-0.476388894855144,-0.229166674498349,0.986111194908388,-1.15056467056274,-2.54547548294067,1.45844078063965
0,-0.413888905980283,-0.20972223675665,0.998611124609959,-1.39521622657776,-2.95842027664185,1.01464712619781
0,-0.348611133338914,-0.212499996211229,0.973611167959101,-1.70156514644623,-2.10748505592346,0.801149785518646
0,-0.344444457689151,-0.250000004123303,0.948611114060526,-1.69637274742127,-1.4401148557663,0.936456441879272
0,-0.351388892793493,-0.252777787889811,0.962500032893068,-1.50364482402801,-1.74371480941773,1.05924034118652
0,-0.318055560531181,-0.24583335278547,0.968055600426084,-1.59130394458771,-2.34755516052246,0.705243945121765
0,-0.236111109602691,-0.230555566381603,1.14166669684199,-1.2855658531189,-2.66062355041504,0.299323976039886
0,-0.220833347510754,-0.240277785252453,1.13750002119222,-0.603229403495789,-2.30540537834167,0.223882108926773
0,-0.216666671860991,-0.247222220356795,1.09444447005906,-0.689666867256165,-1.89856922626495,0.712268888950348
0,-0.248611112240049,-0.202777789496344,1.05972227022542,-1.37200331687927,-1.81304800510406,1.23669672012329
0,-0.234722242031366,-0.17361112072783,1.06666672964169,-1.76814949512482,-2.01096844673157,1.26693451404572
0,-0.17361112072783,-0.144444451959316,1.04722224327614,-1.99478042125702,-1.990198969841,1.02594816684723
0,-0.0819444448505077,-0.181944447715425,0.933333400592447,-2.21285939216614,-1.85092175006866,0.831082165241241
0,-0.0513888902767219,-0.262500006760661,0.861111119910949,-2.01432824134827,-1.85733580589294,0.553138494491577
0,-0.0375000018340919,-0.250000004123303,0.877777822509998,-1.70553576946259,-1.84328591823578,-0.0983493030071259
0,0.0236111118719664,-0.236111109602691,0.887500065692777,-1.84511852264404,-1.26052045822144,-0.739757835865021
0,0.0513888902767219,-0.345833349572405,0.987499989543926,-1.23364233970642,-0.788627028465271,-1.12368667125702
0,0.0625000010308258,-0.479166678621653,0.906944454810619,-0.966388821601868,-0.680503904819489,-0.993877768516541
0,0.0972222251763917,-0.551388910679293,0.904166671044111,-1.09772479534149,-0.35430184006691,-0.845132052898407
0,0.0250000007162294,-0.552777802562547,0.961111141009813,-0.626136898994446,-0.0424551330506802,-0.751669704914093
0,0.1194444466846,-0.611111115787646,0.911111130460381,-0.474336862564087,0.221438646316528,-0.535423398017883
0,0.197222234119292,-0.672222261403111,0.790277828360421,-0.696386396884918,0.65484756231308,-0.358272463083267
0,0.241666677135707,-0.672222261403111,0.695833374794573,-0.914465248584747,0.621860802173615,-0.23273965716362
0,0.272222225631511,-0.686111131611794,0.647222256128395,-2.06747341156006,0.152105450630188,-0.185703039169311
0,0.293055555256465,-0.683333347845286,0.809722266102121,-2.84205055236816,0.957225859165192,-0.408363401889801
0,0.194444450352783,-0.762500039319197,0.80277780668585,-3.22597932815552,2.3157901763916,-0.82527893781662
0,0.200000005729836,-0.775000017644626,0.788888936477167,-2.61205983161926,3.70795202255249,-1.23852932453155
0,0.206944452990142,-0.798611131036088,0.652777823661411,-2.2791383266449,3.67221641540527,-1.31610918045044
0,0.198611113846581,-0.862500011794203,0.500000008246606,-2.70643854141235,2.25562000274658,-1.26052045822144
0,0.213888888094483,-0.82222224442755,0.423611149163062,-3.55340313911438,1.04213607311249,-1.42270517349243
0,0.181944447715425,-0.929166724942685,0.525000013521323,-4.59248495101929,2.08763194084167,-1.95873939990997
0,0.163888889701015,-0.929166724942685,0.530555581054339,-5.29436922073364,3.48956775665283,-1.83687174320221
0,0.19166667874224,-0.934722292475701,0.304166666010569,-5.96021223068237,4.58240556716919,-1.09436511993408
0,0.130555557438704,-1.0305556379248,-0.0569444456537738,-6.7363166809082,-1.97431647777557,-1.58153009414673
0,0.215277779977737,-0.870833363093728,0.133333341205212,-5.92753076553345,-3.58700060844421,-2.01371717453003
0,0.304166666010569,-0.916666697993398,0.176388892338373,-4.90860748291016,-2.32739663124085,-2.61205983161926
0,0.401388903342925,-0.975000059842355,0.0750000036681839,-4.3203444480896,-1.41995620727539,-3.09067273139954
0,0.376388898068209,-0.936111184358955,-0.200000005729836,-4.61661386489868,-1.91781139373779,-2.99049091339111
0,0.413888905980283,-0.926388941176177,-0.300000014672736,-5.84292602539063,-1.91689515113831,-2.68750166893005
0,0.312500017310094,-0.893055633225794,-0.366666679197359,-6.67339754104614,-1.5079208612442,-2.29593706130981
0,0.388888900705567,-0.733333358394718,-0.375000006184955,-5.95104932785034,-0.226631000638008,-2.378098487854
0,0.350000000910239,-0.652777823661411,-0.502777792013115,-5.12118864059448,0.240375474095344,-1.85305976867676
0,0.462500024646461,-0.591666678045946,-0.702777785586986,-4.41991567611694,0.664926826953888,-0.862847149372101
0,0.591666678045946,-0.488888921804431,-0.86805557932722,-3.84509134292602,0.692110300064087,0.194255143404007
0,0.562499997121468,-0.297222230906227,-0.825000028194058,-2.36465930938721,0.268475264310837,0.64049220085144
0,0.456944457113445,-0.187500003092477,-0.925000049292922,-1.06748700141907,-0.960585594177246,0.731511116027832
0,0.548611126912784,-0.223611131277262,-0.987499989543926,-0.529925584793091,-0.959058463573456,0.761138081550598
0,0.587500002396184,-0.276388901281273,-1.05972227022542,-0.473726004362106,0.196393176913261,0.698524415493011
0,0.594444461812454,-0.262500006760661,-1.10138892947533,-0.28496864438057,0.411417752504349,0.479834645986557
0,0.534722256704101,-0.259722222994153,-1.08472222687628,-0.186008468270302,-0.170125976204872,0.463952153921127
0,0.595833353695709,-0.308333341660331,-1.04305556762637,0.170125976204872,-0.374154955148697,0.615752160549164
0,0.647222256128395,-0.381944465601225,-1.0513889189259,0.169820532202721,-1.12521374225616,0.754113137722015
0,0.602777813111979,-0.368055571080613,-0.965277816659576,0.341473668813705,-1.34481978416443,1.11727249622345
0,0.502777792013115,-0.388888900705567,-0.890277849459286,0.833525598049164,-1.43736588954925,1.30480813980102
0,0.408333338447267,-0.418055581630046,-0.793055563503071,0.876591622829437,-1.36711645126343,1.58947134017944
0,0.408333338447267,-0.418055581630046,-0.793055563503071,0.832609355449677,-0.920879364013672,1.43034100532532
0,0.287500012035377,-0.355555568443255,-0.716666704419527,-1.53968584537506,2.07541465759277,0.707992792129517
0,0.218055563744246,-0.305555557893823,-0.666666693870094,-1.91048109531403,0.9828822016716,0.03176499158144
0,0.29166668768514,-0.323611128064198,-0.591666678045946,-1.6456710100174,0.774577140808105,1.20279371738434
0,0.29166668768514,-0.323611128064198,-0.591666678045946,-0.634078145027161,0.815505087375641,1.22081422805786
0,0.449999997697174,-0.430555559955475,-0.590277786162692,-0.0430659987032413,0.405614525079727,0.994794070720673
0,0.513888927079148,-0.506944467662877,-0.740277817810989,-0.193644285202026,-0.653320372104645,0.375071257352829
0,0.513888927079148,-0.506944467662877,-0.740277817810989,0.112399205565453,-0.451429426670075,0.298407673835754
0,0.404166687109433,-0.443055586904762,-0.809722266102121,0.58062744140625,0.0980438739061356,0.410501450300217
0,0.334722238818301,-0.388888900705567,-0.837500055143345,0.562912344932556,-0.259312301874161,0.441655576229096
0,0.334722238818301,-0.388888900705567,-0.837500055143345,0.820086598396301,0.125532805919647,0.527176678180695
0,0.358333352209763,-0.381944465601225,-0.825000028194058,0.621249973773956,-0.16890424489975,0.184786736965179
0,0.331944455051793,-0.294444447139719,-0.913888914226889,0.209221348166466,-0.752280533313751,-0.36987891793251
0,0.331944455051793,-0.294444447139719,-0.913888914226889,0.278859972953796,-0.406225383281708,-0.853684186935425
0,0.308333341660331,-0.238888893369199,-0.877777822509998,0.473726004362106,-0.120340451598167,-1.16797435283661
0,0.476388894855144,-0.623611142736933,-0.962500032893068,0.277638256549835,0.373849540948868,-0.898888230323792
0,0.476388894855144,-0.623611142736933,-0.962500032893068,0.241902634501457,0.489303052425385,-0.24312436580658
0,0.380555573717971,-0.555555586329055,-0.947222222177272,0.0369573459029198,0.526260435581207,-0.202501833438873
0,0.326388911830706,-0.424999992422458,-0.906944454810619,-0.152410879731178,0.376598417758942,-0.662177920341492
0,0.368055571080613,-0.384722225055805,-0.880555606276507,0.0354301854968071,0.971275746822357,-1.37047612667084
0,0.479166678621653,-0.466666700296224,-0.818055568777787,-0.0992656052112579,0.990517973899841,-1.28862023353577
0,0.443055586904762,-0.490277813687686,-0.837500055143345,-0.0616973899304867,0.731511116027832,-0.606589198112488
0,0.437500019371745,-0.472222219205382,-0.780555585177642,-0.0549778714776039,0.758694648742676,-0.549778699874878
0,0.411111122213775,-0.390277792588821,-0.78333336894415,-0.0690277740359306,0.657901883125305,-0.811229050159454
0,0.469444484062732,-0.33750002258481,-0.75000001236991,0.27458393573761,0.802066087722778,-1.62581789493561
0,0.613888899554154,-0.380555573717971,-0.804166698569104,-0.0620028227567673,-0.149661988019943,-2.05159091949463
0,0.626388926503441,-0.463888916529715,-0.86805557932722,-0.44959682226181,-1.14995384216309,-2.28310894966125
0,0.502777792013115,-0.411111122213775,-0.825000028194058,-0.441350132226944,-0.56169056892395,-1.79869270324707
0,0.384722225055805,-0.277777793164528,-0.795833347269579,-0.459676086902618,0.147218525409698,-1.26571273803711
0,0.375000006184955,-0.216666671860991,-0.818055568777787,-0.544586360454559,0.602923989295959,-1.37658488750458
0,0.33750002258481,-0.102777780553444,-0.761111147435943,0.313068449497223,1.66277515888214,-1.59527456760406
0,0.422222257279808,-0.223611131277262,-0.77638890952788,2.46056509017944,0.912327229976654,-0.548556983470917
0,0.572222240304247,-0.341666673922643,-0.765277823085705,1.203404545784,0.489303052425385,-2.27516770362854
0,0.737500034044481,-0.252777787889811,-0.747222228603401,0.544891774654388,1.26907253265381,-1.95079815387726
0,0.630555602153203,-0.254166679773066,-0.854166660494678,-0.321009695529938,0.890030682086945,-2.83441472053528
0,0.688888915378302,-0.190277786858986,-0.75000001236991,0.200058370828629,1.22020328044891,-3.44130945205689
0,0.654166666920807,-0.0722222259796579,-0.695833374794573,1.2467759847641,1.31549835205078,-2.96391820907593
0,0.654166666920807,-0.0805555590452358,-0.690277807261557,1.44133651256561,2.93062591552734,-2.87992429733276
0,0.708333353120002,-0.030555557612777,-0.68472223972854,-0.0739146918058395,1.69026410579681,-1.45355379581451
0,0.923611157409668,-0.259722222994153,-1.08750001064279,-0.740674138069153,1.15758967399597,0.946535706520081
0,1.01388893532575,-0.208333344873396,-0.697222266677827,-0.351552963256836,1.46882545948029,0.177456349134445
0,0.744444493460751,-0.0972222251763917,-0.591666678045946,0.0867428630590439,1.07573366165161,-0.406836241483688
0,0.795833347269579,-0.102777780553444,-0.54722223502953,0.351552963256836,0.880562245845795,-1.1688905954361
0,0.809722266102121,-0.120833338567854,-0.512500035195893,0.256257981061935,0.676533281803131,-1.43064641952515
0,0.96666670854283,-0.148611115453114,-0.401388903342925,0.755334854125977,2.33442163467407,-1.21317839622498
0,0.92083337364316,-0.0763888894734557,-0.49166670557094,0.125838235020638,2.04334425926208,0.0723875313997269
0,0.930555616825939,0.0236111118719664,-0.608333332021137,0.00885754637420177,1.87321829795837,-0.148134827613831
0,0.859722228027695,-0.0166666676506515,-0.447222262554524,0.102930791676045,1.59619092941284,-0.657290995121002
0,0.879166714393253,-0.0611111152255539,-0.473611111088636,-0.210748508572578,0.506407260894775,-0.88361656665802
0,0.993055557076942,-0.111111119697004,-0.341666673922643,-0.11606439948082,0.536339700222015,-1.07878804206848
0,0.95000000594378,0.00416666691266287,-0.427777776188966,-0.133168622851372,0.362853944301605,-1.55251407623291
0,0.991666665193688,0.118055554801345,-0.405555578992687,-0.145385921001434,0.520762622356415,-1.96942949295044
0,1.10138892947533,0.180555567988136,-0.391666684472075,-0.0488692186772823,0.829249560832977,-1.88421380519867
0,0.895833319744586,0.356944460326509,-0.423611149163062,0.231517925858498,1.41445851325989,-1.76356792449951
0,0.844444514559616,0.026388891079988,-0.437500019371745,-0.0901026204228401,0.66737025976181,0.0235183127224445
0,0.969444492309338,0.172222228844576,-0.333333346935047,-0.0519235469400883,0.482888966798782,-0.206472456455231
0,0.916666697993398,0.298611122789481,-0.327777779402031,-0.443182736635208,0.80481493473053,-1.10658240318298
0,0.640277796712124,0.20138889761309,-0.440277803138253,-5.17097425460815,1.85855746269226,-2.71254706382752
0,0.830555595727074,0.0388888906783549,-0.105555564319952,1.22050881385803,0.144164204597473,-2.30448913574219
0,1.16111118320754,0.0680555564078778,-0.158333334323963,-0.450207680463791,1.02991878986359,-0.381485342979431
0,1.35416666874128,0.134722233088466,-0.259722222994153,0.0546724386513233,0.263588339090347,0.276416510343552
0,1.10416671324184,0.204166669223633,-0.231944458264858,0.144775062799454,-0.00580321997404099,0.0259617734700441
0,0.987499989543926,0.180555567988136,-0.211111128639904,0.0748309940099716,-0.208610475063324,-0.0940732508897781
0,1.00138890837647,0.180555567988136,-0.266666682410424,0.0684169083833694,-0.415693789720535,-0.247705861926079
0,0.986111194908388,0.233333350148112,-0.275000009398019,0.0189368221908808,-0.34880405664444,-0.258395999670029
0,1.0125000434425,0.212499996211229,-0.316666668647927,0.124921940267086,-0.394924372434616,0.66126161813736
0,1.08750001064279,0.241666677135707,-0.338888890156135,0.328340083360672,-0.480750948190689,1.46760380268097
0,1.13750002119222,0.193055558469529,-0.294444447139719,0.359188765287399,-0.636521577835083,1.70950639247894
0,1.14027780495873,0.115277783190802,-0.223611131277262,0.288022965192795,-0.394313514232635,2.462397813797
0,0.872222254976982,0.0986111170596459,-0.269444466176932,0.00885754637420177,-0.68325275182724,2.46392488479614
0,0.559722261978817,0.308333341660331,-0.208333344873396,-0.141109868884087,0.0342084541916847,0.377820163965225
0,0.577777807837263,0.379166681834717,-0.318055560531181,-0.0222965814173222,-0.133168622851372,-1.24921941757202
0,0.740277817810989,0.262500006760661,-0.344444457689151,-0.0204639863222837,0.00427605677396059,-1.2311989068985
0,0.923611157409668,0.187500003092477,-0.370833354847121,-0.0839939713478088,-0.610254406929016,-1.39277279376984
0,1.29444451225679,0.0736111117849297,-0.265277790527169,-0.239764615893364,0.59162300825119,-0.195171445608139
0,1.26805556647496,0.2194444556275,-0.390277792588821,0.165544480085373,0.382707089185715,0.113620936870575
0,1.13194445365921,0.156944454596674,-0.358333352209763,0.167377084493637,0.386372268199921,0.461814135313034
0,1.06527783775844,0.190277786858986,-0.352777784676747,0.260839462280273,0.51923543214798,0.701884150505066
0,0.947222222177272,0.118055554801345,-0.263888898643915,0.0952949747443199,0.569020986557007,0.737925231456757
0,0.952777789710289,-0.0430555572111439,-0.193055558469529,-0.00305432616733015,0.287412106990814,1.39857602119446
0,1.00277780025972,-0.116666675074056,-0.130555557438704,-0.0186313893646002,0.12156218290329,1.85947382450104
0,0.754166688019672,0.0777777813567098,-0.0680555564078778,0.756862044334412,1.72172367572784,3.63678622245789
0,0.89722221162784,0.275000009398019,-0.506944467662877,-0.00916297826915979,0.0149661982432008,1.38116633892059
0,0.770833341994863,0.16527778158427,-0.286111120152123,-0.019547687843442,-0.896750152111053,-0.594371855258942
0,0.708333353120002,0.00833333382532574,-0.223611131277262,0.244346097111702,0.795041143894196,1.13254415988922
0,0.888888957576031,0.130555557438704,-0.262500006760661,0.182648703455925,0.752280533313751,1.92300379276276
0,1.00972225967599,0.0486111125881959,-0.272222225631511,0.543975472450256,1.5268577337265,1.66980016231537
0,1.1236111996074,0.0513888902767219,-0.190277786858986,0.440739274024963,1.28037357330322,2.03265404701233
0,1.24166671794085,-0.208333344873396,-0.0861111144222878,0.51740288734436,0.755029439926147,1.37291967868805
0,1.26805556647496,-0.140277788465518,-0.111111119697004,-0.0497855171561241,0.525954961776733,0.786489009857178
0,1.27916670154099,-0.108333335930496,-0.12916666555545,-0.01191187184304,0.266337245702743,0.172569438815117
0,1.147222264375,-0.244444460902216,-0.123611110178398,0.0775798857212067,-0.30146199464798,0.170736834406853
0,1.10277782135859,-0.262500006760661,-0.198611113846581,-0.0855211317539215,-0.51434850692749,0.162490159273148
0,1.02361117850853,-0.216666671860991,-0.17361112072783,-0.167071640491486,-0.696997225284576,0.0167987942695618
0,0.92083337364316,-0.233333350148112,-0.0875000002275597,0.0381790772080422,-0.123394779860973,-0.197614908218384
0,1.02916674604155,-0.240277785252453,-0.190277786858986,-0.133779495954514,0.00305432616733015,-0.269391566514969
0,1.09444447005906,-0.211111128639904,-0.202777789496344,0.0729983970522881,-0.220827788114548,-0.524427831172943
0,1.0513889189259,-0.236111109602691,-0.194444450352783,-0.1795943826437,-0.532369077205658,-0.93095862865448
0,1.2250000153418,-0.12916666555545,-0.150000007336368,0.0546724386513233,-0.194255143404007,-1.47951567173004
0,1.05694448645892,-0.134722233088466,-0.2194444556275,-0.019547687843442,-0.359188765287399,-1.61757111549377
0,0.73055557462821,-0.0416666683668809,-0.312500017310094,0.00244346098043024,-0.238848313689232,-1.38422060012817
0,0.759722255552688,-0.0708333340964038,-0.2194444556275,-0.176540061831474,-0.215635433793068,-0.864679753780365
0,0.85138887672817,-0.0444444460554069,-0.140277788465518,-0.194560587406159,0.248316720128059,-0.510683357715607
0,0.930555616825939,0.0583333375370279,-0.231944458264858,-0.186008468270302,0.0931569486856461,-0.484110713005066
0,0.930555616825939,0.0472222237439329,-0.162500009973726,-0.214108273386955,0.697608113288879,-0.533590793609619
0,0.948611114060526,-0.00694444498106275,-0.14722222356986,-0.0345138870179653,0.816421389579773,-0.838412523269653
0,1.08888890252604,-0.0777777813567098,-0.152777778946911,0.0638354197144508,0.480140089988708,-0.900109946727753
0,1.11250006454136,-0.0152777788063885,-0.197222234119292,-0.00305432616733015,0.251065611839294,-0.604756593704224
0,1.03888889197661,0.0208333341834404,-0.172222228844576,0.0937678143382072,0.329256355762482,-0.578183948993683
0,1.03888889197661,0.0208333341834404,-0.172222228844576,0.0568104684352875,0.410196006298065,-0.426078498363495
0,0.95000000594378,0.0361111129898289,-0.179166676104882,0.0653625801205635,0.358272463083267,-0.355829000473023
0,0.847222298326124,0.0500000014324589,-0.197222234119292,-0.21135938167572,0.780685782432556,-0.425773084163666
0,0.847222298326124,0.0500000014324589,-0.197222234119292,-0.350025773048401,1.22722828388214,-0.784961819648743
0,1.07500008094122,0.111111119697004,-0.0722222259796579,-0.216246291995048,0.410196006298065,-0.559247136116028
0,1.11111117265811,0.111111119697004,-0.0375000018340919,-0.218995183706284,-0.0754418596625328,-0.198531210422516
0,1.11111117265811,0.111111119697004,-0.0375000018340919,-0.0629191175103188,-0.613003253936768,0.0583376325666905
0,1.0333333244436,0.0875000002275597,-0.0888888921108138,-0.0552833043038845,-0.599564254283905,0.0354301854968071
0,0.979166735492117,0.0888888921108138,-0.0819444448505077,-0.03176499158144,-0.774271726608276,0.0589484944939613
0,0.979166735492117,0.0888888921108138,-0.0819444448505077,0.207083314657211,-0.572991609573364,0.0714712366461754
0,1.01944450285877,0.126388893944906,-0.172222228844576,0.142637029290199,0.169820532202721,0.0873537287116051
0,1.11666674019113,0.0875000002275597,-0.280555576931036,0.336586743593216,1.4346170425415,0.0806342139840126
0,1.11666674019113,0.0875000002275597,-0.280555576931036,0.347582310438156,1.23669672012329,-0.0769690200686455
0,0.93750007624221,0.120833338567854,-0.00694444498106275,0.0620028227567673,0.0339030213654041,0.11087204515934
0,0.961111141009813,0.111111119697004,-0.026388891079988,0.0519235469400883,-0.122783914208412,0.0861319974064827
0,0.961111141009813,0.111111119697004,-0.026388891079988,-0.0638354197144508,-0.399200439453125,0.00488692196086049
0,1.00277780025972,0.0777777813567098,-0.130555557438704,-0.0442877300083637,0.0033597587607801,0.0836885422468185
0,1.01388893532575,0.0777777813567098,-0.123611110178398,-0.212886542081833,0.294437050819397,-0.0262672062963247
0,1.0694445134082,0.0708333340964038,-0.223611131277262,-0.24342979490757,0.87262099981308,-0.0183259565383196
0,1.0361111082101,0.0625000010308258,-0.12777778582816,-0.087659165263176,0.582459986209869,-0.0513126812875271
0,0.98888888142718,0.0638888929140799,-0.0458333348996699,0.00824668072164059,0.400727599859238,-0.0201585534960032
0,1.0125000434425,0.0666666706026059,-0.0750000036681839,0.0394008085131645,0.505185544490814,0.00641408516094089
0,0.975000059842355,0.108333335930496,-0.0750000036681839,0.323758572340012,1.22997713088989,0.288633823394775
0,0.938888968125464,0.0902777839940679,-0.0611111152255539,0.0998764708638191,1.03602743148804,0.439212113618851
0,0.947222222177272,0.0486111125881959,0.03194444645704,0.176234617829323,0.518624603748322,0.442571878433227
0,1.18750003174166,0.0152777788063885,0.00972222266958873,-0.0934623852372169,-0.0342084541916847,0.0687223374843597
0,0.958333357243305,0.0375000018340919,0.0750000036681839,0.0778853222727776,-0.318871647119522,0.113315500319004
0,0.84583340644287,0.0347222241455659,0.0416666683668809,0.104763388633728,-0.462119549512863,0.0665843114256859
0,0.86805557932722,0.0791666671619817,-0.0222222230277034,-0.0140499006956816,-0.189673662185669,0.200669229030609
0,0.89166674134254,0.113888891307548,-0.0208333341834404,0.0503963828086853,-0.0638354197144508,0.194255143404007
0,1.07222229717471,0.0458333348996699,-0.0583333375370279,0.090408056974411,0.0910189226269722,-0.160352125763893
0,1.06527783775844,0.0680555564078778,-0.030555557612777,-0.102014496922493,0.0913243517279625,-0.0464257597923279
0,1.10138892947533,0.0486111125881959,-0.0402777795226179,0.0568104684352875,0.124921940267086,0.113620936870575
0,0.970833384192592,0.0458333348996699,-0.0388888906783549,-0.0271835029125214,0.228769034147263,-0.108734011650086
0,1.00972225967599,0.0444444460554069,-0.033333335301303,-0.00763581553474069,0.242208063602448,-0.17440202832222
0,1.01527782720901,0.0500000014324589,0.0375000018340919,0.0452040284872055,0.0314595587551594,-0.233961388468742
0,1.03194452980806,0.0458333348996699,0.0222222230277034,0.0461203269660473,-0.108428582549095,-0.197309479117393
0,1.12638888612619,0.0416666683668809,0.00138888893923146,0.0888808965682983,-0.00427605677396059,-0.404698222875595
0,1.1291666698927,0.0916666697993398,-0.026388891079988,0.0671951770782471,0.0351247526705265,-0.22724187374115
0,1.1083333888916,0.0930555616825939,-0.0458333348996699,-0.109650313854218,0.0497855171561241,-0.00977384392172098
0,1.04583335139288,0.0652777787193518,-0.0152777788063885,-0.122173048555851,-0.0901026204228401,0.0219911485910416
0,1.0361111082101,0.0583333375370279,0.00555555575692586,-0.0045814891345799,-0.21135938167572,-0.00580321997404099
0,1.0333333244436,0.0722222259796579,-0.00138888893923146,0.0164933614432812,-0.220827788114548,0.0403171069920063
0,1.03472221632685,0.0805555590452358,-0.00694444498106275,0.0607810914516449,-0.208915919065475,0.0641408488154411
0,1.04861113515939,0.0722222259796579,-0.0458333348996699,0.0754418596625328,0.0546724386513233,-0.0470366254448891
0,1.04861113515939,0.0638888929140799,-0.0583333375370279,0.0949895456433296,0.214413702487946,-0.0766635909676552
0,1.05416670269241,0.0750000036681839,-0.0652777787193518,0.0537561401724815,0.466090172529221,-0.0690277740359306
0,1.02777785415829,0.0819444448505077,-0.00833333382532574,-0.0210748501121998,0.626136898994446,-0.0620028227567673
0,1.01666671909226,0.0944444474878658,0.0138888899621255,0.00824668072164059,0.502131223678589,0.0131336031481624
0,1.01666671909226,0.0944444474878658,0.0138888899621255,0.0143553335219622,0.648128032684326,0.118507854640484
0,1.00694447590948,0.0819444448505077,-0.00555555575692586,-0.0100792767480016,0.968221426010132,0.138055548071861
0,1.05000002704265,0.0500000014324589,0.0416666683668809,-0.153021737933159,0.996626675128937,0.0824668109416962
0,1.04166667574312,0.0402777795226179,0.144444451959316,-0.194560587406159,0.591928422451019,-0.140804439783096
0,1.0361111082101,0.0583333375370279,0.111111119697004,-0.0247400421649218,0.192422553896904,-0.194255143404007
0,1.00972225967599,0.0944444474878658,0.100000002864918,0.0384845100343227,0.272445887327194,-0.142942473292351
0,0.994444448960196,0.131944449321958,0.115277783190802,0.392786353826523,0.675311505794525,0.0815505087375641
0,0.969444492309338,0.0805555590452358,0.116666675074056,0.0360410511493683,-0.378431022167206,-0.118202425539494
0,1.04444445950963,0.0986111170596459,0.100000002864918,0.0491746515035629,-0.369573473930359,-0.0775798857212067
0,1.03888889197661,0.0833333367337618,0.0722222259796579,0.0494800843298435,-0.266337245702743,-0.0888808965682983
0,1.01388893532575,0.0819444448505077,0.101388894748172,0.125532805919647,-0.389732033014297,-0.123089343309402
0,1.01388893532575,0.0819444448505077,0.101388894748172,-0.10567969083786,0.584598064422607,-0.0510072484612465
0,0.956944465360051,0.0763888894734557,0.218055563744246,-0.0968221426010132,1.25349545478821,-0.0027488935738802
0,0.899999995394348,0.0750000036681839,0.152777778946911,0.01191187184304,-0.251981914043427,-0.0226020142436027
0,0.899999995394348,0.0750000036681839,0.152777778946911,0.00580321997404099,0.02382374368608,0.0265726372599602
0,1.02083339474202,0.0888888921108138,0.0986111170596459,-0.00427605677396059,0.0626136884093285,0.0143553335219622
5,1.03194452980806,0.0666666706026059,0.0750000036681839,0.0106901414692402,0.121256753802299,-0.0464257597923279
5,1.03194452980806,0.0666666706026059,0.0750000036681839,0.0641408488154411,0.0152716310694814,0.0986547395586967
5,1.02500007039179,0.122222230451108,0.1194444466846,0.0351247526705265,0.0415388382971287,0.0717766657471657
5,0.984722303025134,0.101388894748172,0.0888888921108138,0.0250454749912024,0.0342084541916847,0.0326812900602817
5,0.984722303025134,0.101388894748172,0.0888888921108138,-0.0171042270958424,-0.124311074614525,-0.037568211555481
5,1.00555558402623,0.0833333367337618,0.0986111170596459,-0.00641408516094089,-0.0164933614432812,-0.0561996027827263
5,1.02083339474202,0.0944444474878658,0.101388894748172,0.0244346093386412,0.0354301854968071,-0.0198531206697226
5,1.02083339474202,0.0944444474878658,0.101388894748172,0.0366519130766392,0.0167987942695618,-0.03176499158144
5,1.01666671909226,0.0916666697993398,0.102777780553444,0.0308486949652433,-0.0308486949652433,0.00671951752156019
5,1.01666671909226,0.102777780553444,0.0861111144222878,0.0268780700862408,0.0207694191485643,-0.00824668072164059
5,1.00000001649321,0.108333335930496,0.0972222251763917,0.00733038317412138,-0.0711658000946045,-0.0226020142436027
5,0.986111194908388,0.118055554801345,0.0916666697993398,-0.0311541277915239,-0.189673662185669,0.037568211555481
5,0.998611124609959,0.108333335930496,0.0833333367337618,-0.0595593601465225,-0.0650571510195732,0.0265726372599602
5,1.02916674604155,0.0819444448505077,0.0777777813567098,-0.0210748501121998,-0.0171042270958424,-0.0708603709936142
5,1.01388893532575,0.0750000036681839,0.0736111117849297,0.0302378293126821,-0.00427605677396059,-0.0488692186772823
5,1.0125000434425,0.0847222225390337,0.0847222225390337,0.0345138870179653,-0.0329867228865623,-0.0626136884093285
5,1.00277780025972,0.0916666697993398,0.0902777839940679,0.0311541277915239,-0.01191187184304,-0.0665843114256859
5,1.02361117850853,0.101388894748172,0.0875000002275597,0.0259617734700441,-0.0470366254448891,-0.0797179117798805
5,1.00972225967599,0.100000002864918,0.0972222251763917,0.019547687843442,-0.0867428630590439,-0.0400116741657257
5,1.02222228662528,0.104166672436698,0.0847222225390337,0.0516181141138077,0.0241291765123606,-0.0103847095742822
5,1.01666671909226,0.0958333393711199,0.0958333393711199,0.0607810914516449,-0.0210748501121998,-0.0167987942695618
5,1.02083339474202,0.0986111170596459,0.0819444448505077,0.0653625801205635,0.248011291027069,0.00519235478714108
5,1.00833336779274,0.118055554801345,0.101388894748172,0.10048733651638,0.247400417923927,0.0180205255746841
5,0.976388951725609,0.0944444474878658,0.113888891307548,0.0500909499824047,-0.0482583530247212,-0.0268780700862408
5,1.00000001649321,0.113888891307548,0.0930555616825939,0.0635299831628799,0.0766635909676552,0.0363464802503586
5,1.01944450285877,0.108333335930496,0.0888888921108138,0.0558941699564457,0.0629191175103188,0.0381790772080422
5,1.01805561097552,0.100000002864918,0.0986111170596459,0.0616973899304867,-0.00549778714776039,0.0629191175103188
5,0.969444492309338,0.131944449321958,0.104166672436698,0.00580321997404099,-0.15332718193531,0.103541657328606
5,0.973611167959101,0.111111119697004,0.0986111170596459,-0.0448985956609249,-0.124921940267086,-0.01191187184304
5,1.02500007039179,0.0916666697993398,0.0763888894734557,-0.0659734457731247,-0.081855945289135,-0.0647517144680023
5,1.05277781080915,0.0680555564078778,0.0722222259796579,-0.0595593601465225,-0.239153742790222,-0.361937671899795
5,1.1708333291426,0.152777778946911,0.0208333341834404,0.0934623852372169,0.219606056809425,-0.0983493030071259
5,0.908333346693873,0.134722233088466,0.134722233088466,-0.0491746515035629,-0.28496864438057,-0.101098194718361
5,0.916666697993398,0.116666675074056,0.10972222781375,-0.0983493030071259,-0.134084925055504,-0.098960168659687
5,1.04583335139288,0.101388894748172,0.0777777813567098,0.0971275717020035,0.176234617829323,0.0406225398182869
5,1.0305556379248,0.134722233088466,0.0736111117849297,0.0836885422468185,0.147829383611679,0.0882700309157372
5,1.02222228662528,0.118055554801345,0.0986111170596459,0.0916297882795334,0.00397062394768,0.04764748737216
5,1.01944450285877,0.120833338567854,0.0930555616825939,0.0696386396884918,0.0183259565383196,0.0381790772080422
5,1.00972225967599,0.123611110178398,0.0791666671619817,0.0387899428606033,0.0299323964864016,0.0439822971820831
5,0.99583334084345,0.141666668192807,0.0763888894734557,0.00885754637420177,0.00946841109544039,0.00733038317412138
5,1.00833336779274,0.102777780553444,0.0930555616825939,0.0287106670439243,-0.0192422550171614,-0.0265726372599602
5,1.01944450285877,0.101388894748172,0.0944444474878658,0.0705549344420433,-0.0604756586253643,-0.037568211555481
5,1.02500007039179,0.0916666697993398,0.0819444448505077,0.0864374339580536,-0.04764748737216,-0.0421497002243996
5,1.00000001649321,0.105555564319952,0.0777777813567098,0.0626136884093285,-0.078801617026329,-0.0308486949652433
5,0.993055557076942,0.111111119697004,0.0902777839940679,-0.015577063895762,-0.136528387665749,-0.0577267669141293
5,1.03194452980806,0.108333335930496,0.0708333340964038,-0.0268780700862408,0.0259617734700441,0.00183259579353034
5,1.01944450285877,0.104166672436698,0.0875000002275597,0.00122173049021512,0.01191187184304,0.0122173046693206
5,1.00555558402623,0.104166672436698,0.0847222225390337,-0.00916297826915979,-0.0369573459029198,-0.00671951752156019
5,1.00555558402623,0.0986111170596459,0.0875000002275597,-0.0021380283869803,-0.0754418596625328,-0.00610865233466029
5,0.986111194908388,0.113888891307548,0.0944444474878658,0.0021380283869803,-0.131641462445259,0.0360410511493683
5,1.00000001649321,0.118055554801345,0.0666666706026059,-0.0021380283869803,-0.123089343309402,0.0748309940099716
5,1.04305556762637,0.1194444466846,0.0361111129898289,-0.133168622851372,-0.0134390350431204,0.0800233483314514
5,1.02222228662528,0.0916666697993398,0.0888888921108138,-0.103847093880177,-0.126449108123779,0.0045814891345799
5,0.997222232726705,0.120833338567854,0.0722222259796579,-0.129197999835014,-0.197614908218384,-0.0302378293126821
5,1.02916674604155,0.0888888921108138,0.0750000036681839,-0.021685715764761,-0.132863193750381,-0.0601702257990837
5,1.0125000434425,0.105555564319952,0.0875000002275597,0.0134390350431204,-0.310319542884827,-0.00305432616733015
5,1.0125000434425,0.116666675074056,0.0444444460554069,-0.0922406539320946,-0.433714330196381,-0.0177150927484035
5,1.02500007039179,0.118055554801345,0.029166668768514,-0.257174253463745,-0.328645497560501,-0.00885754637420177
5,1.0361111082101,0.112499999424294,0.0430555572111439,-0.0986547395586967,-0.22693644464016,-0.0699440687894821
5,1.02916674604155,0.101388894748172,0.030555557612777,-0.08460483700037,-0.149356558918953,-0.0629191175103188
5,1.01111115155925,0.0958333393711199,0.0430555572111439,-0.280692577362061,-0.389732033014297,-0.125838235020638
5,1.01388893532575,0.125000002061652,0.00555555575692586,-0.463341295719147,-0.34391713142395,-0.121867619454861
5,1.01944450285877,0.104166672436698,0.030555557612777,-0.346971452236175,-0.390953749418259,-0.109650313854218
5,1.02777785415829,0.105555564319952,0.0194444453391775,-0.0406225398182869,-0.131641462445259,-0.0424551330506802
5,1.00694447590948,0.115277783190802,0.0347222241455659,0.0323758572340012,-0.146913096308708,0.0143553335219622
5,1.00000001649321,0.122222230451108,0.00277777787846293,-0.00427605677396059,-0.119424156844616,0.0323758572340012
5,1.00694447590948,0.136111112815755,0.0194444453391775,0.0427605658769607,-0.0736092627048492,0.0351247526705265
5,1.03194452980806,0.115277783190802,0.00555555575692586,0.029626963660121,0.0125227374956012,0.000610865245107561
5,1.00972225967599,0.120833338567854,0.00555555575692586,-0.0180205255746841,-0.0299323964864016,0.00855211354792118
5,1.1291666698927,0.116666675074056,0.187500003092477,0.601702272891998,0.511905074119568,0.0852157026529312
5,1.0125000434425,0.13750000469901,0.00833333382532574,-0.0140499006956816,-0.231823354959488,0.0201585534960032
5,1.10416671324184,0.111111119697004,-0.0680555564078778,-0.300851136445999,0.271529614925385,-0.0189368221908808
5,1.0125000434425,0.111111119697004,0.0666666706026059,-0.107512280344963,0.0937678143382072,-0.0342084541916847
5,1.01111115155925,0.12777778582816,0.0513888902767219,0.0565050356090069,0.264810085296631,-0.00397062394768
5,0.977777843608863,0.130555557438704,0.0541666679652478,0.181732416152954,0.238848313689232,0.0222965814173222
5,1.0125000434425,0.123611110178398,0.0430555572111439,0.264810085296631,0.3961461186409,0.0335975885391235
5,0.994444448960196,0.136111112815755,0.00138888893923146,0.119424156844616,0.218689754605293,0.0204639863222837
5,1.04305556762637,0.0916666697993398,0.0111111115138517,0.0418442711234093,0.0262672062963247,0.0366519130766392
5,1.03888889197661,0.0777777813567098,0.0125000003581147,-0.0357356183230877,0.129503428936005,-0.0134390350431204
5,1.05694448645892,0.154166670830166,0.0833333367337618,0.0226020142436027,0.150272846221924,0.0265726372599602
5,1.03194452980806,0.0972222251763917,0.0833333367337618,0.171958565711975,0.689055979251862,0.0268780700862408
5,1.00416669214298,0.104166672436698,0.105555564319952,0.345444291830063,0.616057574748993,-0.0167987942695618
5,0.969444492309338,0.108333335930496,0.0916666697993398,0.291993588209152,0.337197601795196,0.0632245540618896
5,0.94305554652751,0.105555564319952,0.052777782159976,0.0907134860754013,-0.0113010071218014,-0.0739146918058395
5,1.11111117265811,0.106944444047242,0.052777782159976,0.16920967400074,-0.0656680166721344,0.0167987942695618
5,0.994444448960196,0.113888891307548,0.101388894748172,0.103541657328606,0.273667633533478,0.0167987942695618
5,0.977777843608863,0.113888891307548,0.0958333393711199,0.0659734457731247,-0.0992656052112579,-0.013744467869401
5,1.01111115155925,0.123611110178398,0.0819444448505077,0.0748309940099716,0.0406225398182869,-0.00366519158706069
5,1.00277780025972,0.126388893944906,0.0750000036681839,0.0525344125926495,-0.0106901414692402,-0.00488692196086049
5,1.01111115155925,0.125000002061652,0.0750000036681839,0.0415388382971287,0.0253509078174829,0.0027488935738802
5,1.00972225967599,0.120833338567854,0.0819444448505077,0.0427605658769607,0.0103847095742822,0.00671951752156019
5,1.01944450285877,0.118055554801345,0.0805555590452358,0.0345138870179653,0.013744467869401,0.01191187184304
5,1.01666671909226,0.120833338567854,0.0611111152255539,0.0186313893646002,0.0219911485910416,-0.000610865245107561
5,1.01666671909226,0.120833338567854,0.0611111152255539,0.0045814891345799,0.00916297826915979,0.0146607663482428
5,1.00555558402623,0.1194444466846,0.0722222259796579,-0.0109955742955208,0.00794124789535999,0.0226020142436027
5,1.00555558402623,0.112499999424294,0.0750000036681839,-0.00610865233466029,0.019547687843442,0.0387899428606033
5,1.00555558402623,0.112499999424294,0.0750000036681839,0.01191187184304,0.0308486949652433,0.0406225398182869
5,1.0125000434425,0.104166672436698,0.0777777813567098,0.0290160998702049,0.0198531206697226,0.0277943685650826
5,1.00694447590948,0.113888891307548,0.0722222259796579,0.0229074470698834,0.0140499006956816,0.0198531206697226
5,1.00694447590948,0.113888891307548,0.0722222259796579,0.00794124789535999,0.00702495034784079,0.0280998013913631
5,1.00833336779274,0.118055554801345,0.0597222233422998,0.00885754637420177,0.0103847095742822,0.0198531206697226
5,1.01944450285877,0.106944444047242,0.0750000036681839,0.015577063895762,0.00977384392172098,0.00824668072164059
5,1.01944450285877,0.106944444047242,0.0750000036681839,0.0323758572340012,-0.00366519158706069,0.00122173049021512
5,1.0125000434425,0.10972222781375,0.0722222259796579,0.0268780700862408,-0.00519235478714108,-0.00397062394768
5,1.01111115155925,0.118055554801345,0.0750000036681839,0.00824668072164059,0.00488692196086049,0.00366519158706069
5,1.01111115155925,0.118055554801345,0.0750000036681839,-0.00152716308366507,0.00519235478714108,0.00702495034784079
5,1.0125000434425,0.113888891307548,0.0722222259796579,0.00122173049021512,0.0106901414692402,0.013744467869401
5,1.01388893532575,0.112499999424294,0.0722222259796579,0.0152716310694814,0.00733038317412138,0.00122173049021512
5,1.0125000434425,0.111111119697004,0.0708333340964038,0.0103847095742822,0.0109955742955208,0.00977384392172098
5,1.0125000434425,0.108333335930496,0.0736111117849297,0.0027488935738802,0.00397062394768,0.0186313893646002
5,1.01388893532575,0.111111119697004,0.0666666706026059,-0.00549778714776039,0.0113010071218014,0.0232128798961639
5,1.0125000434425,0.108333335930496,0.0680555564078778,-0.00671951752156019,0.017409659922123,0.0256563406437635
5,1.01944450285877,0.111111119697004,0.0708333340964038,-0.00397062394768,0.013744467869401,0.0222965814173222
5,1.01666671909226,0.10972222781375,0.0750000036681839,-0.00549778714776039,0.0161879286170006,0.021685715764761
5,1.01527782720901,0.108333335930496,0.0777777813567098,0.0027488935738802,0.00519235478714108,0.0213802829384804
5,1.00555558402623,0.118055554801345,0.0722222259796579,0.00702495034784079,-0.000916297896765172,0.00702495034784079
5,1.00694447590948,0.111111119697004,0.0791666671619817,-0.00305432616733015,-0.00733038317412138,-0.00183259579353034
5,1.00833336779274,0.115277783190802,0.0750000036681839,-0.0152716310694814,-0.00397062394768,0.00549778714776039
5,1.01666671909226,0.10972222781375,0.0652777787193518,-0.0152716310694814,-0.00366519158706069,0.00885754637420177
5,1.02500007039179,0.104166672436698,0.0777777813567098,-0.0183259565383196,-0.00152716308366507,-0.00305432616733015
5,1.01388893532575,0.104166672436698,0.0763888894734557,-0.0161879286170006,-0.019547687843442,-0.00733038317412138
5,1.00416669214298,0.104166672436698,0.0750000036681839,-0.0204639863222837,-0.00763581553474069,0.00152716308366507
5,1.00555558402623,0.106944444047242,0.0750000036681839,-0.0287106670439243,-0.00824668072164059,0.00366519158706069
5,1.00972225967599,0.106944444047242,0.0777777813567098,-0.0302378293126821,-0.00488692196086049,0.015577063895762
5,1.00972225967599,0.0986111170596459,0.0736111117849297,-0.021685715764761,-0.00305432616733015,0.0033597587607801
5,1.01805561097552,0.0944444474878658,0.0638888929140799,-0.0177150927484035,-0.0045814891345799,0.0171042270958424
5,1.01388893532575,0.0944444474878658,0.0736111117849297,-0.011606439948082,-0.00183259579353034,0.0100792767480016
5,1.0125000434425,0.0972222251763917,0.0819444448505077,-0.0146607663482428,-0.00427605677396059,-0.00122173049021512
5,1.00972225967599,0.108333335930496,0.0777777813567098,-0.0113010071218014,-0.00641408516094089,0.00794124789535999
5,1.0125000434425,0.106944444047242,0.0750000036681839,-0.00763581553474069,-0.0152716310694814,0.0021380283869803
5,1.01805561097552,0.101388894748172,0.0694444482911319,-0.0189368221908808,-0.00183259579353034,-0.0027488935738802
5,1.01805561097552,0.102777780553444,0.0847222225390337,-0.0259617734700441,-0.00183259579353034,-0.00702495034784079
5,1.0125000434425,0.108333335930496,0.0750000036681839,-0.037568211555481,-0.0100792767480016,-0.00885754637420177
5,1.01944450285877,0.104166672436698,0.0722222259796579,-0.0256563406437635,-0.0100792767480016,-0.0140499006956816
5,1.0125000434425,0.0986111170596459,0.0819444448505077,-0.0207694191485643,-0.013744467869401,-0.00641408516094089
5,1.01111115155925,0.0944444474878658,0.0722222259796579,-0.0262672062963247,-0.0122173046693206,-0.0113010071218014
5,1.0125000434425,0.100000002864918,0.0750000036681839,-0.0250454749912024,-0.00397062394768,-0.0103847095742822
5,1.01111115155925,0.101388894748172,0.0777777813567098,-0.0280998013913631,-0.01191187184304,0.00122173049021512
5,1.00972225967599,0.0972222251763917,0.0736111117849297,-0.0302378293126821,-0.0113010071218014,-0.00152716308366507
5,1.01805561097552,0.0916666697993398,0.0763888894734557,-0.01191187184304,-0.021685715764761,-0.01191187184304
5,1.01805561097552,0.0958333393711199,0.0750000036681839,-0.00397062394768,-0.00397062394768,-0.00366519158706069
5,1.0125000434425,0.104166672436698,0.0777777813567098,-0.00610865233466029,-0.0201585534960032,-0.0100792767480016
5,1.01527782720901,0.108333335930496,0.0750000036681839,-0.0201585534960032,-0.0152716310694814,0.00366519158706069
5,1.0125000434425,0.104166672436698,0.0750000036681839,-0.0222965814173222,-0.013744467869401,-0.00824668072164059
5,1.00972225967599,0.104166672436698,0.0750000036681839,-0.0241291765123606,-0.017409659922123,-0.00549778714776039
5,1.01944450285877,0.108333335930496,0.0722222259796579,-0.0186313893646002,-0.000305432622553781,-0.00946841109544039
5,1.02222228662528,0.10972222781375,0.0694444482911319,-0.0164933614432812,-0.00610865233466029,-0.0122173046693206
5,1.01666671909226,0.111111119697004,0.0652777787193518,-0.0100792767480016,-0.0128281703218818,-0.0146607663482428
5,1.01111115155925,0.111111119697004,0.0625000010308258,-0.019547687843442,-0.0125227374956012,-0.0149661982432008
5,1.00833336779274,0.120833338567854,0.0680555564078778,-0.0244346093386412,-0.0210748501121998,-0.00702495034784079
5,1.01805561097552,0.102777780553444,0.052777782159976,-0.0210748501121998,-0.0167987942695618,-0.0103847095742822
5,1.02222228662528,0.0861111144222878,0.0819444448505077,0.0201585534960032,-0.0021380283869803,-0.01588249579072
5,1.0125000434425,0.0902777839940679,0.0777777813567098,0.0424551330506802,-0.00305432616733015,-0.0183259565383196
5,1.00694447590948,0.0902777839940679,0.0722222259796579,0.0482583530247212,-0.0122173046693206,-0.0247400421649218
5,1.01111115155925,0.0986111170596459,0.0708333340964038,0.0577267669141293,-0.00885754637420177,-0.0277943685650826
5,1.00694447590948,0.108333335930496,0.0680555564078778,0.0513126812875271,-0.0226020142436027,-0.0131336031481624
5,1.00833336779274,0.120833338567854,0.0638888929140799,0.0262672062963247,-0.0235183127224445,-0.00549778714776039
5,1.01527782720901,0.120833338567854,0.0569444456537738,0.0198531206697226,-0.0128281703218818,-0.00397062394768
5,1.01111115155925,0.118055554801345,0.0625000010308258,0.0100792767480016,-0.00549778714776039,0.000610865245107561
5,1.01527782720901,0.118055554801345,0.0652777787193518,-0.00152716308366507,0.00549778714776039,0.0131336031481624
5,1.01111115155925,0.122222230451108,0.0625000010308258,-0.00702495034784079,0.00610865233466029,0.0183259565383196
5,1.01388893532575,0.113888891307548,0.0750000036681839,-0.00977384392172098,-0.000305432622553781,0.0265726372599602
5,1.01666671909226,0.116666675074056,0.0722222259796579,0.000305432622553781,0.0021380283869803,0.027488935738802
5,1.0125000434425,0.10972222781375,0.0652777787193518,-0.00733038317412138,0.00946841109544039,0.0241291765123606
5,1.00972225967599,0.108333335930496,0.0763888894734557,0.011606439948082,0.000610865245107561,0.00702495034784079
5,1.01111115155925,0.112499999424294,0.0652777787193518,0.0262672062963247,0.000916297896765172,0.000610865245107561
5,1.00972225967599,0.112499999424294,0.0666666706026059,0.0241291765123606,-0.00702495034784079,0.00152716308366507
5,1.00972225967599,0.112499999424294,0.0708333340964038,0.0222965814173222,-0.01588249579072,-0.00763581553474069
5,1.01527782720901,0.111111119697004,0.0694444482911319,0.01588249579072,-0.00977384392172098,-0.00885754637420177
5,1.01527782720901,0.112499999424294,0.0583333375370279,0.0131336031481624,-0.013744467869401,-0.00519235478714108
5,1.01527782720901,0.115277783190802,0.0611111152255539,0.00244346098043024,0.0027488935738802,-0.00946841109544039
5,1.00972225967599,0.116666675074056,0.0652777787193518,-0.0204639863222837,-0.00580321997404099,0.00183259579353034
5,1.0125000434425,0.116666675074056,0.0652777787193518,-0.0235183127224445,0.00702495034784079,0.013744467869401
5,1.01944450285877,0.113888891307548,0.0541666679652478,-0.0305432621389627,0.00733038317412138,0.0253509078174829
5,1.01805561097552,0.105555564319952,0.0569444456537738,-0.037568211555481,0.0134390350431204,0.029626963660121
5,1.01666671909226,0.105555564319952,0.0625000010308258,-0.0186313893646002,0.0125227374956012,0.0345138870179653
5,1.0125000434425,0.104166672436698,0.0736111117849297,-0.0241291765123606,0.0183259565383196,0.0455094613134861
5,1.0125000434425,0.108333335930496,0.0805555590452358,-0.01191187184304,0.0183259565383196,0.0436768643558025
5,1.00833336779274,0.113888891307548,0.0722222259796579,-0.00183259579353034,0.0113010071218014,0.0433714315295219
5,1.01111115155925,0.100000002864918,0.0763888894734557,0.0235183127224445,-0.000916297896765172,0.0280998013913631
5,1.01944450285877,0.0958333393711199,0.0736111117849297,0.0332921557128429,-0.00366519158706069,-0.00152716308366507
5,1.0125000434425,0.0986111170596459,0.0805555590452358,0.0201585534960032,-0.00916297826915979,-0.0177150927484035
5,1.01388893532575,0.104166672436698,0.0736111117849297,0.0222965814173222,-0.0222965814173222,-0.0326812900602817
5,1.0125000434425,0.101388894748172,0.0666666706026059,0.0164933614432812,-0.0305432621389627,-0.0348193198442459
5,1.00833336779274,0.104166672436698,0.0583333375370279,0.0134390350431204,-0.0265726372599602,-0.0302378293126821
5,1.01388893532575,0.104166672436698,0.0625000010308258,0.000305432622553781,-0.013744467869401,-0.0143553335219622
5,1.0125000434425,0.0916666697993398,0.055555559848502,-0.00122173049021512,-0.0021380283869803,0.0106901414692402
5,1.01944450285877,0.0930555616825939,0.0680555564078778,0.0045814891345799,0.00580321997404099,0.0198531206697226
5,1.0125000434425,0.105555564319952,0.0652777787193518,0.0146607663482428,0.0140499006956816,0.0342084541916847
5,1.00972225967599,0.0986111170596459,0.0694444482911319,0.0189368221908808,0.0201585534960032,0.0427605658769607
5,1.00555558402623,0.100000002864918,0.0666666706026059,0.0345138870179653,0.00916297826915979,0.0467311926186085
5,1.01388893532575,0.104166672436698,0.0736111117849297,0.03176499158144,0.0164933614432812,0.0464257597923279
5,1.00972225967599,0.104166672436698,0.0666666706026059,0.0363464802503586,0.0128281703218818,0.0421497002243996
5,1.02083339474202,0.102777780553444,0.0597222233422998,0.0494800843298435,0.0033597587607801,0.0397062413394451
5,1.02222228662528,0.108333335930496,0.0625000010308258,0.0516181141138077,0.0021380283869803,0.0207694191485643
5,1.01944450285877,0.113888891307548,0.0722222259796579,0.0464257597923279,0.000610865245107561,0.00794124789535999
5,1.0125000434425,0.118055554801345,0.0652777787193518,0.027488935738802,-0.0146607663482428,-0.0045814891345799
5,1.01666671909226,0.115277783190802,0.0666666706026059,0.00855211354792118,-0.00733038317412138,-0.0256563406437635
5,1.01666671909226,0.115277783190802,0.0666666706026059,-0.0125227374956012,-0.00946841109544039,-0.0280998013913631
5,1.01527782720901,0.101388894748172,0.0666666706026059,-0.0235183127224445,-0.0113010071218014,-0.0256563406437635
5,1.0125000434425,0.0986111170596459,0.0652777787193518,-0.0256563406437635,-0.00946841109544039,-0.013744467869401
5,1.0125000434425,0.0986111170596459,0.0652777787193518,-0.0210748501121998,0.0033597587607801,-0.00885754637420177
5,1.0125000434425,0.0944444474878658,0.0680555564078778,-0.0213802829384804,-0.0033597587607801,-0.00397062394768
5,1.01527782720901,0.0958333393711199,0.0652777787193518,-0.0250454749912024,0.00610865233466029,0.0100792767480016
5,1.01527782720901,0.0958333393711199,0.0652777787193518,-0.0213802829384804,0.00733038317412138,0.0186313893646002
5,1.00972225967599,0.0986111170596459,0.0722222259796579,-0.0146607663482428,0.000305432622553781,0.0314595587551594
5,1.01388893532575,0.0972222251763917,0.0722222259796579,-0.013744467869401,0.00366519158706069,0.0424551330506802
5,1.01388893532575,0.0972222251763917,0.0722222259796579,-0.00855211354792118,0.00488692196086049,0.0326812900602817
5,1.01944450285877,0.0944444474878658,0.0750000036681839,0.00366519158706069,0.00122173049021512,0.0244346093386412
5,1.01805561097552,0.0986111170596459,0.0597222233422998,0.0033597587607801,-0.011606439948082,0.0021380283869803
5,1.01944450285877,0.101388894748172,0.052777782159976,-0.00122173049021512,-0.0183259565383196,-0.011606439948082
5,1.01527782720901,0.101388894748172,0.0625000010308258,-0.00641408516094089,-0.017409659922123,-0.0164933614432812
5,1.01388893532575,0.105555564319952,0.0652777787193518,-0.00794124789535999,-0.0100792767480016,-0.00946841109544039
5,1.0125000434425,0.102777780553444,0.0597222233422998,-0.00671951752156019,-0.0186313893646002,-0.00580321997404099
5,1.01666671909226,0.104166672436698,0.0638888929140799,-0.00519235478714108,-0.00549778714776039,-0.0131336031481624
5,1.02222228662528,0.0944444474878658,0.0680555564078778,0.00152716308366507,-0.0149661982432008,-0.0027488935738802
5,1.01944450285877,0.0944444474878658,0.0680555564078778,-0.0027488935738802,-0.013744467869401,-0.0131336031481624
5,1.00972225967599,0.0944444474878658,0.0666666706026059,0.0113010071218014,-0.00549778714776039,0.00824668072164059
5,1.01666671909226,0.0972222251763917,0.0583333375370279,0.0189368221908808,0.00671951752156019,0.0161879286170006
5,1.01944450285877,0.0944444474878658,0.0625000010308258,0.027488935738802,0.00977384392172098,0.0045814891345799
5,1.01527782720901,0.101388894748172,0.0875000002275597,0.0305432621389627,-0.000916297896765172,0.00702495034784079
5,1.0125000434425,0.104166672436698,0.0750000036681839,0.0164933614432812,-0.00122173049021512,0.00244346098043024
5,1.01527782720901,0.104166672436698,0.0694444482911319,0.0247400421649218,-0.000610865245107561,0.00763581553474069
5,1.0125000434425,0.104166672436698,0.0680555564078778,0.027488935738802,-0.0027488935738802,0.0027488935738802
5,1.0125000434425,0.105555564319952,0.0694444482911319,0.0345138870179653,-0.00580321997404099,0.00763581553474069
5,1.01527782720901,0.108333335930496,0.0541666679652478,0.0311541277915239,-0.0113010071218014,-0.0100792767480016
5,1.01527782720901,0.10972222781375,0.0625000010308258,0.021685715764761,0.0109955742955208,-0.00122173049021512
5,1.01944450285877,0.112499999424294,0.0763888894734557,0.0164933614432812,0.00641408516094089,-0.00580321997404099
5,1.01944450285877,0.10972222781375,0.0680555564078778,-0.000916297896765172,0.00580321997404099,-0.0183259565383196
5,1.00972225967599,0.118055554801345,0.0625000010308258,-0.0189368221908808,-0.00366519158706069,-0.00824668072164059
5,1.00416669214298,0.1194444466846,0.0625000010308258,-0.0332921557128429,-0.0180205255746841,-0.0192422550171614
5,1.00416669214298,0.118055554801345,0.0583333375370279,-0.0537561401724815,-0.0192422550171614,-0.0192422550171614
5,1.01527782720901,0.105555564319952,0.0625000010308258,-0.0555887371301651,-0.00397062394768,-0.00702495034784079
5,1.01527782720901,0.106944444047242,0.0680555564078778,-0.0485637858510017,-0.000610865245107561,-0.00244346098043024
5,1.01527782720901,0.0930555616825939,0.0652777787193518,-0.0400116741657257,0.0027488935738802,-0.00519235478714108
5,1.01527782720901,0.0888888921108138,0.0736111117849297,-0.0342084541916847,0.00152716308366507,-0.00305432616733015
5,1.01388893532575,0.0902777839940679,0.0680555564078778,-0.0232128798961639,0.000305432622553781,0.00794124789535999
5,1.00972225967599,0.0930555616825939,0.0652777787193518,-0.019547687843442,-0.0021380283869803,-0.00122173049021512
5,1.01527782720901,0.0916666697993398,0.0680555564078778,-0.0177150927484035,-0.00244346098043024,0.00641408516094089
5,1.01944450285877,0.104166672436698,0.0583333375370279,-0.0164933614432812,0.0027488935738802,-0.000916297896765172
5,1.01805561097552,0.102777780553444,0.0652777787193518,-0.0192422550171614,0.00671951752156019,-0.00702495034784079
5,1.01666671909226,0.104166672436698,0.0583333375370279,-0.0229074470698834,0.00763581553474069,-0.00702495034784079
5,1.0125000434425,0.111111119697004,0.0680555564078778,-0.0378736443817616,0.0033597587607801,-0.00244346098043024
5,1.01527782720901,0.113888891307548,0.0652777787193518,-0.0583376325666905,0.00977384392172098,-0.00885754637420177
5,1.01666671909226,0.106944444047242,0.0611111152255539,-0.0577267669141293,0.00671951752156019,-0.0109955742955208
5,1.01666671909226,0.104166672436698,0.0819444448505077,-0.070249505341053,0.015577063895762,-0.0186313893646002
5,1.0125000434425,0.0972222251763917,0.0805555590452358,-0.0616973899304867,-0.00366519158706069,-0.00855211354792118
5,1.01666671909226,0.0958333393711199,0.0666666706026059,-0.0555887371301651,-0.000916297896765172,-0.0213802829384804
5,1.02222228662528,0.0819444448505077,0.0625000010308258,-0.0335975885391235,0.00794124789535999,-0.0256563406437635
5,1.01666671909226,0.0888888921108138,0.0569444456537738,-0.0415388382971287,0.01191187184304,-0.0244346093386412
5,1.00277780025972,0.0986111170596459,0.0625000010308258,-0.0293215326964855,0.00702495034784079,-0.0192422550171614
5,1.00833336779274,0.0972222251763917,0.0680555564078778,-0.0204639863222837,0.00183259579353034,-0.0021380283869803
5,1.00972225967599,0.0944444474878658,0.0736111117849297,-0.0131336031481624,-0.00305432616733015,-0.00671951752156019
5,1.01666671909226,0.0875000002275597,0.0666666706026059,0.000305432622553781,-0.00855211354792118,-0.000305432622553781
5,1.02222228662528,0.0861111144222878,0.0680555564078778,0.011606439948082,-0.00977384392172098,0.000610865245107561
5,1.01666671909226,0.0888888921108138,0.0652777787193518,0.0241291765123606,0.00794124789535999,-0.0113010071218014
5,1.0125000434425,0.0916666697993398,0.0736111117849297,0.0302378293126821,0.00183259579353034,-0.00397062394768
5,1.00833336779274,0.0986111170596459,0.0625000010308258,0.0390953756868839,-0.0164933614432812,0.00488692196086049
5,1.0125000434425,0.101388894748172,0.0722222259796579,0.0452040284872055,-0.00519235478714108,0.0045814891345799
5,1.01388893532575,0.0944444474878658,0.0736111117849297,0.0519235469400883,-0.00733038317412138,0.019547687843442
5,1.02777785415829,0.0986111170596459,0.0680555564078778,0.0635299831628799,-0.0134390350431204,0.00763581553474069
5,1.0333333244436,0.0986111170596459,0.0625000010308258,0.0729983970522881,0.00671951752156019,-0.00702495034784079
5,1.02361117850853,0.105555564319952,0.055555559848502,0.0632245540618896,-0.0140499006956816,-0.0171042270958424
5,1.00555558402623,0.118055554801345,0.0652777787193518,0.0424551330506802,-0.0167987942695618,-0.0180205255746841
5,1.00416669214298,0.115277783190802,0.0777777813567098,0.0369573459029198,-0.00610865233466029,-0.000916297896765172
5,1.00416669214298,0.108333335930496,0.0777777813567098,0.0381790772080422,-0.01588249579072,0.00427605677396059
5,1.0125000434425,0.104166672436698,0.0680555564078778,0.0503963828086853,-0.00397062394768,0.00183259579353034
5,1.01527782720901,0.104166672436698,0.0652777787193518,0.0580321997404099,0.00580321997404099,0.00641408516094089
5,1.01805561097552,0.111111119697004,0.0611111152255539,0.0604756586253643,-0.00427605677396059,0.00916297826915979
5,1.01944450285877,0.10972222781375,0.0597222233422998,0.0601702257990837,0.00580321997404099,0.00824668072164059
5,1.01388893532575,0.116666675074056,0.0583333375370279,0.0574213340878487,0.00427605677396059,0.0167987942695618
5,1.00833336779274,0.122222230451108,0.0625000010308258,0.0589484944939613,0.00122173049021512,0.0320704244077206
5,1.01527782720901,0.118055554801345,0.0638888929140799,0.058643065392971,-0.00366519158706069,0.0229074470698834
5,1.02083339474202,0.104166672436698,0.0625000010308258,0.0693332031369209,0.00397062394768,0.0323758572340012
5,1.01805561097552,0.102777780553444,0.0652777787193518,0.0717766657471657,0.0177150927484035,0.0222965814173222
5,1.0125000434425,0.113888891307548,0.0680555564078778,0.0800233483314514,0.00519235478714108,0.0149661982432008
5,1.0125000434425,0.120833338567854,0.0652777787193518,0.0723875313997269,-0.00733038317412138,0.0161879286170006
5,1.01111115155925,0.12777778582816,0.0625000010308258,0.0491746515035629,0.0113010071218014,0.0247400421649218
5,1.01111115155925,0.125000002061652,0.0652777787193518,0.0311541277915239,0.00366519158706069,0.0268780700862408
5,1.01388893532575,0.125000002061652,0.0638888929140799,0.0100792767480016,-0.00183259579353034,0.0232128798961639
5,1.01527782720901,0.120833338567854,0.0597222233422998,-0.00946841109544039,0.000305432622553781,0.0201585534960032
5,1.01527782720901,0.113888891307548,0.0652777787193518,-0.0265726372599602,-0.00366519158706069,0.00183259579353034
5,1.01805561097552,0.102777780553444,0.0722222259796579,-0.0409279726445675,-0.00885754637420177,-0.00488692196086049
5,1.01388893532575,0.0972222251763917,0.0777777813567098,-0.0507018156349659,-0.01191187184304,-0.00397062394768
5,1.01944450285877,0.0930555616825939,0.0722222259796579,-0.0381790772080422,-0.0106901414692402,-0.00763581553474069
5,1.02222228662528,0.0805555590452358,0.0708333340964038,-0.0167987942695618,-0.0033597587607801,-0.00549778714776039
5,1.02222228662528,0.0805555590452358,0.0708333340964038,-0.00122173049021512,-0.000305432622553781,0.00183259579353034
5,1.00833336779274,0.0916666697993398,0.0791666671619817,0.0113010071218014,-0.0021380283869803,0.0100792767480016
5,1.00694447590948,0.0986111170596459,0.0750000036681839,0.0192422550171614,0.00122173049021512,0.0180205255746841
5,1.00694447590948,0.0986111170596459,0.0750000036681839,0.0131336031481624,0.0201585534960032,0.029626963660121
5,1.01527782720901,0.100000002864918,0.0736111117849297,-0.0033597587607801,0.0436768643558025,0.0430659987032413
5,1.01666671909226,0.10972222781375,0.0597222233422998,-0.0149661982432008,0.0455094613134861,0.0366519130766392
5,1.01527782720901,0.12777778582816,0.0722222259796579,-0.0198531206697226,0.0467311926186085,0.0409279726445675
5,1.01111115155925,0.12777778582816,0.0750000036681839,-0.0430659987032413,0.0226020142436027,0.0323758572340012
5,1.0125000434425,0.12777778582816,0.0722222259796579,-0.0797179117798805,0.011606439948082,0.0357356183230877
5,1.0125000434425,0.12777778582816,0.0722222259796579,-0.10567969083786,0.00733038317412138,0.029626963660121
5,1.01527782720901,0.108333335930496,0.0666666706026059,-0.109344877302647,0.00916297826915979,0.0253509078174829
5,1.02222228662528,0.0875000002275597,0.0680555564078778,-0.0971275717020035,0.0100792767480016,0.0207694191485643
5,1.02222228662528,0.0875000002275597,0.0680555564078778,-0.0635299831628799,0.0140499006956816,0.00763581553474069
5,1.02777785415829,0.0819444448505077,0.0611111152255539,-0.0485637858510017,0.0100792767480016,0.0128281703218818
5,1.01805561097552,0.0847222225390337,0.0750000036681839,-0.029626963660121,-0.00397062394768,0.00641408516094089
5,1.00972225967599,0.0888888921108138,0.0694444482911319,-0.0363464802503586,-0.00427605677396059,-0.000916297896765172
5,1.01527782720901,0.0916666697993398,0.0611111152255539,-0.0222965814173222,0.000305432622553781,-0.0027488935738802
5,1.01944450285877,0.0902777839940679,0.0569444456537738,-0.0198531206697226,-0.00763581553474069,-0.00641408516094089
5,1.01944450285877,0.0930555616825939,0.0569444456537738,-0.0134390350431204,0.00122173049021512,-0.017409659922123
5,1.01805561097552,0.0958333393711199,0.0652777787193518,-0.0189368221908808,-0.00519235478714108,-0.0226020142436027
5,1.01111115155925,0.100000002864918,0.0722222259796579,-0.0390953756868839,-0.00580321997404099,-0.00702495034784079
5,1.01805561097552,0.0986111170596459,0.0680555564078778,-0.0455094613134861,0.0033597587607801,0.0021380283869803
5,1.01805561097552,0.0930555616825939,0.0652777787193518,-0.027488935738802,0.0103847095742822,0.00671951752156019
5,1.01805561097552,0.0888888921108138,0.0597222233422998,-0.0164933614432812,0.0122173046693206,0.0033597587607801
5,1.01805561097552,0.0833333367337618,0.0569444456537738,-0.00885754637420177,0.00824668072164059,0.00580321997404099
5,1.01944450285877,0.0861111144222878,0.0750000036681839,-0.00946841109544039,0.0131336031481624,-0.00610865233466029
5,1.01944450285877,0.0861111144222878,0.0625000010308258,0.00122173049021512,0.00427605677396059,0.00488692196086049
5,1.01388893532575,0.0833333367337618,0.0666666706026059,0.0021380283869803,0.0027488935738802,-0.0027488935738802
5,1.00833336779274,0.0888888921108138,0.055555559848502,0.00519235478714108,-0.00519235478714108,-0.00305432616733015
5,1.01666671909226,0.0875000002275597,0.0583333375370279,0.00183259579353034,0.000305432622553781,-0.0033597587607801
5,1.01805561097552,0.0888888921108138,0.0694444482911319,0.00977384392172098,0.00488692196086049,-0.00122173049021512
5,1.01805561097552,0.0875000002275597,0.0638888929140799,0.00610865233466029,0.00885754637420177,0.00488692196086049
5,1.01388893532575,0.0861111144222878,0.0722222259796579,0.0106901414692402,0.00977384392172098,0.000916297896765172
5,1.01527782720901,0.0944444474878658,0.0680555564078778,0.0131336031481624,0.0161879286170006,-0.00152716308366507
5,1.01805561097552,0.0944444474878658,0.0625000010308258,0.000916297896765172,0.0149661982432008,0.00397062394768
5,1.01666671909226,0.0958333393711199,0.0583333375370279,0.00427605677396059,0.00305432616733015,0.00855211354792118
5,1.01666671909226,0.0902777839940679,0.0694444482911319,0.0106901414692402,0.0122173046693206,0.00366519158706069
5,1.01805561097552,0.0944444474878658,0.0666666706026059,0.0204639863222837,0.00549778714776039,-0.0113010071218014
5,1.0125000434425,0.0972222251763917,0.0736111117849297,0.0241291765123606,-0.00702495034784079,-0.0140499006956816
5,1.0125000434425,0.108333335930496,0.0680555564078778,-0.00122173049021512,-0.00366519158706069,-0.01191187184304
5,1.01388893532575,0.101388894748172,0.0750000036681839,-0.00946841109544039,0.011606439948082,-0.00122173049021512
5,1.01805561097552,0.0944444474878658,0.0736111117849297,-0.00152716308366507,0.0210748501121998,0.000916297896765172
5,1.01527782720901,0.0944444474878658,0.0861111144222878,0.0027488935738802,0.0201585534960032,0.000305432622553781
5,1.01944450285877,0.0944444474878658,0.0819444448505077,-0.00183259579353034,0.0143553335219622,0.00916297826915979
5,1.02083339474202,0.0944444474878658,0.0791666671619817,-0.00152716308366507,0.0244346093386412,0.0167987942695618
5,1.00972225967599,0.101388894748172,0.0736111117849297,-0.00519235478714108,0.0140499006956816,0.00580321997404099
5,1.01805561097552,0.101388894748172,0.0819444448505077,-0.0198531206697226,0.0131336031481624,0.00610865233466029
5,1.02222228662528,0.0930555616825939,0.0875000002275597,-0.0125227374956012,0.0253509078174829,0.00671951752156019
5,1.02222228662528,0.0847222225390337,0.102777780553444,-0.017409659922123,0.0537561401724815,0.00305432616733015
5,1.00972225967599,0.0875000002275597,0.104166672436698,-0.0183259565383196,0.0650571510195732,-0.00641408516094089
5,1.01111115155925,0.0958333393711199,0.0875000002275597,0.0021380283869803,0.0445931628346443,-0.00549778714776039
5,1.01527782720901,0.0972222251763917,0.0805555590452358,-0.00946841109544039,0.0601702257990837,0.0045814891345799
5,1.01527782720901,0.102777780553444,0.0777777813567098,0.00580321997404099,0.0470366254448891,0.00397062394768
5,1.01805561097552,0.101388894748172,0.0777777813567098,0.00763581553474069,0.0326812900602817,0.0033597587607801
5,1.01805561097552,0.0986111170596459,0.0777777813567098,0.0164933614432812,0.0455094613134861,0.0106901414692402
5,1.0125000434425,0.0875000002275597,0.0888888921108138,0.0256563406437635,0.0720821022987366,0.01191187184304
5,1.00833336779274,0.0916666697993398,0.0916666697993398,0.0620028227567673,0.0748309940099716,0.0152716310694814
5,1.01527782720901,0.0888888921108138,0.0944444474878658,0.0403171069920063,0.0821613743901253,0.0235183127224445
5,1.01527782720901,0.0916666697993398,0.0944444474878658,0.0607810914516449,0.0781907513737679,0.0256563406437635
5,1.0125000434425,0.0972222251763917,0.0861111144222878,0.0656680166721344,0.0525344125926495,0.0241291765123606
5,1.00972225967599,0.104166672436698,0.0875000002275597,0.0448985956609249,0.0488692186772823,0.0222965814173222
5,1.00972225967599,0.108333335930496,0.0916666697993398,0.0387899428606033,0.0326812900602817,0.0161879286170006
5,1.00972225967599,0.108333335930496,0.0916666697993398,0.0455094613134861,0.0189368221908808,0.0122173046693206
5,1.01666671909226,0.120833338567854,0.105555564319952,0.0497855171561241,0.0293215326964855,0.0287106670439243
5,1.02083339474202,0.130555557438704,0.0819444448505077,0.0045814891345799,0.0394008085131645,0.0290160998702049
5,1.01666671909226,0.140277788465518,0.0875000002275597,-0.0675006061792374,0.0488692186772823,0.0378736443817616
5,1.01527782720901,0.136111112815755,0.0833333367337618,-0.10598511993885,0.0345138870179653,0.029626963660121
5,1.00972225967599,0.120833338567854,0.0875000002275597,-0.155159771442413,0.0189368221908808,0.029626963660121
5,1.00972225967599,0.101388894748172,0.0888888921108138,-0.142637029290199,0.00794124789535999,0.0134390350431204
5,1.00972225967599,0.0944444474878658,0.0847222225390337,-0.141415297985077,0.0021380283869803,0.00702495034784079
5,1.02222228662528,0.0861111144222878,0.0805555590452358,-0.13744467496872,0.000916297896765172,0.0152716310694814
5,1.02916674604155,0.0763888894734557,0.0875000002275597,-0.112093769013882,0.00946841109544039,0.0164933614432812
5,1.01666671909226,0.0833333367337618,0.0888888921108138,-0.106901414692402,-0.0161879286170006,0.00488692196086049
5,1.00416669214298,0.0902777839940679,0.0736111117849297,-0.112093769013882,-0.0149661982432008,0.00183259579353034
5,1.00833336779274,0.0861111144222878,0.0736111117849297,-0.123394779860973,-0.00122173049021512,0.00427605677396059
5,1.01527782720901,0.0861111144222878,0.0833333367337618,-0.123089343309402,0.0229074470698834,0.00427605677396059
5,1.01111115155925,0.0777777813567098,0.0930555616825939,-0.0995710343122482,0.0222965814173222,-0.00610865233466029
5,1.00694447590948,0.0777777813567098,0.0930555616825939,-0.0757472887635231,-0.0021380283869803,0.00671951752156019
5,1.01527782720901,0.0805555590452358,0.105555564319952,-0.0613919571042061,0.0109955742955208,0.00305432616733015
5,1.01388893532575,0.0763888894734557,0.0944444474878658,-0.0427605658769607,0.0113010071218014,0.00366519158706069
5,1.00972225967599,0.0819444448505077,0.0916666697993398,-0.0342084541916847,-0.00733038317412138,-0.00794124789535999
5,1.01388893532575,0.0958333393711199,0.0888888921108138,-0.0461203269660473,0.0033597587607801,-0.0128281703218818
5,1.01527782720901,0.0763888894734557,0.0930555616825939,-0.0418442711234093,0.0161879286170006,-0.00763581553474069
5,1.01527782720901,0.0722222259796579,0.0902777839940679,-0.00946841109544039,0.00397062394768,-0.00702495034784079
5,1.01944450285877,0.0805555590452358,0.0875000002275597,0.0192422550171614,0.0204639863222837,-0.0247400421649218
5,1.00833336779274,0.0944444474878658,0.0986111170596459,0.0164933614432812,0.0421497002243996,-0.0247400421649218
5,1.00277780025972,0.116666675074056,0.0972222251763917,-0.00641408516094089,0.0167987942695618,-0.0109955742955208
5,1.00972225967599,0.120833338567854,0.0930555616825939,-0.0479529201984406,-0.0033597587607801,0.0113010071218014
5,1.0125000434425,0.0986111170596459,0.122222230451108,-0.0607810914516449,-0.0033597587607801,-0.000610865245107561
5,1.0125000434425,0.0944444474878658,0.111111119697004,-0.0390953756868839,-0.0113010071218014,-0.0152716310694814
5,1.01527782720901,0.0916666697993398,0.0944444474878658,-0.0259617734700441,-0.0244346093386412,-0.0210748501121998
5,1.01527782720901,0.0916666697993398,0.0944444474878658,-0.0629191175103188,-0.0021380283869803,-0.00152716308366507
5,1.01666671909226,0.0777777813567098,0.108333335930496,-0.0323758572340012,0.0351247526705265,0.0143553335219622
5,1.01388893532575,0.0819444448505077,0.102777780553444,-0.01191187184304,0.0045814891345799,0.0103847095742822
5,1.02083339474202,0.0791666671619817,0.105555564319952,0.0213802829384804,-0.00305432616733015,0.00733038317412138
5,1.03194452980806,0.0847222225390337,0.0875000002275597,0.0470366254448891,0.0467311926186085,0.0167987942695618
5,1.02222228662528,0.102777780553444,0.0791666671619817,0.0394008085131645,0.058643065392971,0.015577063895762
5,1.00972225967599,0.118055554801345,0.0875000002275597,-0.0045814891345799,0.0461203269660473,0.00366519158706069
5,1.00555558402623,0.120833338567854,0.104166672436698,-0.0577267669141293,0.0149661982432008,0.00580321997404099
5,1.01527782720901,0.0916666697993398,0.0916666697993398,-0.0662788823246956,0.0143553335219622,0.0134390350431204
5,1.0305556379248,0.0638888929140799,0.0888888921108138,-0.01588249579072,0.0241291765123606,0.0161879286170006
5,1.03194452980806,0.0388888906783549,0.113888891307548,0.0219911485910416,0.0436768643558025,-0.0109955742955208
5,1.01666671909226,0.0388888906783549,0.151388899219622,0.108734011650086,0.0855211317539215,-0.0244346093386412
5,0.981944519258625,0.0583333375370279,0.111111119697004,0.17470745742321,0.058643065392971,-0.0531452745199203
5,1.01111115155925,0.0750000036681839,0.0875000002275597,0.130725160241127,0.00763581553474069,-0.0378736443817616
5,1.01111115155925,0.0750000036681839,0.0875000002275597,0.142026171088219,0.0766635909676552,-0.0186313893646002
5,1.01527782720901,0.101388894748172,0.116666675074056,0.128587126731873,0.101098194718361,-0.0323758572340012
5,0.98888888142718,0.12916666555545,0.123611110178398,0.0910189226269722,0.0268780700862408,-0.0723875313997269
5,0.98888888142718,0.12916666555545,0.123611110178398,0.00305432616733015,-0.00794124789535999,-0.100181899964809
5,1.00555558402623,0.161111118090472,0.116666675074056,-0.0983493030071259,-0.01588249579072,-0.102625362575054
5,1.00138890837647,0.150000007336368,0.113888891307548,-0.207083314657211,-0.0140499006956816,-0.109344877302647
5,1.00138890837647,0.150000007336368,0.113888891307548,-0.287717521190643,-0.0302378293126821,-0.12156218290329
5,1.00833336779274,0.12777778582816,0.118055554801345,-0.32742378115654,-0.0339030213654041,-0.136528387665749
5,1.0125000434425,0.0652777787193518,0.126388893944906,-0.317344486713409,-0.0467311926186085,-0.151189148426056
5,1.0125000434425,0.0652777787193518,0.126388893944906,-0.264504641294479,-0.0568104684352875,-0.148745685815811
5,1.01805561097552,0.0458333348996699,0.120833338567854,-0.171958565711975,-0.0448985956609249,-0.129197999835014
5,1.02222228662528,0.0250000007162294,0.0986111170596459,-0.0946841165423393,-0.027488935738802,-0.105374254286289
5,1.02222228662528,0.0250000007162294,0.0986111170596459,0.00733038317412138,-0.00305432616733015,-0.0766635909676552
5,1.01944450285877,0.0361111129898289,0.101388894748172,0.125838235020638,0.0186313893646002,-0.0546724386513233
5,1.02222228662528,0.0625000010308258,0.101388894748172,0.164628177881241,0.00794124789535999,-0.0320704244077206
5,1.01527782720901,0.0819444448505077,0.106944444047242,0.197004035115242,0.0384845100343227,-0.01588249579072
5,1.01388893532575,0.0986111170596459,0.101388894748172,0.270307868719101,0.0543670058250427,-0.00366519158706069
5,0.990277773310434,0.120833338567854,0.101388894748172,0.32253685593605,0.0021380283869803,-0.00366519158706069
5,0.990277773310434,0.120833338567854,0.101388894748172,0.371711492538452,0.00427605677396059,0.00610865233466029
5,1.02638896227504,0.159722226207217,0.0916666697993398,0.337197601795196,0.0448985956609249,-0.0299323964864016
5,1.03194452980806,0.180555567988136,0.0805555590452358,0.326812893152237,0.0653625801205635,-0.0659734457731247
5,1.01805561097552,0.198611113846581,0.100000002864918,0.307876080274582,0.0620028227567673,-0.096211276948452
5,0.975000059842355,0.190277786858986,0.122222230451108,0.319787949323654,-0.0308486949652433,-0.102930791676045
5,0.959722249126559,0.194444450352783,0.126388893944906,0.328645497560501,-0.0418442711234093,-0.130114302039146
5,0.956944465360051,0.202777789496344,0.0916666697993398,0.288939267396927,-0.0733038261532784,-0.134695783257484
5,0.979166735492117,0.202777789496344,0.0750000036681839,0.118507854640484,-0.0406225398182869,-0.0717766657471657
5,1.0361111082101,0.144444451959316,0.0916666697993398,0.0806342139840126,0.186008468270302,0.0626136884093285
5,1.0513889189259,0.108333335930496,0.136111112815755,-0.0641408488154411,0.23304508626461,0.158824965357781
5,0.990277773310434,0.10972222781375,0.175000000455119,-0.111482910811901,0.151494577527046,0.249233022332191
5,1.00416669214298,0.033333335301303,0.18333333959868,-0.0198531206697226,0.22754730284214,0.233655959367752
5,1.02222228662528,0.00972222266958873,0.197222234119292,0.0448985956609249,0.100181899964809,0.0589484944939613
5,1.04583335139288,0.0513888902767219,0.17361112072783,0.0662788823246956,0.0293215326964855,-0.0635299831628799
5,1.05694448645892,0.0902777839940679,0.133333341205212,0.0662788823246956,0.107817716896534,-0.13225232064724
5,1.00000001649321,0.133333341205212,0.144444451959316,0.0207694191485643,0.0913243517279625,-0.159130394458771
5,0.959722249126559,0.187500003092477,0.169444445078067,-0.160657554864883,0.0497855171561241,-0.132863193750381
5,0.973611167959101,0.211111128639904,0.176388892338373,-0.251065611839294,0.0662788823246956,-0.0946841165423393
5,0.990277773310434,0.184722231481934,0.179166676104882,-0.288633823394775,-0.00794124789535999,-0.0433714315295219
5,1.00138890837647,0.120833338567854,0.161111118090472,-0.18539759516716,0.0445931628346443,-0.0861319974064827
5,0.961111141009813,0.0777777813567098,0.180555567988136,-0.090408056974411,-0.0534507073462009,-0.0751364231109619
5,0.955555573476797,0.0750000036681839,0.187500003092477,0.0134390350431204,-0.0897971913218498,-0.0470366254448891
5,0.975000059842355,0.0972222251763917,0.193055558469529,0.141109868884087,-0.0143553335219622,0.0204639863222837
5,1.00833336779274,0.123611110178398,0.200000005729836,0.195476874709129,0.0256563406437635,0.00244346098043024
5,1.0125000434425,0.141666668192807,0.186111123365188,0.236099421977997,-0.0516181141138077,-0.0287106670439243
5,1.01944450285877,0.166666673467524,0.161111118090472,0.205250725150108,0.0131336031481624,-0.021685715764761
5,0.962500032893068,0.224999998848587,0.190277786858986,0.165544480085373,-0.0461203269660473,-0.0229074470698834
5,0.936111184358955,0.240277785252453,0.184722231481934,-0.0183259565383196,-0.0824668109416962,0.037568211555481
5,0.887500065692777,0.250000004123303,0.143055560076062,-0.147829383611679,-0.138360977172852,0.0537561401724815
5,0.944444438410764,0.244444460902216,0.163888889701015,-0.190895393490791,-0.0867428630590439,0.102319926023483
5,0.993055557076942,0.234722242031366,0.0972222251763917,-0.235488548874855,-0.122173048555851,0.078801617026329
5,1.02361117850853,0.2194444556275,0.0958333393711199,-0.286495804786682,-0.158824965357781,0.0458148941397667
5,1.03194452980806,0.212499996211229,0.0944444474878658,-0.300240278244019,-0.0415388382971287,0.00824668072164059
5,0.993055557076942,0.20138889761309,0.0777777813567098,-0.276721954345703,-0.04764748737216,0.0247400421649218
5,0.954166681593543,0.17361112072783,0.0583333375370279,-0.316122770309448,-0.165239050984383,0.027488935738802
5,0.976388951725609,0.130555557438704,0.0722222259796579,-0.303294599056244,-0.218689754605293,0.0146607663482428
5,1.00833336779274,0.100000002864918,0.0805555590452358,-0.229379892349243,-0.192117124795914,0.00488692196086049
5,1.02361117850853,0.101388894748172,0.0583333375370279,-0.0888808965682983,-0.164933621883392,-0.0103847095742822
5,1.00555558402623,0.101388894748172,0.0722222259796579,-0.105068825185299,-0.16371189057827,-0.0213802829384804
5,0.976388951725609,0.0930555616825939,0.102777780553444,-0.04764748737216,-0.23823744058609,-0.0424551330506802
5,0.972222276075846,0.0819444448505077,0.106944444047242,0.0027488935738802,-0.324369430541992,-0.0400116741657257
5,0.958333357243305,0.0541666679652478,0.0958333393711199,0.00366519158706069,-0.396451532840729,-0.03176499158144
5,0.98888888142718,0.0361111129898289,0.0944444474878658,0.0589484944939613,-0.489303052425385,-0.070249505341053
5,1.14166669684199,0.0152777788063885,0.0402777795226179,0.160962998867035,-0.306043475866318,-0.0833831056952477
5,1.1291666698927,0.0194444453391775,0.0222222230277034,0.308792382478714,-0.129503428936005,-0.0598647929728031
5,1.10416671324184,0.029166668768514,0.030555557612777,0.451429426670075,-0.0473420582711697,-0.0510072484612465
5,1.07500008094122,0.0638888929140799,0.0388888906783549,0.539394021034241,0.0448985956609249,-0.064446285367012
5,1.03750000009336,0.10972222781375,0.026388891079988,0.49235737323761,0.0784961804747581,-0.0638354197144508
5,1.01666671909226,0.148611115453114,0.0236111118719664,0.406836241483688,0.0879645943641663,-0.0433714315295219
5,1.00972225967599,0.16527778158427,0.0194444453391775,0.275194793939591,0.0510072484612465,-0.013744467869401
5,1.01527782720901,0.152777778946911,0.0208333341834404,0.0839939713478088,0.0265726372599602,0.0113010071218014
5,1.02361117850853,0.122222230451108,0.0138888899621255,-0.0045814891345799,0.0308486949652433,-0.00183259579353034
5,1.01944450285877,0.0944444474878658,0.00972222266958873,-0.0152716310694814,0.0256563406437635,-0.0507018156349659
5,1.02083339474202,0.0680555564078778,0.00972222266958873,0.00152716308366507,0.0534507073462009,-0.0952949747443199
5,1.02916674604155,0.0611111152255539,0.0194444453391775,0.0833831056952477,0.121256753802299,-0.103847093880177
5,1.01944450285877,0.0875000002275597,0.0513888902767219,0.106290549039841,0.170125976204872,-0.08460483700037
5,1.00972225967599,0.0888888921108138,0.0458333348996699,0.112093769013882,0.138666406273842,-0.0937678143382072
5,1.01527782720901,0.118055554801345,0.030555557612777,0.0965167060494423,0.0488692186772823,-0.125838235020638
5,1.02916674604155,0.169444445078067,0.0152777788063885,0.00519235478714108,0.0381790772080422,-0.0739146918058395
5,1.03194452980806,0.163888889701015,0.00694444498106275,-0.0430659987032413,0.0448985956609249,0.00427605677396059
5,1.02083339474202,0.14722222356986,0.0458333348996699,-0.0305432621389627,0.0684169083833694,0.00885754637420177
5,1.01111115155925,0.125000002061652,0.0388888906783549,0.0247400421649218,0.0803287774324417,-0.0415388382971287
5,1.01111115155925,0.125000002061652,0.0388888906783549,0.0485637858510017,0.128587126731873,-0.078801617026329
5,1.01111115155925,0.141666668192807,0.0430555572111439,0.00244346098043024,0.138971850275993,-0.114537231624126
5,0.973611167959101,0.151388899219622,0.0625000010308258,-0.0488692186772823,0.150578290224075,-0.126449108123779
5,0.973611167959101,0.151388899219622,0.0625000010308258,-0.0797179117798805,0.0351247526705265,-0.11606439948082
5,0.956944465360051,0.161111118090472,0.0750000036681839,-0.0827722400426865,-0.0372627787292004,-0.0952949747443199
5,1.02500007039179,0.198611113846581,0.0736111117849297,-0.144775062799454,-0.0210748501121998,-0.0140499006956816
5,1.02500007039179,0.198611113846581,0.0736111117849297,-0.204945296049118,0.0369573459029198,0.02382374368608
5,1.01527782720901,0.202777789496344,0.0513888902767219,-0.245567828416824,0.0198531206697226,0.019547687843442
5,0.983333411141879,0.158333334323963,0.0833333367337618,-0.258395999670029,-0.0171042270958424,0.0314595587551594
5,0.983333411141879,0.158333334323963,0.0833333367337618,-0.274278491735458,0.0045814891345799,0.0406225398182869
5,1.00972225967599,0.111111119697004,0.0777777813567098,-0.207694187760353,0.0360410511493683,0.0103847095742822
5,1.0125000434425,0.100000002864918,0.0916666697993398,-0.13744467496872,0.01191187184304,-0.0219911485910416
5,1.00138890837647,0.118055554801345,0.101388894748172,-0.130114302039146,-0.00244346098043024,-0.0180205255746841
5,1.00555558402623,0.150000007336368,0.0916666697993398,-0.11117747426033,0.00366519158706069,0.013744467869401
5,1.0125000434425,0.151388899219622,0.0944444474878658,-0.116980694234371,0.0351247526705265,0.0537561401724815
5,1.01111115155925,0.16527778158427,0.0944444474878658,-0.110566608607769,0.00733038317412138,0.0607810914516449
5,0.997222232726705,0.158333334323963,0.105555564319952,-0.0812450796365738,0.00183259579353034,0.0855211317539215
5,0.99583334084345,0.154166670830166,0.100000002864918,-0.0427605658769607,0.0229074470698834,0.0830776765942574
5,1.00277780025972,0.151388899219622,0.104166672436698,-0.015577063895762,0.0531452745199203,0.0662788823246956
5,1.01527782720901,0.156944454596674,0.116666675074056,0.00244346098043024,0.125532805919647,0.0519235469400883
5,1.01111115155925,0.162500009973726,0.0944444474878658,0.116980694234371,0.064446285367012,0.0348193198442459
5,0.990277773310434,0.186111123365188,0.102777780553444,0.096211276948452,0.00366519158706069,0.0510072484612465
5,1.00555558402623,0.16527778158427,0.0944444474878658,0.090408056974411,0.0439822971820831,0.0620028227567673
5,1.00138890837647,0.159722226207217,0.105555564319952,0.0998764708638191,0.0326812900602817,0.0445931628346443
5,0.991666665193688,0.177777784221628,0.105555564319952,0.10048733651638,0.000305432622553781,0.027488935738802
5,0.994444448960196,0.176388892338373,0.0916666697993398,-0.0140499006956816,0.0864374339580536,0.0729983970522881
5,1.00555558402623,0.180555567988136,0.134722233088466,0.0384845100343227,0.0934623852372169,0.0870482996106148
5,1.02916674604155,0.148611115453114,0.0972222251763917,-0.0244346093386412,0.199752941727638,0.0986547395586967
5,1.00138890837647,0.122222230451108,0.131944449321958,0.019547687843442,0.188146501779556,0.114842668175697
5,0.968055600426084,0.12777778582816,0.150000007336368,0.0143553335219622,0.144164204597473,0.113620936870575
5,0.968055600426084,0.141666668192807,0.151388899219622,-0.0167987942695618,0.098960168659687,0.107206851243973
5,0.976388951725609,0.15555556271342,0.15555556271342,-0.0259617734700441,0.0354301854968071,0.0650571510195732
5,0.979166735492117,0.15555556271342,0.154166670830166,-0.0565050356090069,-0.0198531206697226,0.0339030213654041
5,0.984722303025134,0.150000007336368,0.140277788465518,-0.0671951770782471,-0.0497855171561241,0.00977384392172098
5,0.991666665193688,0.14722222356986,0.140277788465518,-0.0665843114256859,-0.0561996027827263,-0.00885754637420177
5,1.00138890837647,0.150000007336368,0.144444451959316,-0.0763581544160843,-0.0543670058250427,-0.00641408516094089
5,0.998611124609959,0.151388899219622,0.13750000469901,-0.0836885422468185,-0.0766635909676552,-0.0164933614432812
5,1.00972225967599,0.13750000469901,0.133333341205212,-0.08460483700037,-0.0452040284872055,-0.0183259565383196
5,1.0305556379248,0.106944444047242,0.14722222356986,-0.0357356183230877,-0.01191187184304,-0.0143553335219622
5,1.02638896227504,0.0972222251763917,0.143055560076062,-0.0177150927484035,-0.0152716310694814,-0.0235183127224445
5,1.00555558402623,0.104166672436698,0.131944449321958,-0.00397062394768,-0.0473420582711697,-0.0485637858510017
5,0.979166735492117,0.120833338567854,0.125000002061652,-0.0109955742955208,-0.0983493030071259,-0.0836885422468185
5,0.975000059842355,0.138888896582264,0.125000002061652,-0.0204639863222837,-0.147829383611679,-0.0986547395586967
5,0.96666670854283,0.156944454596674,0.120833338567854,-0.0412334054708481,-0.164933621883392,-0.111788339912891
5,0.976388951725609,0.18333333959868,0.102777780553444,-0.0693332031369209,-0.17409659922123,-0.113315500319004
5,0.993055557076942,0.212499996211229,0.0777777813567098,-0.124311074614525,-0.166155353188515,-0.102930791676045
5,1.01527782720901,0.223611131277262,0.052777782159976,-0.165849909186363,-0.121867619454861,-0.0870482996106148
5,1.02777785415829,0.218055563744246,0.0513888902767219,-0.192117124795914,-0.0610865242779255,-0.0589484944939613
5,1.02222228662528,0.205555561106887,0.0736111117849297,-0.203723564743996,0.00580321997404099,-0.000610865245107561
5,1.02222228662528,0.170833336961321,0.0944444474878658,-0.18020524084568,0.0577267669141293,0.0284052342176437
5,1.00277780025972,0.140277788465518,0.118055554801345,-0.16401731967926,0.070249505341053,0.0192422550171614
5,1.00277780025972,0.133333341205212,0.1194444466846,-0.122173048555851,0.0421497002243996,0.0247400421649218
5,0.991666665193688,0.125000002061652,0.1194444466846,-0.0965167060494423,0.00549778714776039,0.00397062394768
5,0.979166735492117,0.130555557438704,0.115277783190802,-0.0623082555830479,-0.0406225398182869,-0.0226020142436027
5,0.975000059842355,0.13750000469901,0.1194444466846,-0.0500909499824047,-0.0568104684352875,-0.0247400421649218
5,0.98888888142718,0.144444451959316,0.10972222781375,-0.0433714315295219,-0.0662788823246956,-0.017409659922123
5,1.00000001649321,0.151388899219622,0.102777780553444,-0.0714712366461754,-0.0952949747443199,-0.019547687843442
5,1.00694447590948,0.156944454596674,0.108333335930496,-0.0833831056952477,-0.106290549039841,-0.0207694191485643
5,1.00555558402623,0.156944454596674,0.0958333393711199,-0.0842994004487991,-0.106595985591412,-0.0210748501121998
5,1.00972225967599,0.154166670830166,0.0930555616825939,-0.0726929605007172,-0.0965167060494423,-0.0287106670439243
5,1.01527782720901,0.158333334323963,0.0847222225390337,-0.0494800843298435,-0.0690277740359306,-0.0311541277915239
5,1.02361117850853,0.158333334323963,0.0819444448505077,-0.0250454749912024,-0.0149661982432008,-0.0250454749912024
5,1.02222228662528,0.156944454596674,0.0833333367337618,-0.00885754637420177,0.0299323964864016,-0.0106901414692402
5,1.00694447590948,0.161111118090472,0.0972222251763917,0.01588249579072,0.0320704244077206,-0.011606439948082
5,1.00555558402623,0.158333334323963,0.0944444474878658,0.0250454749912024,0.0293215326964855,-0.0109955742955208
5,0.99583334084345,0.161111118090472,0.101388894748172,0.0403171069920063,0.0027488935738802,-0.017409659922123
5,0.991666665193688,0.16527778158427,0.108333335930496,0.0103847095742822,-0.0284052342176437,-0.021685715764761
5,0.997222232726705,0.166666673467524,0.101388894748172,0.00366519158706069,-0.0167987942695618,-0.00946841109544039
5,1.00000001649321,0.163888889701015,0.0986111170596459,0.00977384392172098,-0.0134390350431204,-0.0293215326964855
5,1.00138890837647,0.161111118090472,0.0986111170596459,0.01588249579072,-0.0265726372599602,-0.0256563406437635
5,1.00277780025972,0.159722226207217,0.0902777839940679,0.0418442711234093,-0.000610865245107561,-0.0293215326964855
5,0.998611124609959,0.161111118090472,0.0875000002275597,0.0259617734700441,-0.011606439948082,-0.0265726372599602
5,1.00416669214298,0.161111118090472,0.0875000002275597,0.0241291765123606,-0.0033597587607801,-0.0167987942695618
5,1.0125000434425,0.161111118090472,0.0819444448505077,0.0290160998702049,0.0152716310694814,0.00122173049021512
5,1.00972225967599,0.154166670830166,0.0986111170596459,0.0332921557128429,0.0412334054708481,0.0021380283869803
5,1.00138890837647,0.15555556271342,0.0750000036681839,0.0412334054708481,0.0204639863222837,0.00641408516094089
5,1.00277780025972,0.156944454596674,0.0861111144222878,0.0335975885391235,0.00152716308366507,0.0045814891345799
5,0.998611124609959,0.154166670830166,0.0861111144222878,0.037568211555481,0.0113010071218014,0.00946841109544039
5,1.00277780025972,0.169444445078067,0.0750000036681839,0.0418442711234093,-0.00733038317412138,0.00702495034784079
5,1.00972225967599,0.159722226207217,0.0666666706026059,0.0326812900602817,-0.00244346098043024,-0.00366519158706069
5,1.0125000434425,0.154166670830166,0.0819444448505077,0.027488935738802,0.00183259579353034,0.00794124789535999
5,1.0125000434425,0.150000007336368,0.0944444474878658,0.0345138870179653,0.00671951752156019,0.0109955742955208
5,1.0125000434425,0.148611115453114,0.0930555616825939,0.0452040284872055,0.011606439948082,0.0106901414692402
5,1.00694447590948,0.150000007336368,0.0944444474878658,0.0381790772080422,0.00122173049021512,0.00763581553474069
5,1.00555558402623,0.152777778946911,0.101388894748172,0.0601702257990837,-0.00549778714776039,0.0131336031481624
5,1.00555558402623,0.156944454596674,0.0819444448505077,0.0583376325666905,0.00855211354792118,0.00488692196086049
5,1.00277780025972,0.161111118090472,0.0791666671619817,0.0543670058250427,0.0146607663482428,0.0045814891345799
5,1.00277780025972,0.163888889701015,0.0819444448505077,0.0299323964864016,0.00366519158706069,0.00794124789535999
5,1.00694447590948,0.161111118090472,0.0833333367337618,0.0198531206697226,0.0143553335219622,0.017409659922123
5,1.00416669214298,0.156944454596674,0.0875000002275597,0.0201585534960032,0.00977384392172098,0.0134390350431204
5,1.00694447590948,0.154166670830166,0.0861111144222878,0.0226020142436027,-0.00580321997404099,0.00702495034784079
5,1.00555558402623,0.156944454596674,0.0916666697993398,0.0284052342176437,-0.0033597587607801,0.00549778714776039
5,1.00555558402623,0.156944454596674,0.0916666697993398,0.0198531206697226,-0.000916297896765172,0.000610865245107561
5,1.00000001649321,0.156944454596674,0.0777777813567098,0.015577063895762,0.00427605677396059,0.00824668072164059
5,1.00138890837647,0.156944454596674,0.0847222225390337,-0.00855211354792118,-0.0027488935738802,0.0219911485910416
5,1.00138890837647,0.156944454596674,0.0847222225390337,0.00580321997404099,-0.00794124789535999,0.0250454749912024
5,1.00694447590948,0.158333334323963,0.0763888894734557,0.0247400421649218,-0.00671951752156019,0.0149661982432008
5,1.00555558402623,0.154166670830166,0.0763888894734557,0.0265726372599602,0.00946841109544039,0.00885754637420177
5,1.00555558402623,0.154166670830166,0.0763888894734557,0.0293215326964855,0.00641408516094089,0.0241291765123606
5,1.00277780025972,0.16527778158427,0.0750000036681839,0.0280998013913631,-0.00397062394768,0.0287106670439243
5,1.00833336779274,0.158333334323963,0.0750000036681839,0.00855211354792118,-0.000305432622553781,0.015577063895762
5,1.00833336779274,0.158333334323963,0.0750000036681839,0.00244346098043024,-0.0311541277915239,0.011606439948082
5,1.00555558402623,0.161111118090472,0.0750000036681839,-0.0140499006956816,-0.0308486949652433,-0.0045814891345799
5,1.00000001649321,0.161111118090472,0.0819444448505077,-0.0164933614432812,-0.0329867228865623,0.00244346098043024
5,1.00000001649321,0.161111118090472,0.0819444448505077,-0.0293215326964855,-0.0323758572340012,0.00763581553474069
5,1.00138890837647,0.16527778158427,0.0819444448505077,-0.0482583530247212,-0.0210748501121998,0.0177150927484035
5,1.00555558402623,0.172222228844576,0.0847222225390337,-0.0690277740359306,-0.0247400421649218,0.00977384392172098
5,1.00555558402623,0.163888889701015,0.0777777813567098,-0.0888808965682983,-0.0177150927484035,0.00946841109544039
5,1.00555558402623,0.163888889701015,0.0777777813567098,-0.100181899964809,-0.0027488935738802,0.0164933614432812
5,1.01527782720901,0.150000007336368,0.0902777839940679,-0.101403631269932,0.0284052342176437,0.0293215326964855
5,1.01527782720901,0.150000007336368,0.0902777839940679,-0.0959058403968811,0.0717766657471657,0.0113010071218014
5,1.0125000434425,0.144444451959316,0.0958333393711199,-0.0937678143382072,0.0320704244077206,0.0045814891345799
5,0.993055557076942,0.150000007336368,0.0791666671619817,-0.106595985591412,0.0183259565383196,0.0103847095742822
5,0.99583334084345,0.15555556271342,0.0875000002275597,-0.120645888149738,0.0213802829384804,0.027488935738802
5,0.997222232726705,0.150000007336368,0.0930555616825939,-0.119424156844616,0.00763581553474069,0.0122173046693206
5,1.00833336779274,0.154166670830166,0.0972222251763917,-0.117286130785942,0.00641408516094089,0.0113010071218014
5,1.00972225967599,0.14722222356986,0.101388894748172,-0.111482910811901,-0.00641408516094089,0.000610865245107561
5,1.00555558402623,0.138888896582264,0.0944444474878658,-0.101098194718361,-0.0189368221908808,-0.0122173046693206
5,1.00555558402623,0.144444451959316,0.100000002864918,-0.0943786799907684,-0.00427605677396059,-0.000305432622553781
5,1.00277780025972,0.152777778946911,0.0902777839940679,-0.0794124826788902,-0.00885754637420177,-0.00122173049021512
5,1.00138890837647,0.14722222356986,0.0916666697993398,-0.0742201283574104,0.00488692196086049,0.0140499006956816
5,1.0125000434425,0.143055560076062,0.0819444448505077,-0.0595593601465225,0.0180205255746841,0.0265726372599602
5,1.00972225967599,0.134722233088466,0.0986111170596459,-0.0500909499824047,-0.00488692196086049,0.0045814891345799
5,1.00000001649321,0.13750000469901,0.101388894748172,-0.0427605658769607,-0.000305432622553781,0.00702495034784079
5,1.00000001649321,0.140277788465518,0.0944444474878658,-0.0259617734700441,0.00763581553474069,0.0021380283869803
5,1.00277780025972,0.131944449321958,0.0986111170596459,0.000916297896765172,-0.0113010071218014,0.00671951752156019
5,1.00277780025972,0.131944449321958,0.0986111170596459,-0.0027488935738802,-0.0113010071218014,0.0122173046693206
5,1.00694447590948,0.130555557438704,0.0902777839940679,0.00183259579353034,-0.00427605677396059,-0.00244346098043024
5,1.00555558402623,0.12916666555545,0.101388894748172,0.00946841109544039,-0.0241291765123606,-0.00366519158706069
5,1.00972225967599,0.133333341205212,0.0972222251763917,0.0354301854968071,-0.00549778714776039,-0.0128281703218818
5,1.00555558402623,0.12777778582816,0.102777780553444,0.0473420582711697,-0.0131336031481624,0.00549778714776039
5,1.01527782720901,0.138888896582264,0.0944444474878658,0.0565050356090069,0.0247400421649218,-0.0033597587607801
5,1.00277780025972,0.136111112815755,0.101388894748172,0.0610865242779255,-0.0021380283869803,0.01191187184304
5,1.0125000434425,0.13750000469901,0.101388894748172,0.0726929605007172,0.0204639863222837,0.00855211354792118
5,1.01527782720901,0.130555557438704,0.101388894748172,0.0833831056952477,0.01588249579072,0.0045814891345799
5,1.00555558402623,0.13750000469901,0.0916666697993398,0.0726929605007172,-0.00152716308366507,-0.00916297826915979
5,1.00555558402623,0.138888896582264,0.0847222225390337,0.0769690200686455,0.0033597587607801,0.000610865245107561
5,1.00833336779274,0.13750000469901,0.0847222225390337,0.0665843114256859,0.0143553335219622,0.00946841109544039
5,1.00833336779274,0.13750000469901,0.0944444474878658,0.0775798857212067,0.00702495034784079,0.00366519158706069
5,1.00555558402623,0.144444451959316,0.0944444474878658,0.0623082555830479,-0.0100792767480016,-0.00824668072164059
5,1.0125000434425,0.140277788465518,0.0902777839940679,0.0723875313997269,-0.0027488935738802,0.00152716308366507
5,1.00972225967599,0.12777778582816,0.101388894748172,0.0595593601465225,-0.0171042270958424,-0.00549778714776039
5,1.00277780025972,0.133333341205212,0.0944444474878658,0.0650571510195732,-0.0265726372599602,-0.00549778714776039
5,1.00277780025972,0.133333341205212,0.0916666697993398,0.107206851243973,-0.00885754637420177,0.0259617734700441
5,1.00416669214298,0.134722233088466,0.0819444448505077,0.113010071218014,0.000305432622553781,0.0342084541916847
5,1.00555558402623,0.130555557438704,0.0875000002275597,0.135001212358475,0.0219911485910416,0.0507018156349659
5,1.00972225967599,0.138888896582264,0.0916666697993398,0.158214092254639,0.0302378293126821,0.0494800843298435
5,1.00000001649321,0.140277788465518,0.104166672436698,0.1795943826437,0.0198531206697226,0.0339030213654041
5,0.99583334084345,0.140277788465518,0.101388894748172,0.179288953542709,0.00641408516094089,0.0204639863222837
5,1.00416669214298,0.143055560076062,0.0944444474878658,0.155159771442413,0.0100792767480016,0.017409659922123
