Activity,acc_x,acc_y,acc_z,gyro_x,gyro_y,gyro_z
0,0.94305554652751,0.00972222266958873,0.462500024646461,-0.286801218986511,-0.304210901260376,0.0705549344420433
0,0.936111184358955,-0.0569444456537738,0.431944451838729,-0.194866016507149,-0.497549742460251,0.081855945289135
0,0.933333400592447,-0.0416666683668809,0.424999992422458,-0.145385921001434,-0.62338799238205,0.0821613743901253
0,0.95000000594378,-0.0180555564949145,0.426388884305712,-0.0937678143382072,-0.717461228370667,0.081855945289135
0,0.929166724942685,0.00416666691266287,0.438888911254999,-0.0952949747443199,-0.274889349937439,0.0226020142436027
0,0.933333400592447,0.00416666691266287,0.424999992422458,-0.123700208961964,0.115148097276688,0.00671951752156019
0,0.958333357243305,-0.0222222230277034,0.412500014097029,-0.10567969083786,0.0812450796365738,-0.0510072484612465
0,0.940277860008718,-0.0347222241455659,0.384722225055805,-0.0565050356090069,-0.0351247526705265,-0.0256563406437635
0,0.930555616825939,-0.0208333341834404,0.380555573717971,-0.160962998867035,-0.0726929605007172,0.10048733651638
0,0.930555616825939,-0.0208333341834404,0.380555573717971,-0.160962998867035,-0.0726929605007172,0.10048733651638
0,0.930555616825939,-0.0208333341834404,0.380555573717971,-0.135917514562607,-0.100181899964809,0.120951317250729
0,0.926388941176177,-0.027777779924251,0.400000011459671,-0.0448985956609249,-0.0125227374956012,0.0693332031369209
0,0.956944465360051,-0.027777779924251,0.418055581630046,0.0146607663482428,0.223882108926773,0.0277943685650826
0,0.956944465360051,-0.0222222230277034,0.422222257279808,0.0201585534960032,0.239764615893364,0.0253509078174829
0,0.965277816659576,-0.0236111118719664,0.408333338447267,0.0421497002243996,0.240680903196335,0.0546724386513233
0,0.930555616825939,-0.0208333341834404,0.363888895430851,-0.00610865233466029,-0.0247400421649218,0.0516181141138077
0,0.931944508709193,-0.0180555564949145,0.354166676560001,-0.0433714315295219,-0.498160600662232,0.00488692196086049
0,0.931944508709193,-0.0444444460554069,0.368055571080613,-0.0143553335219622,-0.565966665744781,0.0247400421649218
0,0.962500032893068,-0.0569444456537738,0.420833365396554,0.0870482996106148,0.162184715270996,0.0271835029125214
0,0.959722249126559,-0.0513888902767219,0.470833327322128,0.124921940267086,0.897971928119659,0.0552833043038845
0,0.973611167959101,-0.026388891079988,0.411111122213775,0.159435823559761,1.05557513236999,0.0106901414692402
0,0.963888924776322,-0.00694444498106275,0.415277797863537,0.0354301854968071,0.865290641784668,0.0959058403968811
0,0.940277860008718,0.0180555564949145,0.412500014097029,-0.105068825185299,0.817337691783905,0.2165517359972
0,0.902777779160856,0.052777782159976,0.488888921804431,-0.309403240680695,1.58947134017944,0.378431022167206
0,0.913888914226889,0.0388888906783549,0.576388915954009,-0.421497017145157,2.16154670715332,0.356745302677154
0,0.911111130460381,0.00277777787846293,0.504166683896369,-0.605062007904053,1.82098925113678,0.291382730007172
0,0.844444514559616,-0.0986111170596459,0.454166673346937,-0.835663676261902,0.857654809951782,0.265115529298782
0,0.830555595727074,-0.125000002061652,0.484722246154669,-0.826500654220581,0.145080491900444,0.0739146918058395
0,0.836111163260091,-0.0791666671619817,0.522222229754814,-1.04060900211334,-0.36041048169136,0.0125227374956012
0,0.794444455386325,-0.0680555564078778,0.558333370095563,-1.17102873325348,-0.0513126812875271,0.0800233483314514
0,0.791666671619817,-0.10972222781375,0.58611111051293,-1.20523715019226,0.745255589485168,0.143858760595322
0,0.85138887672817,-0.290277795801886,0.556944478212309,-1.16583633422852,1.2278391122818,0.451429426670075
0,0.87500003874349,-0.305555557893823,0.563888889004722,-0.663705110549927,2.20949959754944,0.902553379535675
0,0.847222298326124,-0.272222225631511,0.594444461812454,0.139582708477974,2.73117852210998,0.725402474403381
0,0.736111142161226,-0.24583335278547,0.519444445988306,0.92943149805069,1.28037357330322,0.00427605677396059
0,0.729166682744956,-0.180555567988136,0.568055564654484,0.564439475536346,-0.576351344585419,-0.3961461186409
0,0.806944482335612,-0.101388894748172,0.616666683320662,0.119118720293045,-0.766025006771088,-0.0784961804747581
0,0.848611190209378,0.0250000007162294,0.584722267253534,0.11087204515934,-0.266337245702743,0.123394779860973
0,0.848611190209378,0.0250000007162294,0.584722267253534,0.21135938167572,1.01922869682312,0.948368310928345
0,0.741666709694243,-0.161111118090472,0.666666693870094,0.516181111335754,0.625831425189972,0.897666454315186
0,0.677777780312269,-0.12916666555545,0.709722245003256,0.745561003684998,1.49020576477051,0.84085601568222
0,0.759722255552688,-0.118055554801345,0.725000007095193,0.873231887817383,1.42973005771637,0.392480909824371
0,0.775000017644626,-0.1194444466846,0.809722266102121,0.704938471317291,1.12826812267303,0.295353353023529
0,0.775000017644626,-0.1194444466846,0.809722266102121,0.758694648742676,1.26296389102936,0.192117124795914
0,0.701388893703731,-0.104166672436698,0.740277817810989,0.869872093200684,1.40773892402649,0.203112691640854
0,0.647222256128395,-0.116666675074056,0.75000001236991,0.569326400756836,1.06962502002716,0.172263994812965
0,0.647222256128395,-0.116666675074056,0.75000001236991,0.543975472450256,1.02258837223053,0.187535628676414
0,0.630555602153203,-0.125000002061652,0.762500039319197,0.471587955951691,1.14292883872986,0.291688144207001
0,0.623611142736933,-0.156944454596674,0.805555590452358,0.379958182573318,0.828944146633148,0.375376701354981
0,0.623611142736933,-0.156944454596674,0.805555590452358,0.498466044664383,0.138055548071861,0.464257597923279
0,0.618055575203916,-0.170833336961321,0.801388914802596,0.554665625095367,-0.0986547395586967,0.402560204267502
0,0.615277791437408,-0.125000002061652,0.759722255552688,0.440739274024963,0.0534507073462009,0.341168224811554
0,0.563888889004722,-0.108333335930496,0.806944482335612,0.351858377456665,0.105068825185299,0.380569040775299
0,0.529166689171085,-0.106944444047242,0.82916670384382,0.29596421122551,0.239153742790222,0.38576140999794
0,0.58333337537028,-0.0958333393711199,0.826388920077312,0.361326783895493,0.482583552598953,0.286190360784531
0,0.606944488761742,-0.111111119697004,0.82222224442755,0.376598417758942,0.258090555667877,0.239764615893364
0,0.618055575203916,-0.136111112815755,0.818055568777787,0.397673279047012,-0.0745255574584007,0.2165517359972
0,0.561111153862072,-0.122222230451108,0.794444455386325,0.32192599773407,-0.179288953542709,0.29046642780304
0,0.551388910679293,-0.0819444448505077,0.781944477060896,0.247094988822937,-0.0412334054708481,0.182648703455925
0,0.54027777561326,-0.0777777813567098,0.815277785011279,0.209221348166466,0.0806342139840126,0.102625362575054
0,0.569444456537738,-0.0805555590452358,0.825000028194058,0.123394779860973,0.164933621883392,0.103541657328606
0,0.590277786162692,-0.0944444474878658,0.831944487610329,-0.0479529201984406,0.0919352173805237,0.131336033344269
0,0.591666678045946,-0.104166672436698,0.834722271376837,-0.0980438739061356,-0.102014496922493,0.208610475063324
0,0.545833343146276,-0.104166672436698,0.863888903677457,0.00397062394768,0.0690277740359306,0.272445887327194
0,0.527777797287831,-0.0708333340964038,0.869444471210474,0.0329867228865623,0.244040668010712,0.229379892349243
0,0.525000013521323,-0.0722222259796579,0.849999984844916,-0.0323758572340012,0.231823354959488,0.314290165901184
0,0.541666667496514,-0.0944444474878658,0.844444514559616,0.0250454749912024,0.228769034147263,0.326507478952408
0,0.554166694445801,-0.101388894748172,0.837500055143345,0.0164933614432812,0.145385921001434,0.217468023300171
0,0.581944483487025,-0.0972222251763917,0.852777768611424,-0.0140499006956816,0.30695977807045,0.134390354156494
0,0.548611126912784,-0.0944444474878658,0.84583340644287,-0.0326812900602817,0.313373863697052,0.0907134860754013
0,0.550000018796039,-0.113888891307548,0.827777811960566,-0.0226020142436027,0.277943700551987,0.0956004112958908
0,0.568055564654484,-0.130555557438704,0.815277785011279,0.0839939713478088,0.149661988019943,0.0919352173805237
0,0.525000013521323,-0.134722233088466,0.826388920077312,0.146302223205566,-0.168598800897598,0.192727982997894
0,0.54722223502953,-0.123611110178398,0.852777768611424,0.164322748780251,-0.347582310438156,0.160657554864883
0,0.523611121638068,-0.104166672436698,0.866666687443965,0.157297804951668,-0.242208063602448,0.195171445608139
0,0.525000013521323,-0.0986111170596459,0.848611190209378,0.145996794104576,-0.141415297985077,0.173791155219078
0,0.548611126912784,-0.100000002864918,0.86805557932722,0.136528387665749,-0.0598647929728031,0.113315500319004
0,0.534722256704101,-0.106944444047242,0.89166674134254,0.149967417120934,0.081855945289135,0.0714712366461754
0,0.483333354271415,-0.100000002864918,0.838888947026599,0.115453533828259,0.116980694234371,0.0726929605007172
0,0.505555575779623,-0.115277783190802,0.831944487610329,0.0390953756868839,-0.117286130785942,0.189979091286659
0,0.538888932353864,-0.102777780553444,0.884722281926269,0.117896988987923,-0.182648703455925,0.170736834406853
0,0.54722223502953,-0.0986111170596459,0.87500003874349,0.269391566514969,-0.182343274354935,0.0803287774324417
0,0.54722223502953,-0.0986111170596459,0.87500003874349,0.195476874709129,-0.0800233483314514,0.0381790772080422
0,0.556944478212309,-0.111111119697004,0.82222224442755,0.125227376818657,-0.0394008085131645,0.00305432616733015
0,0.49166670557094,-0.0916666697993398,0.834722271376837,0.0531452745199203,0.0213802829384804,0.0580321997404099
0,0.49166670557094,-0.0916666697993398,0.834722271376837,0.0729983970522881,-0.0229074470698834,0.172874867916107
0,0.519444445988306,-0.0916666697993398,0.827777811960566,0.0161879286170006,0.0607810914516449,0.258090555667877
0,0.594444461812454,-0.104166672436698,0.82222224442755,-0.0464257597923279,0.0580321997404099,0.199447497725487
0,0.594444461812454,-0.104166672436698,0.82222224442755,0.0189368221908808,0.0894917547702789,0.127670839428902
0,0.562499997121468,-0.1194444466846,0.865277795560711,0.0959058403968811,-0.0430659987032413,0.11606439948082
0,0.562499997121468,-0.1194444466846,0.865277795560711,0.144164204597473,0.0305432621389627,0.0525344125926495
0,0.531944472937593,-0.0972222251763917,0.849999984844916,0.124616511166096,0.0213802829384804,0.112093769013882
0,0.506944467662877,-0.0930555616825939,0.844444514559616,0.102625362575054,-0.0372627787292004,0.158824965357781
0,0.513888927079148,-0.0944444474878658,0.834722271376837,0.139277279376984,-0.0965167060494423,0.121867619454861
0,0.555555586329055,-0.111111119697004,0.862500011794203,0.184175878763199,-0.146913096308708,0.0867428630590439
0,0.568055564654484,-0.118055554801345,0.858333336144441,0.191200822591782,-0.120645888149738,0.0662788823246956
0,0.545833343146276,-0.106944444047242,0.85138887672817,0.21135938167572,-0.087659165263176,0.076052725315094
0,0.529166689171085,-0.100000002864918,0.848611190209378,0.171347707509995,-0.0873537287116051,0.0821613743901253
0,0.550000018796039,-0.100000002864918,0.834722271376837,0.0314595587551594,0.0268780700862408,0.0482583530247212
0,0.569444456537738,-0.1194444466846,0.816666676894533,-0.0134390350431204,-0.0650571510195732,0.0543670058250427
0,0.545833343146276,-0.111111119697004,0.84583340644287,0.0794124826788902,-0.151494577527046,0.0565050356090069
0,0.526388905404577,-0.0958333393711199,0.852777768611424,0.116675265133381,-0.162184715270996,0.108428582549095
0,0.522222229754814,-0.0819444448505077,0.840277838909853,0.0620028227567673,-0.125532805919647,0.0992656052112579
0,0.545833343146276,-0.0833333367337618,0.831944487610329,0.00824668072164059,-0.0513126812875271,0.0647517144680023
0,0.561111153862072,-0.0875000002275597,0.831944487610329,-0.015577063895762,-0.0204639863222837,0.0497855171561241
0,0.543055559379768,-0.0833333367337618,0.833333379493583,0.0152716310694814,-0.0653625801205635,0.0491746515035629
0,0.548611126912784,-0.0930555616825939,0.858333336144441,0.0842994004487991,-0.103236228227615,0.0797179117798805
0,0.526388905404577,-0.0805555590452358,0.854166660494678,0.0934623852372169,-0.0891863256692886,0.119118720293045
0,0.541666667496514,-0.0777777813567098,0.855555552377932,0.0723875313997269,-0.122173048555851,0.105374254286289
0,0.568055564654484,-0.0847222225390337,0.856944444261187,0.0580321997404099,-0.00733038317412138,0.0503963828086853
0,0.587500002396184,-0.0986111170596459,0.830555595727074,-0.0027488935738802,0.120035022497177,-0.0439822971820831
0,0.591666678045946,-0.111111119697004,0.826388920077312,-0.00824668072164059,0.0968221426010132,-0.0632245540618896
0,0.554166694445801,-0.100000002864918,0.854166660494678,0.114842668175697,0.0452040284872055,-0.0293215326964855
0,0.522222229754814,-0.0680555564078778,0.849999984844916,0.0754418596625328,0.140804439783096,0.0418442711234093
0,0.52083333787156,-0.0583333375370279,0.818055568777787,-0.0519235469400883,0.216246291995048,0.0473420582711697
0,0.534722256704101,-0.0791666671619817,0.811111157985375,-0.155465200543404,0.195171445608139,0.0473420582711697
0,0.533333364820847,-0.0875000002275597,0.811111157985375,-0.175318330526352,0.0995710343122482,0.0207694191485643
0,0.570833348420992,-0.125000002061652,0.830555595727074,-0.171653136610985,0.0335975885391235,0.0235183127224445
0,0.575000024070755,-0.112499999424294,0.837500055143345,-0.115148097276688,0.0693332031369209,0.0729983970522881
0,0.53750004047061,-0.0944444474878658,0.84583340644287,-0.105374254286289,0.128587126731873,0.127365410327911
0,0.493055597454194,-0.0847222225390337,0.837500055143345,-0.164322748780251,0.156686931848526,0.140804439783096
0,0.500000008246606,-0.0888888921108138,0.819444460661041,-0.16920967400074,0.117591559886932,0.126449108123779
0,0.529166689171085,-0.10972222781375,0.827777811960566,-0.139582708477974,-0.0198531206697226,0.125532805919647
0,0.568055564654484,-0.140277788465518,0.84583340644287,0.0577267669141293,-0.248316720128059,0.0861319974064827
0,0.605555596878487,-0.16527778158427,0.861111119910949,0.136528387665749,-0.340557366609573,0.0623082555830479
0,0.611111115787646,-0.170833336961321,0.858333336144441,0.193033412098885,-0.381485342979431,-0.0207694191485643
0,0.595833353695709,-0.156944454596674,0.852777768611424,0.280387133359909,-0.313373863697052,-0.0623082555830479
0,0.570833348420992,-0.120833338567854,0.844444514559616,0.154854342341423,-0.350636661052704,0.0314595587551594
0,0.568055564654484,-0.118055554801345,0.804166698569104,-0.0326812900602817,-0.245567828416824,0.0265726372599602
0,0.613888899554154,-0.100000002864918,0.795833347269579,-0.190895393490791,-0.0894917547702789,-0.0986547395586967
0,0.608333332021137,-0.10972222781375,0.805555590452358,-0.340557366609573,-0.0409279726445675,-0.149661988019943
0,0.536111148587356,-0.100000002864918,0.77638890952788,-0.512515962123871,-0.00427605677396059,-0.0986547395586967
0,0.509722251429385,-0.104166672436698,0.780555585177642,-0.617279350757599,-0.0268780700862408,0.00885754637420177
0,0.548611126912784,-0.144444451959316,0.790277828360421,-0.529314756393433,-0.151800006628036,-0.122478485107422
0,0.605555596878487,-0.140277788465518,0.890277849459286,-0.10598511993885,-0.598647952079773,-0.18020524084568
0,0.577777807837263,-0.0958333393711199,0.848611190209378,-0.0937678143382072,0.0134390350431204,-0.229074463248253
0,0.579166699720517,-0.0875000002275597,0.837500055143345,-0.110566608607769,0.425162196159363,-0.351552963256836
0,0.525000013521323,-0.0986111170596459,0.798611131036088,-0.150272846221924,0.280387133359909,-0.272751331329346
0,0.525000013521323,-0.112499999424294,0.788888936477167,-0.180510684847832,0.126143679022789,-0.148745685815811
0,0.533333364820847,-0.134722233088466,0.794444455386325,-0.193033412098885,0.0537561401724815,-0.0510072484612465
0,0.533333364820847,-0.134722233088466,0.794444455386325,-0.222965821623802,0.164322748780251,-0.0696386396884918
0,0.587500002396184,-0.148611115453114,0.823611136310804,-0.175318330526352,0.154854342341423,-0.122478485107422
0,0.584722267253534,-0.162500009973726,0.827777811960566,-0.0803287774324417,0.144469633698463,-0.151800006628036
0,0.552777802562547,-0.154166670830166,0.847222298326124,0.0394008085131645,0.0134390350431204,-0.12675453722477
0,0.543055559379768,-0.14722222356986,0.840277838909853,0.108734011650086,-0.0729983970522881,-0.0937678143382072
0,0.563888889004722,-0.138888896582264,0.827777811960566,0.0339030213654041,-0.0186313893646002,-0.123089343309402
0,0.562499997121468,-0.13750000469901,0.800000022919342,-0.0852157026529312,0.0329867228865623,-0.11087204515934
0,0.565277780887976,-0.143055560076062,0.787500044593913,-0.177456349134445,0.021685715764761,-0.117286130785942
0,0.569444456537738,-0.141666668192807,0.790277828360421,-0.188146501779556,-0.0620028227567673,-0.141415297985077
0,0.598611137462217,-0.156944454596674,0.791666671619817,-0.293215304613113,-0.299323976039886,-0.183565005660057
0,0.634722229179108,-0.166666673467524,0.775000017644626,-0.546418964862823,-0.445320755243301,-0.32192599773407
0,0.61944446708717,-0.172222228844576,0.768055606852213,-0.56657749414444,-0.71318519115448,-0.199752941727638
0,0.587500002396184,-0.176388892338373,0.858333336144441,-0.386372268199921,-1.32832646369934,-0.0186313893646002
0,0.630555602153203,-0.177777784221628,0.758333363669434,-0.588568687438965,-1.65330684185028,-0.00397062394768
0,0.633333337295854,-0.17361112072783,0.769444450111609,-0.515264809131622,-1.70187056064606,-0.0513126812875271
0,0.683333347845286,-0.177777784221628,0.713888920653019,-0.45998153090477,-1.85336518287659,-0.21135938167572
0,0.773611125761372,-0.140277788465518,0.613888899554154,-0.321620553731918,-1.11696708202362,0.0733038261532784
0,0.784722260827405,-0.262500006760661,0.784722260827405,-0.437684953212738,-2.38573431968689,-0.263282924890518
0,0.837500055143345,-0.194444450352783,0.736111142161226,-0.541532039642334,-4.19389533996582,-0.387899428606033
0,0.877777822509998,-0.202777789496344,0.594444461812454,-0.588874101638794,-4.57874059677124,-0.516181111335754
0,0.831944487610329,-0.236111109602691,0.469444484062732,-0.559247136116028,-4.37287902832031,-0.280692577362061
0,0.865277795560711,-0.24583335278547,0.479166678621653,-0.810618162155151,-4.40647649765015,-0.807258427143097
0,0.969444492309338,-0.269444466176932,0.493055597454194,-1.16980695724487,-3.78369927406311,-0.662788808345795
0,1.02500007039179,-0.272222225631511,0.413888905980283,-1.53479897975922,-4.05919933319092,-0.211970239877701
0,0.973611167959101,-0.269444466176932,0.302777798439244,-1.93186128139496,-4.94434309005737,-0.548556983470917
0,0.95000000594378,-0.256944463539574,0.229166674498349,-1.3322970867157,-2.87473177909851,-0.912632703781128
0,0.901388887277602,-0.25555557165632,0.0444444460554069,-0.938594460487366,-2.52317881584167,-0.773355424404144
0,0.993055557076942,-0.269444466176932,0.0402777795226179,-1.35153937339783,-3.79286241531372,-0.689972281455994
0,1.00833336779274,-0.266666682410424,-0.0458333348996699,-1.81152093410492,-5.50114679336548,-0.155770644545555
0,1.00138890837647,-0.143055560076062,-0.0986111170596459,-1.46729826927185,-4.544837474823,0.16951510310173
0,0.95000000594378,-0.0472222237439329,-0.265277790527169,-0.286495804786682,-2.62763690948486,-0.417220950126648
0,1.02500007039179,-0.116666675074056,-0.233333350148112,-0.179288953542709,-1.71072816848755,-0.0293215326964855
0,0.905555562927365,-0.131944449321958,-0.308333341660331,0.0357356183230877,-1.37139248847961,0.0739146918058395
0,0.870833363093728,-0.0847222225390337,-0.333333346935047,-0.112399205565453,-1.13132238388062,-0.0577267669141293
0,0.899999995394348,-0.104166672436698,-0.305555557893823,-0.232128798961639,-1.59466373920441,-0.10598511993885
0,0.99583334084345,-0.0625000010308258,-0.398611119576417,0.064446285367012,-0.213191971182823,-0.229074463248253
0,0.99583334084345,-0.0625000010308258,-0.398611119576417,0.125532805919647,-0.16951510310173,-0.13225232064724
0,0.925000049292922,-0.0902777839940679,-0.415277797863537,0.11636982858181,-0.182648703455925,-0.0577267669141293
0,0.86805557932722,-0.108333335930496,-0.397222227693163,0.176845490932465,-0.0458148941397667,-0.0806342139840126
0,0.837500055143345,-0.0944444474878658,-0.372222246730376,0.433714330196381,0.775798857212067,-0.129197999835014
0,0.823611136310804,-0.126388893944906,-0.390277792588821,0.593761026859283,1.2122620344162,-0.0546724386513233
0,0.856944444261187,-0.111111119697004,-0.375000006184955,0.562606871128082,1.29778325557709,-0.00641408516094089
0,0.923611157409668,-0.105555564319952,-0.384722225055805,0.813061654567719,1.57603228092194,0.159741267561913
0,0.976388951725609,-0.102777780553444,-0.327777779402031,0.728762209415436,1.10383355617523,0.556498229503632
0,1.00277780025972,-0.0958333393711199,-0.298611122789481,0.468533635139465,0.516486585140228,0.880256831645966
0,0.979166735492117,-0.126388893944906,-0.258333331110899,0.348193198442459,0.25870144367218,1.07145762443543
0,0.95000000594378,-0.136111112815755,-0.284722228268869,0.395229816436768,0.801149785518646,0.764192402362823
0,0.98888888142718,-0.205555561106887,-0.268055574293678,0.0513126812875271,0.141720741987228,0.739452362060547
0,0.965277816659576,-0.233333350148112,-0.276388901281273,0.122478485107422,0.547335267066956,0.627664029598236
0,0.933333400592447,-0.236111109602691,-0.261111114877407,-0.00794124789535999,0.594982743263245,0.131030589342117
0,0.919444481759906,-0.233333350148112,-0.281944444502361,-0.0925460830330849,0.369573473930359,-0.536645114421844
0,1.01388893532575,-0.261111114877407,-0.244444460902216,-0.193338856101036,0.497549742460251,-0.518319189548492
0,1.04583335139288,-0.2194444556275,-0.250000004123303,-0.478307485580444,-0.145385921001434,-0.191200822591782
0,0.849999984844916,-0.17361112072783,-0.226388890731841,-0.441960990428925,0.151800006628036,-1.06962502002716
0,0.941666654644256,-0.254166679773066,-0.166666673467524,-0.451734840869904,0.485332429409027,-1.65177965164185
0,1.10277782135859,-0.280555576931036,-0.277777793164528,-0.594066441059113,0.0250454749912024,-1.04213607311249
0,1.13888891307548,-0.187500003092477,-0.243055569018962,0.115453533828259,0.402560204267502,0.641408503055573
0,1.13888891307548,-0.187500003092477,-0.243055569018962,0.0259617734700441,-0.0583376325666905,0.398894995450974
0,1.00694447590948,-0.140277788465518,-0.20972223675665,-0.0262672062963247,-0.325591176748276,0.0983493030071259
0,0.979166735492117,-0.148611115453114,-0.227777782615095,-0.04764748737216,-0.213802829384804,-0.206777885556221
0,0.979166735492117,-0.148611115453114,-0.227777782615095,0.117591559886932,0.00702495034784079,-0.338724792003632
0,1.0125000434425,-0.193055558469529,-0.265277790527169,0.123089343309402,0.0109955742955208,-0.212886542081833
0,0.977777843608863,-0.156944454596674,-0.252777787889811,0.0280998013913631,-0.000916297896765172,-0.107512280344963
0,0.977777843608863,-0.156944454596674,-0.252777787889811,-0.0482583530247212,0.0540615729987621,-0.0299323964864016
0,1.03472221632685,-0.141666668192807,-0.268055574293678,-0.122783914208412,0.0940732508897781,-0.192727982997894
0,1.06527783775844,-0.166666673467524,-0.254166679773066,-0.0916297882795334,0.0271835029125214,-0.120340451598167
0,1.07361118905796,-0.144444451959316,-0.251388896006557,-0.0604756586253643,0.00641408516094089,0.0320704244077206
0,1.00138890837647,-0.120833338567854,-0.243055569018962,-0.119424156844616,0.138055548071861,0.0952949747443199
0,0.979166735492117,-0.104166672436698,-0.259722222994153,-0.0027488935738802,0.178678080439568,0.0772744566202164
0,1.00138890837647,-0.161111118090472,-0.238888893369199,-0.0791070461273193,0.379652738571167,0.000610865245107561
0,0.94305554652751,-0.190277786858986,-0.265277790527169,0.0152716310694814,1.13804197311401,-0.214413702487946
0,0.976388951725609,-0.170833336961321,-0.148611115453114,0.0271835029125214,-0.184481307864189,-0.254425376653671
0,0.972222276075846,-0.150000007336368,-0.029166668768514,-0.188146501779556,-0.514043092727661,-0.0561996027827263
0,1.08888890252604,-0.148611115453114,-0.323611128064198,0.145691365003586,0.376903861761093,-0.0348193198442459
0,1.00000001649321,-0.100000002864918,-0.283333336385615,0.098960168659687,0.252592772245407,-0.0235183127224445
0,1.01527782720901,-0.12916666555545,-0.222222239394008,-0.0607810914516449,0.318260788917542,-0.0329867228865623
0,0.947222222177272,-0.197222234119292,-0.233333350148112,0.28496864438057,0.92607170343399,-0.11087204515934
0,0.94305554652751,-0.112499999424294,-0.213888888094483,0.161268427968025,1.2168436050415,-0.359494209289551
0,0.888888957576031,-0.133333341205212,-0.163888889701015,0.266642689704895,1.17958080768585,-0.869566679000854
0,0.877777822509998,-0.115277783190802,-0.116666675074056,0.0164933614432812,1.01922869682312,-1.43614423274994
0,0.940277860008718,-0.168055565350778,-0.111111119697004,-0.409585148096085,1.12460291385651,-1.82495987415314
0,1.02222228662528,-0.0819444448505077,-0.0930555616825939,-0.251676470041275,0.981660425662994,-1.65849912166596
0,1.1291666698927,0.0361111129898289,-0.111111119697004,-0.155159771442413,1.06168377399445,-0.882700264453888
0,1.13055556177595,0.0486111125881959,-0.0847222225390337,-0.0757472887635231,0.927293419837952,-0.599258780479431
0,1.11388895642462,0.052777782159976,-0.0222222230277034,0.0357356183230877,0.607200026512146,-0.297185927629471
0,1.06527783775844,0.0513888902767219,-0.0388888906783549,-0.0161879286170006,0.5711590051651,-0.0977384373545647
0,1.0513889189259,0.0222222230277034,-0.0180555564949145,-0.0558941699564457,0.483805269002914,-0.0693332031369209
0,1.04305556762637,0.033333335301303,-0.00972222266958873,-0.105068825185299,0.421497017145157,0.0131336031481624
0,1.02777785415829,0.03194444645704,0.0361111129898289,-0.0794124826788902,0.323147714138031,0.0222965814173222
0,1.02777785415829,0.03194444645704,0.0361111129898289,0.0705549344420433,-0.0671951770782471,0.00641408516094089
0,1.01944450285877,0.0250000007162294,0.0250000007162294,0.0791070461273193,-0.142331600189209,-0.0219911485910416
0,1.00972225967599,0.03194444645704,0.00277777787846293,0.0708603709936142,-0.178067222237587,0.00702495034784079
0,1.00972225967599,0.03194444645704,0.00277777787846293,0.0534507073462009,-0.112399205565453,0.0131336031481624
0,1.02500007039179,0.029166668768514,-0.033333335301303,-0.00702495034784079,0.0106901414692402,0.00916297826915979
0,1.02500007039179,0.029166668768514,-0.033333335301303,-0.0113010071218014,-0.0164933614432812,0.00244346098043024
0,1.02222228662528,0.03194444645704,-0.033333335301303,-0.0604756586253643,-0.0659734457731247,0.0186313893646002
0,1.02222228662528,0.03194444645704,-0.033333335301303,-0.0604756586253643,-0.0659734457731247,0.0186313893646002
0,1.02222228662528,0.03194444645704,-0.033333335301303,-0.0363464802503586,0.0369573459029198,0.0106901414692402
0,1.0305556379248,0.0194444453391775,-0.027777779924251,-0.0992656052112579,0.157297804951668,-0.00152716308366507
0,1.03472221632685,0.0250000007162294,-0.0388888906783549,-0.122783914208412,0.201585531234741,0.0167987942695618
0,1.02222228662528,0.0180555564949145,-0.0388888906783549,-0.017409659922123,0.182648703455925,0.0329867228865623
0,0.993055557076942,0.0513888902767219,0.00833333382532574,-0.0803287774324417,0.166155353188515,0.0806342139840126
0,0.979166735492117,0.0375000018340919,-0.0180555564949145,-0.162490159273148,0.344222575426102,0.217773467302322
0,0.925000049292922,-0.0250000007162294,-0.00416666691266287,-0.156381502747536,0.28008171916008,-0.181732416152954
0,1.03888889197661,0.00972222266958873,0.0125000003581147,-0.157908663153648,0.246484130620956,-0.232128798961639
0,1.04444445950963,-0.0111111115138517,0.0152777788063885,-0.0290160998702049,0.297491371631622,-0.246178686618805
0,1.0305556379248,0.029166668768514,0.026388891079988,-0.017409659922123,0.256868839263916,-0.177150920033455
0,1.02500007039179,0.0569444456537738,0.026388891079988,0.0351247526705265,0.193644285202026,-0.0445931628346443
0,1.04722224327614,0.0486111125881959,0.052777782159976,0.00763581553474069,-0.0308486949652433,-0.0287106670439243
0,1.01527782720901,0.0222222230277034,0.0680555564078778,-0.00366519158706069,-0.217162594199181,-0.0219911485910416
0,0.981944519258625,0.0416666683668809,0.0625000010308258,0.0140499006956816,-0.0977384373545647,0.0781907513737679
0,0.976388951725609,0.029166668768514,0.0486111125881959,0.00122173049021512,-0.145080491900444,0.101709060370922
0,1.0361111082101,0.055555559848502,0.0194444453391775,-0.0177150927484035,-0.087659165263176,0.208915919065475
0,0.96666670854283,0.033333335301303,0.03194444645704,0.0421497002243996,-0.090408056974411,0.194255143404007
0,1.01388893532575,0.0194444453391775,-0.0111111115138517,0.0201585534960032,-0.0696386396884918,0.264810085296631
0,1.02638896227504,0.027777779924251,-0.0152777788063885,0.00244346098043024,0.0491746515035629,0.368351757526398
0,1.02500007039179,0.03194444645704,-0.00555555575692586,-0.164933621883392,-0.0335975885391235,0.210443079471588
0,1.07500008094122,0.00416666691266287,0.00277777787846293,-0.20616702735424,-0.0280998013913631,0.0531452745199203
0,1.04027778385987,-0.03194444645704,0.026388891079988,-0.0647517144680023,0.0742201283574104,-0.212886542081833
0,1.05555559457566,-0.00416666691266287,0.00972222266958873,-0.0681114718317986,0.166460782289505,-0.0983493030071259
0,1.01805561097552,0.0250000007162294,-0.00277777787846293,-0.182954147458077,0.0131336031481624,0.0897971913218498
0,1.00000001649321,0.0347222241455659,0.0208333341834404,-0.103847093880177,-0.104763388633728,0.0995710343122482
0,0.979166735492117,0.00555555575692586,0.0638888929140799,-0.011606439948082,-0.234266817569733,0.0946841165423393
0,0.970833384192592,-0.0152777788063885,0.0652777787193518,0.0681114718317986,-0.271529614925385,0.0540615729987621
0,0.961111141009813,0.0125000003581147,0.00555555575692586,0.0479529201984406,-0.181121543049812,0.261755764484406
0,0.961111141009813,0.0125000003581147,0.00555555575692586,0.0595593601465225,-0.195476874709129,0.328950941562653
0,1.05277781080915,-0.0152777788063885,-0.0152777788063885,-0.0027488935738802,-0.0540615729987621,0.201890960335732
0,0.899999995394348,-0.0250000007162294,-0.0152777788063885,0.0232128798961639,0.0910189226269722,0.322231411933899
0,0.733333358394718,-0.0222222230277034,-0.00138888893923146,0.0103847095742822,0.128281697630882,0.912632703781128
0,0.795833347269579,-0.0222222230277034,0.0152777788063885,-0.0122173046693206,0.0931569486856461,1.16980695724487
0,1.03194452980806,-0.0208333341834404,0.0208333341834404,-0.0100792767480016,0.00244346098043024,1.314581990242
0,1.25972231242315,-0.0958333393711199,-0.00833333382532574,0.087659165263176,0.419969856739044,0.658512711524963
0,1.25972231242315,-0.0958333393711199,-0.00833333382532574,0.0265726372599602,0.149051114916802,0.327118337154388
0,1.08194444310977,-0.125000002061652,0.03194444645704,0.0525344125926495,0.183870434761047,0.0342084541916847
0,1.04444445950963,-0.1194444466846,0.0638888929140799,0.108428582549095,0.0113010071218014,0.070249505341053
0,1.04444445950963,-0.1194444466846,0.0638888929140799,0.198836639523506,-0.122173048555851,-0.027488935738802
0,0.959722249126559,-0.0972222251763917,0.03194444645704,0.17440202832222,-0.222660377621651,0.0494800843298435
0,1.02083339474202,-0.118055554801345,0.00416666691266287,0.0925460830330849,-0.34330627322197,-0.0277943685650826
0,1.01111115155925,-0.120833338567854,0.00833333382532574,0.0821613743901253,-0.524427831172943,-0.0442877300083637
0,1.01527782720901,-0.0875000002275597,0.00138888893923146,0.0513126812875271,-0.456316351890564,-0.0277943685650826
0,1.07638897282447,-0.1194444466846,-0.0222222230277034,0.116980694234371,-0.502436637878418,-0.00610865233466029
0,1.03194452980806,-0.0916666697993398,-0.030555557612777,0.181121543049812,-0.28496864438057,0.0409279726445675
0,1.0361111082101,-0.0958333393711199,-0.0486111125881959,0.109344877302647,-0.181732416152954,0.0180205255746841
0,1.05833337834217,-0.125000002061652,-0.0513888902767219,0.118813291192055,-0.0164933614432812,0.0027488935738802
0,1.08750001064279,-0.130555557438704,-0.052777782159976,0.184481307864189,0.284663200378418,-0.112704634666443
0,1.00972225967599,-0.101388894748172,-0.0180555564949145,0.230296194553375,0.433408886194229,-0.0357356183230877
0,1.00000001649321,-0.0888888921108138,-0.0166666676506515,0.131641462445259,0.389732033014297,0.0403171069920063
0,1.0361111082101,-0.0722222259796579,-0.0166666676506515,0.0601702257990837,0.279165416955948,0.0983493030071259
0,1.02638896227504,-0.0875000002275597,0.0250000007162294,0.186619326472282,0.204028993844986,0.0259617734700441
0,1.01805561097552,-0.105555564319952,0.029166668768514,0.210443079471588,0.137750118970871,0.0033597587607801
0,1.01111115155925,-0.12777778582816,0.00555555575692586,0.293826192617416,0.234572261571884,-0.0351247526705265
0,1.03194452980806,-0.13750000469901,0.0166666676506515,0.215330004692078,0.22693644464016,-0.0549778714776039
0,1.00277780025972,-0.118055554801345,0.0180555564949145,0.0250454749912024,0.0800233483314514,0.0226020142436027
0,1.00277780025972,-0.118055554801345,0.0180555564949145,-0.0229074470698834,-0.00946841109544039,0.0143553335219622
0,1.01666671909226,-0.101388894748172,0.03194444645704,0.00733038317412138,0.0180205255746841,-0.00824668072164059
0,1.01944450285877,-0.102777780553444,0.030555557612777,0.0183259565383196,-0.0647517144680023,0.000610865245107561
0,1.02083339474202,-0.0944444474878658,0.00277777787846293,-0.0287106670439243,0.0134390350431204,0.0485637858510017
0,1.03888889197661,-0.101388894748172,-0.00416666691266287,-0.0678060427308083,0.0183259565383196,0.0500909499824047
0,1.02777785415829,-0.0972222251763917,0.0236111118719664,-0.0470366254448891,0.0580321997404099,0.0180205255746841
0,1.00833336779274,-0.0916666697993398,0.027777779924251,-0.00977384392172098,0.120035022497177,0.0455094613134861
0,0.993055557076942,-0.0986111170596459,0.0416666683668809,0.0494800843298435,0.0549778714776039,0.0769690200686455
0,1.00972225967599,-0.130555557438704,0.0583333375370279,0.130725160241127,0.0549778714776039,0.0400116741657257
0,1.0305556379248,-0.118055554801345,0.033333335301303,0.107512280344963,0.0897971913218498,0.0045814891345799
0,1.01388893532575,-0.130555557438704,0.0541666679652478,0.0977384373545647,-0.116675265133381,-0.03176499158144
0,1.01944450285877,-0.115277783190802,0.055555559848502,0.1795943826437,-0.22754730284214,-0.0400116741657257
0,1.05555559457566,-0.101388894748172,0.00972222266958873,0.16951510310173,-0.0931569486856461,-0.0742201283574104
0,0.991666665193688,-0.0986111170596459,0.00972222266958873,0.0229074470698834,-0.164322748780251,-0.125227376818657
0,1.00833336779274,-0.120833338567854,-0.00138888893923146,-0.00794124789535999,-0.118507854640484,-0.212275668978691
0,1.03888889197661,-0.0972222251763917,-0.027777779924251,-0.0919352173805237,0.128892570734024,-0.204639852046967
0,1.04722224327614,-0.0777777813567098,0.0208333341834404,-0.0766635909676552,0.207999616861343,-0.0931569486856461
0,1.02222228662528,-0.0736111117849297,0.0152777788063885,-0.0507018156349659,0.0574213340878487,-0.0720821022987366
0,1.00972225967599,-0.0847222225390337,0.0250000007162294,-0.00977384392172098,0.139277279376984,-0.0928515195846558
0,1.00277780025972,-0.0875000002275597,0.0250000007162294,-0.0192422550171614,0.141415297985077,-0.0696386396884918
0,0.993055557076942,-0.0875000002275597,0.026388891079988,-0.0387899428606033,0.0271835029125214,-0.0198531206697226
0,1.06527783775844,-0.0819444448505077,-0.00416666691266287,-0.0207694191485643,-0.015577063895762,0.00122173049021512
0,1.10277782135859,-0.0722222259796579,-0.00416666691266287,0.194560587406159,0.133779495954514,0.0736092627048492
0,1.03194452980806,-0.106944444047242,0.0583333375370279,-0.0164933614432812,-0.239459171891212,0.0656680166721344
0,1.00833336779274,-0.100000002864918,0.029166668768514,-0.211053937673569,-0.569326400756836,0.0222965814173222
0,1.00555558402623,-0.0722222259796579,0.0347222241455659,-0.160657554864883,-0.767552196979523,0.0210748501121998
0,1.02916674604155,-0.0819444448505077,0.0125000003581147,-0.0824668109416962,-0.689055979251862,-0.0134390350431204
0,1.02500007039179,-0.0930555616825939,-0.0125000003581147,-0.101709060370922,-0.679893016815186,-0.0192422550171614
0,1.0513889189259,-0.120833338567854,-0.0430555572111439,-0.0678060427308083,-0.427911102771759,0.0204639863222837
0,1.04444445950963,-0.10972222781375,-0.0375000018340919,-0.0699440687894821,-0.217162594199181,-0.0198531206697226
0,1.01944450285877,-0.104166672436698,-0.0388888906783549,0.0580321997404099,-0.0412334054708481,-0.00122173049021512
0,1.01805561097552,-0.101388894748172,-0.0347222241455659,0.0784961804747581,-0.171347707509995,0.00519235478714108
0,1.00972225967599,-0.0847222225390337,-0.026388891079988,0.0671951770782471,-0.142637029290199,0.0253509078174829
0,1.05000002704265,-0.0930555616825939,-0.0541666679652478,0.0161879286170006,-0.102625362575054,0.0143553335219622
0,1.05000002704265,-0.0930555616825939,-0.0541666679652478,-0.00885754637420177,-0.0540615729987621,-0.0561996027827263
0,0.986111194908388,-0.0541666679652478,-0.0472222237439329,0.0928515195846558,-0.182648703455925,0.0106901414692402
0,0.968055600426084,-0.0486111125881959,-0.033333335301303,0.0968221426010132,-0.316428184509277,0.0827722400426865
0,0.968055600426084,-0.0486111125881959,-0.033333335301303,0.0320704244077206,-0.408974289894104,0.0607810914516449
0,1.04583335139288,-0.111111119697004,-0.0652777787193518,0.0403171069920063,-0.290160983800888,-0.0378736443817616
0,1.02361117850853,-0.108333335930496,-0.0680555564078778,-0.0372627787292004,-0.364991992712021,-0.0705549344420433
0,1.03194452980806,-0.101388894748172,-0.0625000010308258,-0.0995710343122482,-0.351858377456665,-0.021685715764761
0,1.0125000434425,-0.0833333367337618,-0.0958333393711199,-0.180510684847832,-0.225714713335037,0.0351247526705265
0,1.03888889197661,-0.0833333367337618,-0.0888888921108138,-0.0940732508897781,0.114231802523136,0.0100792767480016
0,1.03888889197661,-0.0875000002275597,-0.104166672436698,-0.0403171069920063,0.304210901260376,-0.0183259565383196
0,1.0902777944093,-0.0888888921108138,-0.10972222781375,-0.070249505341053,0.485332429409027,-0.0629191175103188
0,1.04027778385987,-0.0750000036681839,-0.0875000002275597,-0.0620028227567673,0.01191187184304,-0.0671951770782471
0,1.0361111082101,-0.0958333393711199,-0.03194444645704,-0.0345138870179653,0.358577907085419,-0.124616511166096
0,1.0513889189259,-0.111111119697004,-0.0805555590452358,-0.10567969083786,0.582459986209869,-0.163406446576118
0,1.01527782720901,-0.101388894748172,-0.0736111117849297,-0.011606439948082,0.558636248111725,-0.0733038261532784
0,0.983333411141879,-0.0777777813567098,0.0152777788063885,0.027488935738802,0.0879645943641663,0.017409659922123
0,0.986111194908388,-0.0583333375370279,-0.0152777788063885,-0.0259617734700441,0.0516181141138077,0.0943786799907684
0,1.01388893532575,-0.0680555564078778,-0.0152777788063885,-0.0448985956609249,0.109955742955208,0.0415388382971287
0,1.02222228662528,-0.0847222225390337,-0.0416666683668809,-0.0256563406437635,0.395229816436768,-0.00183259579353034
0,1.02361117850853,-0.0930555616825939,-0.0430555572111439,-0.0305432621389627,0.631634652614594,-0.0280998013913631
0,1.0305556379248,-0.0972222251763917,-0.0222222230277034,0.0311541277915239,0.56016343832016,-0.0580321997404099
0,1.00277780025972,-0.0888888921108138,0.00416666691266287,0.0675006061792374,0.379347324371338,0.0458148941397667
0,0.898611103511094,-0.0847222225390337,0.0541666679652478,0.106901414692402,0.167987942695618,0.119424156844616
0,1.00555558402623,-0.0819444448505077,0.0194444453391775,0.0314595587551594,-0.22235494852066,0.0681114718317986
0,1.03194452980806,-0.0902777839940679,-0.0194444453391775,0.102625362575054,-0.403171062469482,0.0632245540618896
0,1.06666672964169,-0.0847222225390337,-0.033333335301303,0.0629191175103188,-0.521068036556244,-0.0109955742955208
0,1.05000002704265,-0.0750000036681839,-0.0416666683668809,-0.00549778714776039,-0.452956587076187,0.0626136884093285
0,1.0513889189259,-0.0875000002275597,-0.0625000010308258,-0.0678060427308083,-0.310930401086807,0.0980438739061356
0,1.06805562152495,-0.0875000002275597,-0.101388894748172,-0.0177150927484035,0.156381502747536,0.128892570734024
0,1.02916674604155,-0.0625000010308258,-0.0597222233422998,0.223271250724793,0.32253685593605,0.211053937673569
0,1.01666671909226,-0.0930555616825939,-0.027777779924251,0.0827722400426865,0.0482583530247212,0.13744467496872
0,0.941666654644256,-0.120833338567854,0.0430555572111439,-0.273973047733307,-0.981660425662994,-0.0723875313997269
0,1.0333333244436,-0.10972222781375,-0.0125000003581147,-0.273973047733307,-1.03541660308838,-0.0442877300083637
0,1.07500008094122,-0.108333335930496,-0.0569444456537738,-0.186924770474434,-0.665537655353546,-0.000610865245107561
0,1.03888889197661,-0.0847222225390337,-0.131944449321958,-0.0693332031369209,0.117286130785942,0.117591559886932
0,1.06527783775844,-0.0763888894734557,-0.170833336961321,0.0100792767480016,0.93095862865448,0.0684169083833694
0,1.09444447005906,-0.100000002864918,-0.106944444047242,-0.146302223205566,0.878118813037872,-0.0400116741657257
0,0.954166681593543,-0.111111119697004,0.0680555564078778,-0.172263994812965,-0.0693332031369209,-0.0235183127224445
0,0.986111194908388,-0.104166672436698,0.0402777795226179,-0.0968221426010132,-0.416610091924667,0.00733038317412138
0,1.03472221632685,-0.123611110178398,-0.00416666691266287,-0.00397062394768,-0.168293371796608,-0.00671951752156019
0,1.05555559457566,-0.0819444448505077,-0.0958333393711199,-0.0592539273202419,-0.0800233483314514,0.00916297826915979
0,1.06111116210868,-0.118055554801345,-0.0777777813567098,0.0574213340878487,0.544586360454559,0.0149661982432008
0,1.04861113515939,-0.118055554801345,-0.134722233088466,-0.037568211555481,0.955393254756927,0.102014496922493
0,1.13333334554246,-0.10972222781375,0.0125000003581147,-0.103541657328606,0.715017795562744,0.0503963828086853
0,1.03194452980806,-0.105555564319952,0.0402777795226179,-0.00641408516094089,0.419969856739044,0.0241291765123606
0,1.01944450285877,-0.108333335930496,0.033333335301303,-0.0568104684352875,0.115453533828259,0.00366519158706069
0,1.02222228662528,-0.102777780553444,-0.00138888893923146,-0.0833831056952477,0.253814518451691,0.0384845100343227
0,1.0125000434425,-0.102777780553444,-0.0125000003581147,-0.168293371796608,0.263588339090347,0.0177150927484035
0,1.00277780025972,-0.118055554801345,0.0472222237439329,-0.0455094613134861,0.00152716308366507,0.0109955742955208
0,1.02083339474202,-0.1194444466846,0.0388888906783549,0.0708603709936142,-0.170431405305862,0.00122173049021512
0,1.04166667574312,-0.111111119697004,0.0388888906783549,0.110261179506779,-0.120951317250729,-0.0241291765123606
0,0.95000000594378,-0.120833338567854,-0.0861111144222878,0.0879645943641663,-0.076052725315094,0.0461203269660473
0,1.01666671909226,-0.112499999424294,-0.0388888906783549,0.133474051952362,-0.133168622851372,0.0748309940099716
0,1.01388893532575,-0.10972222781375,-0.0194444453391775,0.257785141468048,-0.198531210422516,0.139888137578964
0,1.02777785415829,-0.101388894748172,-0.0250000007162294,0.145691365003586,-0.00610865233466029,0.0891863256692886
0,1.00416669214298,-0.106944444047242,-0.0180555564949145,0.225409269332886,0.0525344125926495,0.0946841165423393
0,0.98888888142718,-0.125000002061652,-0.0180555564949145,-0.000305432622553781,-0.190895393490791,0.0598647929728031
0,0.99583334084345,-0.13750000469901,0.00277777787846293,0.0574213340878487,-0.283441483974457,0.0858265683054924
0,1.0125000434425,-0.126388893944906,0.0152777788063885,0.157603234052658,-0.36987891793251,0.11117747426033
0,1.05694448645892,-0.108333335930496,-0.0416666683668809,0.207388743758202,-0.272445887327194,0.163406446576118
0,1.0125000434425,-0.10972222781375,-0.0416666683668809,0.242513507604599,-0.288328409194946,0.16401731967926
0,1.00694447590948,-0.130555557438704,-0.03194444645704,0.218995183706284,-0.321315109729767,0.0192422550171614
0,1.00833336779274,-0.12777778582816,-0.0347222241455659,0.112704634666443,-0.386372268199921,-0.0280998013913631
0,1.03750000009336,-0.130555557438704,-0.0680555564078778,0.0302378293126821,-0.448680520057678,0.0784961804747581
0,1.07083340529146,-0.125000002061652,-0.0847222225390337,-0.0525344125926495,-0.33841934800148,0.0390953756868839
0,1.05694448645892,-0.12916666555545,-0.0944444474878658,-0.0598647929728031,-0.198225766420364,-0.0387899428606033
0,1.05694448645892,-0.12916666555545,-0.0944444474878658,-0.223576679825783,-0.0668897479772568,-0.102014496922493
0,1.05555559457566,-0.10972222781375,-0.0777777813567098,-0.231517925858498,0.156992360949516,-0.142942473292351
0,1.05555559457566,-0.134722233088466,-0.104166672436698,-0.405003666877747,0.397673279047012,-0.193033412098885
0,1.10138892947533,-0.120833338567854,-0.0916666697993398,-0.561385154724121,0.611476123332977,-0.277638256549835
0,1.08611111875954,-0.122222230451108,-0.0583333375370279,-0.474031418561935,0.740368664264679,-0.298407673835754
0,1.0305556379248,-0.101388894748172,0.00833333382532574,-0.0839939713478088,0.695775508880615,-0.127976268529892
0,1.02777785415829,-0.0583333375370279,0.0416666683668809,0.310930401086807,-0.0986547395586967,-0.0287106670439243
0,1.02777785415829,-0.0583333375370279,0.0416666683668809,0.45998153090477,-0.444404453039169,0.0659734457731247
0,0.993055557076942,-0.134722233088466,-0.154166670830166,-0.32742378115654,0.466090172529221,-0.0335975885391235
0,1.06805562152495,-0.181944447715425,-0.0694444482911319,0.400116741657257,1.70828461647034,0.180510684847832
0,0.926388941176177,-0.148611115453114,0.10972222781375,-0.0363464802503586,0.339946508407593,0.0247400421649218
0,0.969444492309338,-0.140277788465518,0.0763888894734557,-0.0595593601465225,-0.186619326472282,-0.0128281703218818
0,1.03194452980806,-0.158333334323963,0.0388888906783549,0.19058994948864,0.0180205255746841,-0.00397062394768
0,1.02916674604155,-0.116666675074056,-0.0125000003581147,-0.201585531234741,0.0149661982432008,-0.017409659922123
0,1.02916674604155,-0.113888891307548,-0.00555555575692586,0.0980438739061356,0.0794124826788902,0.0323758572340012
0,1.0305556379248,-0.111111119697004,-0.00833333382532574,-0.0113010071218014,0.130419731140137,-0.00610865233466029
0,1.02361117850853,-0.0791666671619817,0.0152777788063885,-0.027488935738802,-0.0320704244077206,0.011606439948082
0,1.02361117850853,-0.10972222781375,-0.00555555575692586,0.0610865242779255,-0.0250454749912024,0.0314595587551594
0,1.02222228662528,-0.111111119697004,-0.0180555564949145,0.0400116741657257,0.0772744566202164,0.01588249579072
0,1.01805561097552,-0.113888891307548,-0.00277777787846293,0.0326812900602817,0.037568211555481,0.0149661982432008
0,1.02500007039179,-0.112499999424294,0.0138888899621255,0.0620028227567673,0.0262672062963247,0.0183259565383196
0,1.01944450285877,-0.112499999424294,-0.0138888899621255,0.0516181141138077,-0.254425376653671,0.0561996027827263
0,1.03194452980806,-0.113888891307548,-0.0222222230277034,0.0314595587551594,-0.171042263507843,0.0198531206697226
0,0.986111194908388,-0.108333335930496,0.0569444456537738,0.0314595587551594,-0.644768238067627,-0.0113010071218014
0,0.945833330294018,-0.0819444448505077,0.0666666706026059,0.00427605677396059,-0.6878342628479,0.00610865233466029
0,1.00277780025972,-0.0916666697993398,0.0194444453391775,0.109039448201656,-0.598342478275299,0.0815505087375641
0,1.01527782720901,-0.126388893944906,-0.14583334384257,0.0800233483314514,-0.29107728600502,0.0864374339580536
0,1.02361117850853,-0.112499999424294,-0.0833333367337618,-0.0729983970522881,-0.0794124826788902,0.0561996027827263
0,1.0361111082101,-0.113888891307548,-0.0930555616825939,-0.197309479117393,0.00733038317412138,-0.00152716308366507
0,1.08888890252604,-0.118055554801345,-0.116666675074056,-0.149356558918953,0.706771075725555,-0.0360410511493683
0,1.02916674604155,-0.113888891307548,-0.030555557612777,-0.128587126731873,0.572991609573364,-0.0204639863222837
0,0.99583334084345,-0.111111119697004,0.163888889701015,0.0891863256692886,0.214413702487946,-0.0241291765123606
0,0.99583334084345,-0.111111119697004,0.0111111115138517,-0.0839939713478088,0.0696386396884918,0.00427605677396059
0,0.998611124609959,-0.118055554801345,-0.108333335930496,-0.481056392192841,0.0824668109416962,0.0186313893646002
0,1.04166667574312,-0.111111119697004,-0.0347222241455659,-0.530536472797394,0.151494577527046,0.0232128798961639
0,1.01666671909226,-0.111111119697004,0.0347222241455659,-0.313068449497223,0.10048733651638,0.0552833043038845
0,1.0125000434425,-0.126388893944906,0.0416666683668809,-0.123089343309402,-0.135001212358475,0.0280998013913631
0,0.975000059842355,-0.141666668192807,0.00972222266958873,0.0146607663482428,-0.344527989625931,0.0522289797663689
0,1.0513889189259,-0.13750000469901,-0.026388891079988,0.0448985956609249,-0.250760197639465,0.0421497002243996
0,1.04166667574312,-0.140277788465518,0.0208333341834404,0.314595609903336,-0.0507018156349659,0.0351247526705265
0,0.98888888142718,-0.140277788465518,-0.0944444474878658,0.387593984603882,-0.257785141468048,0.0763581544160843
0,1.02916674604155,-0.126388893944906,-0.108333335930496,0.128892570734024,-0.0430659987032413,0.0198531206697226
0,1.04861113515939,-0.12777778582816,-0.0736111117849297,-0.0565050356090069,0.078801617026329,-0.011606439948082
0,1.0125000434425,-0.125000002061652,-0.0250000007162294,-0.0613919571042061,0.037568211555481,0.00183259579353034
0,1.0125000434425,-0.125000002061652,-0.0250000007162294,-0.0794124826788902,-0.148440256714821,0.0207694191485643
0,1.02361117850853,-0.14583334384257,-0.0125000003581147,-0.0540615729987621,-0.150883719325066,0.0299323964864016
0,1.04305556762637,-0.12777778582816,-0.0500000014324589,-0.138666406273842,-0.101098194718361,0.0253509078174829
0,1.04305556762637,-0.12777778582816,-0.0500000014324589,-0.299018532037735,0.103236228227615,-0.0519235469400883
0,1.04305556762637,-0.136111112815755,-0.0416666683668809,-0.0714712366461754,0.159130394458771,-0.0610865242779255
0,1.03194452980806,-0.125000002061652,-0.0680555564078778,-0.333837866783142,-0.000916297896765172,-0.0925460830330849
0,1.03194452980806,-0.125000002061652,-0.0680555564078778,-0.262977480888367,-0.15851953625679,-0.00549778714776039
0,1.01527782720901,-0.113888891307548,-0.0680555564078778,0.00427605677396059,0.00519235478714108,0.0302378293126821
0,0.979166735492117,-0.136111112815755,-0.00138888893923146,0.105374254286289,-0.0797179117798805,0.0442877300083637
0,0.979166735492117,-0.136111112815755,-0.00138888893923146,0.165544480085373,-0.104763388633728,0.00794124789535999
0,1.01805561097552,-0.120833338567854,-0.0416666683668809,0.0678060427308083,-0.0357356183230877,0.011606439948082
0,1.02222228662528,-0.116666675074056,-0.0500000014324589,0.0207694191485643,-0.0357356183230877,-0.0106901414692402
0,1.0361111082101,-0.120833338567854,-0.0361111129898289,0.0439822971820831,0.0717766657471657,-0.0293215326964855
0,1.03750000009336,-0.12777778582816,-0.03194444645704,0.0549778714776039,0.103236228227615,-0.00397062394768
0,1.02916674604155,-0.118055554801345,-0.033333335301303,0.101403631269932,0.294131606817245,0.0201585534960032
0,1.05555559457566,-0.12916666555545,-0.0361111129898289,0.0494800843298435,0.103541657328606,0.00397062394768
0,1.04583335139288,-0.154166670830166,-0.0194444453391775,0.110566608607769,0.156992360949516,0.0287106670439243
0,0.969444492309338,-0.0972222251763917,0.0125000003581147,0.0638354197144508,-0.160657554864883,0.0335975885391235
0,1.02500007039179,-0.104166672436698,-0.027777779924251,0.0302378293126821,0.0027488935738802,0.0210748501121998
0,1.0361111082101,-0.125000002061652,-0.0388888906783549,0.017409659922123,-0.0488692186772823,-0.00305432616733015
0,1.0361111082101,-0.1194444466846,-0.0125000003581147,-0.0021380283869803,-0.135612085461616,-0.0189368221908808
0,1.02916674604155,-0.125000002061652,-0.0375000018340919,-0.0485637858510017,-0.0113010071218014,-0.0262672062963247
0,1.03888889197661,-0.125000002061652,-0.0486111125881959,0.00122173049021512,0.100181899964809,-0.0201585534960032
0,1.02916674604155,-0.12777778582816,-0.030555557612777,0.180510684847832,0.118507854640484,0.017409659922123
0,1.02638896227504,-0.12916666555545,-0.0166666676506515,-0.0510072484612465,-0.208305045962334,-0.0650571510195732
0,1.02361117850853,-0.1194444466846,-0.0472222237439329,-0.124616511166096,-0.00397062394768,-0.0812450796365738
0,1.02638896227504,-0.113888891307548,-0.029166668768514,-0.134084925055504,-0.139582708477974,-0.0864374339580536
0,1.0125000434425,-0.126388893944906,-0.00972222266958873,-0.0244346093386412,-0.090408056974411,-0.00152716308366507
0,1.01111115155925,-0.136111112815755,-0.0222222230277034,0.0409279726445675,-0.0983493030071259,0.0229074470698834
0,1.02500007039179,-0.120833338567854,-0.0402777795226179,-0.0198531206697226,-0.0354301854968071,-0.0177150927484035
0,1.03888889197661,-0.118055554801345,-0.0361111129898289,-0.0122173046693206,-0.0448985956609249,-0.0320704244077206
0,1.02777785415829,-0.112499999424294,-0.0375000018340919,-0.0320704244077206,-0.0384845100343227,-0.0558941699564457
0,1.00694447590948,-0.115277783190802,-0.0388888906783549,-0.0335975885391235,-0.15851953625679,-0.0684169083833694
0,0.98888888142718,-0.126388893944906,-0.00694444498106275,0.140499010682106,-0.290160983800888,-0.00305432616733015
0,1.01527782720901,-0.108333335930496,-0.026388891079988,0.130114302039146,-0.206472456455231,0.01588249579072
0,1.02916674604155,-0.105555564319952,-0.0805555590452358,0.0033597587607801,-0.124616511166096,-0.0183259565383196
0,1.03194452980806,-0.111111119697004,-0.0833333367337618,-0.140193566679955,-0.0464257597923279,-0.0345138870179653
0,1.0305556379248,-0.116666675074056,-0.0722222259796579,-0.226020142436027,-0.0436768643558025,-0.0455094613134861
0,1.0125000434425,-0.113888891307548,-0.0638888929140799,-0.257479697465897,-0.0534507073462009,-0.0372627787292004
0,1.01944450285877,-0.108333335930496,-0.0708333340964038,-0.231823354959488,0.0543670058250427,-0.00397062394768
0,1.02500007039179,-0.116666675074056,-0.0513888902767219,-0.122173048555851,0.162490159273148,0.0134390350431204
0,1.02361117850853,-0.120833338567854,-0.0486111125881959,0.0827722400426865,0.329867243766785,0.0607810914516449
0,1.04583335139288,-0.134722233088466,-0.029166668768514,0.38576140999794,0.531147301197052,0.171347707509995
0,1.00833336779274,-0.161111118090472,0.00277777787846293,0.452956587076187,0.384234249591827,0.0815505087375641
0,0.998611124609959,-0.151388899219622,0.00277777787846293,0.342389971017838,0.0543670058250427,0.0027488935738802
0,1.0305556379248,-0.140277788465518,-0.0486111125881959,0.313373863697052,0.181732416152954,0.0436768643558025
5,1.0305556379248,-0.122222230451108,-0.0583333375370279,0.0809396430850029,0.113620936870575,0.02382374368608
5,1.01388893532575,-0.118055554801345,-0.055555559848502,-0.217468023300171,0.382096201181412,-0.0888808965682983
5,1.18194446420864,-0.12777778582816,-0.104166672436698,0.210443079471588,0.521373510360718,0.0192422550171614
5,1.00000001649321,-0.140277788465518,-0.104166672436698,-0.0839939713478088,0.0653625801205635,-0.0241291765123606
5,0.955555573476797,-0.130555557438704,0.0402777795226179,-0.101709060370922,-0.0751364231109619,-0.0244346093386412
5,1.02500007039179,-0.138888896582264,0.00277777787846293,0.021685715764761,0.0342084541916847,-0.00122173049021512
5,1.02638896227504,-0.118055554801345,-0.0236111118719664,-0.0311541277915239,0.0265726372599602,-0.0167987942695618
5,1.03750000009336,-0.115277783190802,-0.0152777788063885,-0.0033597587607801,0.0433714315295219,-0.0384845100343227
5,1.02222228662528,-0.144444451959316,-0.0152777788063885,-0.0348193198442459,0.0171042270958424,-0.0342084541916847
5,1.02500007039179,-0.13750000469901,-0.0250000007162294,0.0592539273202419,0.0873537287116051,-0.0186313893646002
5,1.00972225967599,-0.1194444466846,0.00555555575692586,0.140499010682106,-0.0268780700862408,0.0033597587607801
5,1.01527782720901,-0.108333335930496,-0.00833333382532574,0.0983493030071259,-0.164628177881241,-0.00122173049021512
5,1.02222228662528,-0.115277783190802,-0.0416666683668809,-0.0705549344420433,-0.193949714303017,-0.0210748501121998
5,1.0513889189259,-0.134722233088466,-0.0375000018340919,-0.158824965357781,-0.000916297896765172,-0.0931569486856461
5,1.03888889197661,-0.13750000469901,0.00555555575692586,-0.0968221426010132,0.0198531206697226,-0.0836885422468185
5,0.986111194908388,-0.126388893944906,0.0388888906783549,0.0219911485910416,-0.134084925055504,-0.0384845100343227
5,0.979166735492117,-0.112499999424294,0.0180555564949145,0.146913096308708,-0.393397212028503,-0.00916297826915979
5,1.02361117850853,-0.0944444474878658,-0.0708333340964038,0.0516181141138077,-0.259312301874161,0.00733038317412138
5,1.05555559457566,-0.104166672436698,-0.0638888929140799,0.0409279726445675,-0.145385921001434,0.0167987942695618
5,1.03194452980806,-0.108333335930496,-0.0194444453391775,-0.0638354197144508,-0.19058994948864,-0.00366519158706069
5,1.00694447590948,-0.112499999424294,-0.0138888899621255,-0.165849909186363,-0.326202034950256,-0.04764748737216
5,1.00555558402623,-0.102777780553444,-0.0416666683668809,-0.209526777267456,-0.379652738571167,-0.0772744566202164
5,1.03194452980806,-0.106944444047242,-0.0722222259796579,-0.193949714303017,-0.262672066688538,-0.0448985956609249
5,1.03194452980806,-0.106944444047242,-0.055555559848502,-0.207694187760353,-0.0778853222727776,-0.0302378293126821
5,1.02222228662528,-0.108333335930496,-0.0472222237439329,-0.145080491900444,-0.0467311926186085,0.00855211354792118
5,1.01666671909226,-0.102777780553444,-0.055555559848502,-0.0439822971820831,0.0448985956609249,0.0250454749912024
5,1.02222228662528,-0.0986111170596459,-0.0638888929140799,-0.0891863256692886,0.158824965357781,0.0122173046693206
5,1.0361111082101,-0.115277783190802,-0.055555559848502,-0.0534507073462009,0.338113903999329,0.0134390350431204
5,1.0333333244436,-0.120833338567854,-0.0375000018340919,0.0974330082535744,0.469449937343597,0.0390953756868839
5,1.02638896227504,-0.118055554801345,-0.00833333382532574,0.145996794104576,0.564439475536346,0.0678060427308083
5,1.02361117850853,-0.118055554801345,0.00277777787846293,0.164628177881241,0.478307485580444,0.0436768643558025
5,1.02500007039179,-0.111111119697004,-0.00555555575692586,0.148134827613831,0.374154955148697,0.0247400421649218
5,1.0125000434425,-0.125000002061652,-0.00277777787846293,0.155465200543404,0.256563395261765,0.0232128798961639
5,0.979166735492117,-0.122222230451108,-0.00416666691266287,0.0647517144680023,-0.078801617026329,-0.00794124789535999
5,1.01527782720901,-0.131944449321958,-0.00138888893923146,0.0873537287116051,-0.00641408516094089,0.00946841109544039
5,1.01527782720901,-0.131944449321958,-0.00138888893923146,0.081855945289135,-0.0448985956609249,0.0113010071218014
5,1.02222228662528,-0.125000002061652,-0.00555555575692586,0.0473420582711697,-0.0265726372599602,0.00977384392172098
5,1.02916674604155,-0.125000002061652,-0.03194444645704,0.00519235478714108,0.0803287774324417,0.0241291765123606
5,1.02916674604155,-0.125000002061652,-0.03194444645704,0.114842668175697,-0.119424156844616,0.0226020142436027
5,1.03888889197661,-0.120833338567854,-0.0166666676506515,-0.0262672062963247,-0.0229074470698834,-0.0180205255746841
5,1.02222228662528,-0.12916666555545,0.00833333382532574,0.0827722400426865,-0.00733038317412138,0.0244346093386412
5,1.02222228662528,-0.12916666555545,0.00833333382532574,0.0537561401724815,-0.090408056974411,-0.0106901414692402
5,1.02361117850853,-0.12777778582816,0.00833333382532574,-0.0125227374956012,-0.121867619454861,-0.0253509078174829
5,1.02361117850853,-0.113888891307548,-0.0138888899621255,0.0339030213654041,-0.12156218290329,-0.00305432616733015
5,1.02361117850853,-0.113888891307548,-0.0138888899621255,0.0271835029125214,-0.156992360949516,0.0152716310694814
5,1.01805561097552,-0.104166672436698,-0.00555555575692586,0.03176499158144,-0.0925460830330849,0.0345138870179653
5,1.04722224327614,-0.126388893944906,-0.0138888899621255,0.0433714315295219,0.0284052342176437,0.0284052342176437
5,1.04722224327614,-0.126388893944906,-0.0138888899621255,-0.00580321997404099,0.214719131588936,0.0100792767480016
5,1.03750000009336,-0.12777778582816,-0.0250000007162294,0.0125227374956012,0.186008468270302,-0.00885754637420177
5,1.0125000434425,-0.126388893944906,-0.0250000007162294,0.0794124826788902,0.0992656052112579,0.0033597587607801
5,1.06805562152495,-0.144444451959316,-0.0194444453391775,0.316428184509277,0.233961388468742,0.0284052342176437
5,1.03472221632685,-0.141666668192807,-0.0458333348996699,-0.0320704244077206,0.0339030213654041,-0.019547687843442
5,1.00000001649321,-0.122222230451108,0.0138888899621255,0.00580321997404099,-0.0467311926186085,0.00549778714776039
5,1.02777785415829,-0.120833338567854,-0.0222222230277034,0.0177150927484035,0.0635299831628799,0.00580321997404099
5,1.01944450285877,-0.12777778582816,-0.00277777787846293,0.0177150927484035,0.0177150927484035,-0.00488692196086049
5,1.02083339474202,-0.130555557438704,0.00972222266958873,0.0171042270958424,0.0219911485910416,-0.00549778714776039
5,1.02500007039179,-0.125000002061652,0.00833333382532574,0.0284052342176437,0.000305432622553781,-0.00519235478714108
5,1.0305556379248,-0.12777778582816,-0.00277777787846293,0.0351247526705265,0.0397062413394451,-0.0210748501121998
5,1.02361117850853,-0.12777778582816,-0.00972222266958873,0.0531452745199203,0.0345138870179653,-0.0125227374956012
5,1.02361117850853,-0.120833338567854,-0.00972222266958873,0.0519235469400883,0.0256563406437635,-0.00794124789535999
5,1.02500007039179,-0.123611110178398,-0.00694444498106275,0.0522289797663689,0.0204639863222837,-0.0143553335219622
5,1.02500007039179,-0.125000002061652,-0.00277777787846293,0.0558941699564457,0.0222965814173222,-0.0027488935738802
5,1.02222228662528,-0.122222230451108,-0.00138888893923146,0.0699440687894821,0.0262672062963247,-0.00397062394768
5,1.02222228662528,-0.12777778582816,0.00277777787846293,0.0656680166721344,0.0302378293126821,-0.00488692196086049
5,1.02638896227504,-0.12777778582816,-0.00555555575692586,0.0720821022987366,0.0277943685650826,-0.00244346098043024
5,1.02916674604155,-0.12916666555545,-0.00555555575692586,0.0739146918058395,0.0351247526705265,-0.00977384392172098
5,1.01944450285877,-0.118055554801345,-0.00555555575692586,0.0739146918058395,0.0192422550171614,-0.000305432622553781
5,1.01805561097552,-0.122222230451108,0.00138888893923146,0.0867428630590439,0.0021380283869803,0.00305432616733015
5,1.02083339474202,-0.125000002061652,0.00138888893923146,0.08460483700037,0.00152716308366507,0.00610865233466029
5,1.02361117850853,-0.12916666555545,-0.00277777787846293,0.076052725315094,0.00733038317412138,0.00366519158706069
5,1.01666671909226,-0.120833338567854,-0.00555555575692586,0.0864374339580536,-0.01588249579072,0.00183259579353034
5,1.02083339474202,-0.118055554801345,-0.0152777788063885,0.0708603709936142,-0.00702495034784079,0.015577063895762
5,1.02361117850853,-0.116666675074056,-0.00277777787846293,0.0681114718317986,-0.00305432616733015,0.02382374368608
5,1.01944450285877,-0.116666675074056,-0.00277777787846293,0.0662788823246956,-0.0161879286170006,0.0164933614432812
5,1.01944450285877,-0.1194444466846,0.00138888893923146,0.0662788823246956,-0.0311541277915239,0.0146607663482428
5,1.02500007039179,-0.116666675074056,0.00138888893923146,0.0601702257990837,-0.0253509078174829,0.0100792767480016
5,1.01944450285877,-0.113888891307548,0.00972222266958873,0.0638354197144508,-0.0302378293126821,0.0128281703218818
5,1.02083339474202,-0.113888891307548,0.00555555575692586,0.0503963828086853,-0.0259617734700441,0.0100792767480016
5,1.02500007039179,-0.111111119697004,0.00277777787846293,0.0479529201984406,-0.0357356183230877,0.0106901414692402
5,1.02500007039179,-0.104166672436698,-0.00277777787846293,0.0445931628346443,-0.0183259565383196,0.013744467869401
5,1.02638896227504,-0.115277783190802,-0.00833333382532574,0.0323758572340012,0.00549778714776039,0.0167987942695618
5,1.02500007039179,-0.115277783190802,-0.00972222266958873,0.0265726372599602,0.00794124789535999,0.00397062394768
5,1.02361117850853,-0.115277783190802,-0.00972222266958873,0.0100792767480016,0.0100792767480016,0.00519235478714108
5,1.02500007039179,-0.120833338567854,-0.00138888893923146,-0.000610865245107561,0.0161879286170006,0.0027488935738802
5,1.02777785415829,-0.125000002061652,-0.00138888893923146,-0.0140499006956816,0.0354301854968071,-0.00855211354792118
5,1.02777785415829,-0.118055554801345,0.00416666691266287,-0.021685715764761,0.0452040284872055,-0.0189368221908808
5,1.02500007039179,-0.113888891307548,0.00138888893923146,-0.0268780700862408,0.0430659987032413,-0.0213802829384804
5,1.02361117850853,-0.111111119697004,0.00138888893923146,-0.0235183127224445,0.0482583530247212,-0.0152716310694814
5,1.02500007039179,-0.108333335930496,0.00833333382532574,-0.0314595587551594,0.0653625801205635,-0.0192422550171614
5,1.02500007039179,-0.120833338567854,0.00138888893923146,-0.0445931628346443,0.0723875313997269,-0.0247400421649218
5,1.01666671909226,-0.112499999424294,0.00138888893923146,-0.0424551330506802,0.0708603709936142,-0.0387899428606033
5,1.02500007039179,-0.108333335930496,0.00833333382532574,-0.0519235469400883,0.064446285367012,-0.0439822971820831
5,1.02222228662528,-0.113888891307548,0.00833333382532574,-0.0549778714776039,0.0781907513737679,-0.0381790772080422
5,1.02222228662528,-0.116666675074056,0.0111111115138517,-0.0659734457731247,0.0800233483314514,-0.0265726372599602
5,1.01944450285877,-0.116666675074056,0.026388891079988,-0.0766635909676552,0.0812450796365738,-0.0455094613134861
5,1.01944450285877,-0.120833338567854,0.0361111129898289,-0.0751364231109619,0.058643065392971,-0.0461203269660473
5,1.01944450285877,-0.113888891307548,0.03194444645704,-0.0809396430850029,0.0430659987032413,-0.0342084541916847
5,1.0305556379248,-0.112499999424294,0.0361111129898289,-0.0913243517279625,0.0427605658769607,-0.0256563406437635
5,1.0305556379248,-0.108333335930496,0.0388888906783549,-0.10048733651638,0.0390953756868839,-0.0461203269660473
5,1.02222228662528,-0.1194444466846,0.0416666683668809,-0.106901414692402,0.037568211555481,-0.0510072484612465
5,1.01805561097552,-0.120833338567854,0.0486111125881959,-0.122173048555851,0.0574213340878487,-0.0641408488154411
5,1.02361117850853,-0.10972222781375,0.055555559848502,-0.107206851243973,0.0256563406437635,-0.0522289797663689
5,1.03888889197661,-0.108333335930496,0.0430555572111439,-0.090408056974411,0.0287106670439243,-0.0171042270958424
5,1.0361111082101,-0.112499999424294,0.0194444453391775,-0.117286130785942,0.0690277740359306,-0.0256563406437635
5,1.01805561097552,-0.123611110178398,0.0250000007162294,-0.134695783257484,0.0626136884093285,-0.0427605658769607
5,1.0125000434425,-0.125000002061652,0.033333335301303,-0.151800006628036,0.04764748737216,-0.0525344125926495
5,1.00972225967599,-0.12916666555545,0.0444444460554069,-0.146607652306557,0.0412334054708481,-0.0418442711234093
5,1.00833336779274,-0.130555557438704,0.0486111125881959,-0.128587126731873,0.0348193198442459,-0.0366519130766392
5,1.01944450285877,-0.126388893944906,0.0388888906783549,-0.0803287774324417,0.00580321997404099,-0.0354301854968071
5,1.01944450285877,-0.126388893944906,0.0388888906783549,-0.0565050356090069,0.00244346098043024,-0.0232128798961639
5,1.02500007039179,-0.123611110178398,0.03194444645704,-0.0369573459029198,0.00549778714776039,-0.0332921557128429
5,1.02361117850853,-0.125000002061652,0.0361111129898289,-0.0497855171561241,0.0152716310694814,-0.0467311926186085
5,1.02361117850853,-0.125000002061652,0.0361111129898289,-0.0522289797663689,0.00671951752156019,-0.0497855171561241
5,1.02083339474202,-0.10972222781375,0.03194444645704,-0.0574213340878487,0.00641408516094089,-0.0503963828086853
5,1.02500007039179,-0.112499999424294,0.0458333348996699,-0.0574213340878487,0.00488692196086049,-0.0510072484612465
5,1.02500007039179,-0.112499999424294,0.0458333348996699,-0.0488692186772823,0.0140499006956816,-0.0439822971820831
5,1.02638896227504,-0.102777780553444,0.0347222241455659,-0.0232128798961639,0.0027488935738802,-0.0226020142436027
5,1.0361111082101,-0.102777780553444,0.0250000007162294,-0.0305432621389627,0.0106901414692402,-0.0329867228865623
5,1.0361111082101,-0.102777780553444,0.0250000007162294,-0.0561996027827263,0.015577063895762,-0.0345138870179653
5,1.02361117850853,-0.106944444047242,0.0347222241455659,-0.0671951770782471,0.00183259579353034,-0.037568211555481
5,1.0125000434425,-0.113888891307548,0.030555557612777,-0.058643065392971,0.00519235478714108,-0.0210748501121998
5,1.0125000434425,-0.113888891307548,0.030555557612777,-0.0482583530247212,0.00122173049021512,-0.0146607663482428
5,1.00972225967599,-0.118055554801345,0.0388888906783549,-0.0152716310694814,-0.0219911485910416,-0.0219911485910416
5,1.0305556379248,-0.113888891307548,0.0250000007162294,-0.00122173049021512,-0.0161879286170006,-0.0143553335219622
5,1.03194452980806,-0.106944444047242,0.0194444453391775,-0.00610865233466029,-0.00244346098043024,-0.013744467869401
5,1.02916674604155,-0.100000002864918,0.0250000007162294,-0.0164933614432812,-0.00855211354792118,-0.0134390350431204
5,1.01944450285877,-0.0986111170596459,0.030555557612777,-0.0323758572340012,-0.0342084541916847,-0.0198531206697226
5,1.01944450285877,-0.0944444474878658,0.026388891079988,-0.037568211555481,-0.0345138870179653,-0.0161879286170006
5,1.02500007039179,-0.0944444474878658,0.026388891079988,-0.0500909499824047,-0.021685715764761,-0.0262672062963247
5,1.02500007039179,-0.0930555616825939,0.0375000018340919,-0.0470366254448891,-0.02382374368608,-0.0109955742955208
5,1.02638896227504,-0.0916666697993398,0.0208333341834404,-0.0424551330506802,-0.017409659922123,-0.00794124789535999
5,1.02083339474202,-0.0902777839940679,0.0250000007162294,-0.05283984541893,-0.0186313893646002,-0.0122173046693206
5,1.01388893532575,-0.0972222251763917,0.03194444645704,-0.0696386396884918,-0.0280998013913631,-0.0143553335219622
5,1.01944450285877,-0.0916666697993398,0.029166668768514,-0.0681114718317986,-0.0491746515035629,-0.011606439948082
5,1.03888889197661,-0.0916666697993398,0.027777779924251,-0.0907134860754013,-0.0418442711234093,-0.00916297826915979
5,1.0361111082101,-0.0875000002275597,0.0138888899621255,-0.101098194718361,-0.0384845100343227,-0.0140499006956816
5,1.03194452980806,-0.0861111144222878,0.0166666676506515,-0.128892570734024,-0.0571159012615681,-0.00855211354792118
5,1.01666671909226,-0.0888888921108138,0.029166668768514,-0.144469633698463,-0.0763581544160843,-0.0186313893646002
5,1.01527782720901,-0.0819444448505077,0.027777779924251,-0.130725160241127,-0.0998764708638191,-0.00610865233466029
5,1.02361117850853,-0.0916666697993398,0.00972222266958873,-0.11606439948082,-0.0781907513737679,-0.00641408516094089
5,1.02777785415829,-0.100000002864918,-0.00833333382532574,-0.114231802523136,-0.058643065392971,-0.00122173049021512
5,1.02500007039179,-0.0944444474878658,-0.00555555575692586,-0.0607810914516449,-0.0372627787292004,-0.0027488935738802
5,1.01527782720901,-0.118055554801345,-0.0111111115138517,-0.130419731140137,-0.0659734457731247,0.0027488935738802
5,1.02083339474202,-0.104166672436698,-0.00972222266958873,-0.128281697630882,-0.0464257597923279,0.00946841109544039
5,1.02500007039179,-0.0972222251763917,-0.00972222266958873,-0.112399205565453,-0.0204639863222837,0.0131336031481624
5,1.02916674604155,-0.0888888921108138,-0.0166666676506515,-0.114842668175697,0.00152716308366507,0.013744467869401
5,1.03194452980806,-0.0819444448505077,-0.00972222266958873,-0.116675265133381,0.00427605677396059,-0.000610865245107561
5,1.02222228662528,-0.0763888894734557,-0.00555555575692586,-0.130114302039146,-0.00427605677396059,-0.00671951752156019
5,1.01527782720901,-0.0652777787193518,0.00416666691266287,-0.135917514562607,-0.000305432622553781,-0.00397062394768
5,1.02222228662528,-0.0750000036681839,-0.00555555575692586,-0.139888137578964,-0.0027488935738802,0.00549778714776039
5,1.02777785415829,-0.0791666671619817,0.00138888893923146,-0.12705996632576,0.027488935738802,-0.0021380283869803
5,1.03194452980806,-0.0777777813567098,0.00277777787846293,-0.123700208961964,0.0189368221908808,-0.00885754637420177
5,1.0333333244436,-0.0736111117849297,0.0194444453391775,-0.125532805919647,0.021685715764761,-0.0171042270958424
5,1.0305556379248,-0.0708333340964038,0.0111111115138517,-0.148745685815811,0.02382374368608,-0.0250454749912024
5,1.02500007039179,-0.0625000010308258,0.00972222266958873,-0.159130394458771,0.0134390350431204,-0.0219911485910416
5,1.02500007039179,-0.0625000010308258,-0.00277777787846293,-0.167682513594627,0.0232128798961639,-0.0229074470698834
5,1.02500007039179,-0.0680555564078778,-0.00277777787846293,-0.168293371796608,0.0103847095742822,-0.0171042270958424
5,1.02916674604155,-0.0763888894734557,-0.00555555575692586,-0.165544480085373,0.0177150927484035,-0.013744467869401
5,1.03194452980806,-0.0777777813567098,-0.00555555575692586,-0.167377084493637,0.0302378293126821,-0.0259617734700441
5,1.0305556379248,-0.0819444448505077,-0.00694444498106275,-0.1795943826437,0.037568211555481,-0.021685715764761
5,1.02500007039179,-0.0819444448505077,-0.00138888893923146,-0.166155353188515,0.0430659987032413,-0.0241291765123606
5,1.02500007039179,-0.0833333367337618,0.00277777787846293,-0.154854342341423,0.0213802829384804,-0.0259617734700441
5,1.02638896227504,-0.0861111144222878,0.00555555575692586,-0.139277279376984,0.00549778714776039,-0.0229074470698834
5,1.03888889197661,-0.0902777839940679,0.00555555575692586,-0.143858760595322,0.0128281703218818,-0.0149661982432008
5,1.0333333244436,-0.0930555616825939,-0.00277777787846293,-0.138360977172852,0.0369573459029198,-0.011606439948082
5,1.02083339474202,-0.0958333393711199,-0.00555555575692586,-0.12675453722477,0.0384845100343227,-0.01191187184304
5,1.02083339474202,-0.0944444474878658,0.00416666691266287,-0.109955742955208,0.0387899428606033,-0.0125227374956012
5,1.02500007039179,-0.0875000002275597,0.00972222266958873,-0.102014496922493,0.000305432622553781,-0.000916297896765172
5,1.03750000009336,-0.0916666697993398,-0.00277777787846293,-0.098960168659687,-0.00305432616733015,0.00122173049021512
5,1.03194452980806,-0.104166672436698,-0.00694444498106275,-0.103236228227615,0.02382374368608,-0.00488692196086049
5,1.02500007039179,-0.0958333393711199,0.0111111115138517,-0.0891863256692886,0.0314595587551594,-0.00946841109544039
5,1.01944450285877,-0.0916666697993398,0.00694444498106275,-0.0754418596625328,0.000305432622553781,0.0027488935738802
5,1.02083339474202,-0.0861111144222878,-0.0152777788063885,-0.0894917547702789,-0.00671951752156019,-0.000610865245107561
5,1.02777785415829,-0.0875000002275597,-0.0125000003581147,-0.0986547395586967,0.00794124789535999,0.0027488935738802
5,1.02222228662528,-0.0875000002275597,-0.00555555575692586,-0.087659165263176,-0.00824668072164059,-0.00855211354792118
5,1.01527782720901,-0.0777777813567098,-0.00833333382532574,-0.078801617026329,-0.0485637858510017,-0.0113010071218014
5,1.02083339474202,-0.0736111117849297,-0.00972222266958873,-0.0705549344420433,-0.0415388382971287,0.00549778714776039
5,1.02916674604155,-0.0736111117849297,-0.029166668768514,-0.0705549344420433,-0.0125227374956012,-0.00122173049021512
5,1.01527782720901,-0.0750000036681839,-0.00833333382532574,-0.0699440687894821,-0.01588249579072,-0.0125227374956012
5,1.01527782720901,-0.0777777813567098,-0.00416666691266287,-0.0772744566202164,-0.0546724386513233,-0.0244346093386412
5,1.02222228662528,-0.0763888894734557,-0.0138888899621255,-0.0885754600167274,-0.0403171069920063,-0.0134390350431204
5,1.02222228662528,-0.0763888894734557,-0.0138888899621255,-0.0839939713478088,-0.0348193198442459,-0.0204639863222837
5,1.02916674604155,-0.0680555564078778,-0.03194444645704,-0.0766635909676552,-0.0250454749912024,-0.01588249579072
5,1.0305556379248,-0.0722222259796579,-0.0388888906783549,-0.0635299831628799,0.00824668072164059,-0.00305432616733015
5,1.02500007039179,-0.0777777813567098,-0.0416666683668809,-0.0348193198442459,0.0290160998702049,0.000305432622553781
5,1.02361117850853,-0.0819444448505077,-0.0402777795226179,-0.0250454749912024,0.03176499158144,-0.0113010071218014
5,1.02222228662528,-0.0888888921108138,-0.029166668768514,-0.00946841109544039,0.0250454749912024,-0.0363464802503586
5,1.02500007039179,-0.0861111144222878,-0.0222222230277034,0.00702495034784079,0.0222965814173222,-0.0299323964864016
5,1.0361111082101,-0.0722222259796579,-0.0250000007162294,0.0134390350431204,0.0439822971820831,-0.0128281703218818
5,1.0333333244436,-0.0694444482911319,-0.033333335301303,0.0180205255746841,0.0519235469400883,-0.00122173049021512
5,1.02638896227504,-0.0680555564078778,-0.0388888906783549,0.0109955742955208,0.0488692186772823,-0.0106901414692402
5,1.01666671909226,-0.0722222259796579,-0.0402777795226179,0.0143553335219622,0.0421497002243996,-0.0189368221908808
5,1.02777785415829,-0.0777777813567098,-0.0194444453391775,0.0433714315295219,0.0766635909676552,-0.011606439948082
5,1.04027778385987,-0.0888888921108138,-0.0125000003581147,0.0650571510195732,0.116980694234371,-0.00641408516094089
5,1.0361111082101,-0.0944444474878658,-0.0194444453391775,0.0653625801205635,0.125838235020638,-0.00488692196086049
5,1.01527782720901,-0.0847222225390337,-0.0166666676506515,0.0574213340878487,0.0931569486856461,-0.000916297896765172
5,1.00694447590948,-0.0847222225390337,-0.0222222230277034,0.076052725315094,0.0470366254448891,0.00122173049021512
5,1.01527782720901,-0.0861111144222878,-0.0208333341834404,0.0803287774324417,0.0491746515035629,-0.000610865245107561
5,1.02500007039179,-0.0875000002275597,-0.00833333382532574,0.0885754600167274,0.0607810914516449,-0.00366519158706069
5,1.0361111082101,-0.0902777839940679,0.00277777787846293,0.0907134860754013,0.127365410327911,0.0201585534960032
5,1.03888889197661,-0.0875000002275597,0.0152777788063885,0.0751364231109619,0.134084925055504,0.00641408516094089
5,1.02777785415829,-0.0722222259796579,0.00972222266958873,0.0390953756868839,0.120645888149738,-0.00641408516094089
5,1.02361117850853,-0.0638888929140799,0.0388888906783549,-0.00549778714776039,0.0757472887635231,0.0109955742955208
5,1.02638896227504,-0.0680555564078778,0.055555559848502,-0.00977384392172098,0.0662788823246956,0.0222965814173222
5,1.03194452980806,-0.0611111152255539,0.052777782159976,-0.0229074470698834,0.0500909499824047,0.0332921557128429
5,1.03888889197661,-0.0652777787193518,0.0472222237439329,-0.0479529201984406,0.0366519130766392,0.0470366254448891
5,1.04583335139288,-0.0833333367337618,0.0416666683668809,-0.0577267669141293,0.0259617734700441,0.0623082555830479
5,1.04305556762637,-0.106944444047242,0.0458333348996699,-0.0565050356090069,0.0213802829384804,0.0516181141138077
5,1.02916674604155,-0.108333335930496,0.0430555572111439,-0.0610865242779255,0.000305432622553781,0.0684169083833694
5,1.02777785415829,-0.10972222781375,0.0416666683668809,-0.0568104684352875,-0.00641408516094089,0.117896988987923
5,1.03750000009336,-0.125000002061652,0.0347222241455659,-0.037568211555481,0.0222965814173222,0.157908663153648
5,1.0361111082101,-0.144444451959316,0.029166668768514,-0.0189368221908808,0.04764748737216,0.161879286170006
5,1.02916674604155,-0.17361112072783,0.0236111118719664,0.0152716310694814,0.0604756586253643,0.156686931848526
5,1.02500007039179,-0.190277786858986,0.027777779924251,0.0473420582711697,0.0827722400426865,0.154243469238281
5,1.02361117850853,-0.198611113846581,0.0361111129898289,0.0739146918058395,0.133779495954514,0.124005645513535
5,1.01111115155925,-0.17361112072783,0.0611111152255539,0.0897971913218498,0.158824965357781,0.0959058403968811
5,0.99583334084345,-0.138888896582264,0.0833333367337618,0.0913243517279625,0.0888808965682983,0.0604756586253643
5,0.994444448960196,-0.126388893944906,0.0847222225390337,0.0919352173805237,0.0448985956609249,0.0482583530247212
5,1.01527782720901,-0.111111119697004,0.0819444448505077,0.0797179117798805,0.02382374368608,0.0265726372599602
5,1.03472221632685,-0.104166672436698,0.0680555564078778,0.0519235469400883,0.0806342139840126,-0.0284052342176437
5,1.0333333244436,-0.101388894748172,0.0875000002275597,0.0565050356090069,0.109039448201656,-0.0739146918058395
5,1.01666671909226,-0.113888891307548,0.108333335930496,0.0546724386513233,0.11087204515934,-0.0980438739061356
5,1.00555558402623,-0.113888891307548,0.105555564319952,0.0409279726445675,0.109650313854218,-0.115148097276688
5,0.990277773310434,-0.123611110178398,0.108333335930496,0.0311541277915239,0.0885754600167274,-0.142026171088219
5,0.952777789710289,-0.113888891307548,0.126388893944906,0.04764748737216,0.0403171069920063,-0.155159771442413
5,0.945833330294018,-0.115277783190802,0.123611110178398,0.0629191175103188,-0.0345138870179653,-0.148745685815811
5,0.944444438410764,-0.113888891307548,0.105555564319952,0.0668897479772568,-0.0745255574584007,-0.131030589342117
5,0.981944519258625,-0.102777780553444,0.108333335930496,0.141109868884087,-0.208915919065475,-0.0720821022987366
5,1.07083340529146,-0.0930555616825939,0.0513888902767219,0.215024560689926,-0.266948103904724,0.0207694191485643
5,1.147222264375,-0.118055554801345,-0.0111111115138517,0.194560587406159,-0.133168622851372,0.0363464802503586
5,1.12083341584089,-0.138888896582264,-0.0138888899621255,0.0671951770782471,0.021685715764761,-0.0308486949652433
5,1.04583335139288,-0.120833338567854,0.0458333348996699,-0.0372627787292004,0.0855211317539215,-0.0653625801205635
5,0.987499989543926,-0.0916666697993398,0.0930555616825939,-0.0675006061792374,0.0558941699564457,-0.0497855171561241
5,0.973611167959101,-0.0777777813567098,0.104166672436698,-0.0751364231109619,-0.0180205255746841,-0.00671951752156019
5,0.991666665193688,-0.0819444448505077,0.0722222259796579,-0.0956004112958908,-0.0827722400426865,0.0448985956609249
5,1.02500007039179,-0.0958333393711199,0.0597222233422998,-0.0885754600167274,-0.106595985591412,0.0464257597923279
5,1.0305556379248,-0.106944444047242,0.0541666679652478,-0.0656680166721344,-0.121256753802299,0.0384845100343227
5,1.02916674604155,-0.0958333393711199,0.0486111125881959,-0.0516181141138077,-0.125227376818657,0.0140499006956816
5,1.02083339474202,-0.101388894748172,0.030555557612777,-0.081855945289135,-0.112399205565453,-0.01191187184304
5,1.03194452980806,-0.0986111170596459,0.0361111129898289,-0.109650313854218,-0.0641408488154411,-0.0149661982432008
5,1.0305556379248,-0.101388894748172,0.03194444645704,-0.11636982858181,-0.0342084541916847,-0.0204639863222837
5,1.02083339474202,-0.0986111170596459,0.0472222237439329,-0.120340451598167,-0.0146607663482428,-0.0290160998702049
5,1.01805561097552,-0.0958333393711199,0.0500000014324589,-0.107206851243973,-0.0384845100343227,-0.0241291765123606
5,1.02638896227504,-0.101388894748172,0.03194444645704,-0.0861319974064827,-0.0620028227567673,-0.00488692196086049
5,1.02500007039179,-0.0986111170596459,0.0375000018340919,-0.0699440687894821,-0.0329867228865623,-0.0122173046693206
5,1.01666671909226,-0.0861111144222878,0.0472222237439329,-0.064446285367012,-0.0516181141138077,-0.0256563406437635
5,1.01944450285877,-0.0763888894734557,0.0416666683668809,-0.0653625801205635,-0.0638354197144508,-0.0262672062963247
5,1.02222228662528,-0.0819444448505077,0.0361111129898289,-0.078801617026329,-0.070249505341053,-0.0394008085131645
5,1.02222228662528,-0.0847222225390337,0.0416666683668809,-0.0983493030071259,-0.0650571510195732,-0.0525344125926495
5,1.03194452980806,-0.0916666697993398,0.0361111129898289,-0.0977384373545647,-0.0754418596625328,-0.0439822971820831
5,1.04722224327614,-0.0944444474878658,0.0180555564949145,-0.0870482996106148,-0.108123145997524,-0.0277943685650826
5,1.04444445950963,-0.0805555590452358,0.0152777788063885,-0.0742201283574104,-0.0861319974064827,-0.0299323964864016
5,1.0361111082101,-0.0666666706026059,-0.00416666691266287,-0.0678060427308083,-0.107512280344963,-0.0351247526705265
5,1.0361111082101,-0.0666666706026059,-0.00416666691266287,-0.0690277740359306,-0.107512280344963,-0.0207694191485643
5,1.02361117850853,-0.0472222237439329,-0.026388891079988,-0.0842994004487991,-0.115148097276688,-0.0256563406437635
5,1.00555558402623,-0.0416666683668809,-0.0361111129898289,-0.0629191175103188,-0.136528387665749,-0.0100792767480016
5,1.00555558402623,-0.0416666683668809,-0.0361111129898289,-0.0870482996106148,-0.173485726118088,-0.0152716310694814
5,1.04027778385987,-0.104166672436698,-0.03194444645704,-0.08460483700037,-0.124921940267086,-0.0180205255746841
5,1.04583335139288,-0.113888891307548,-0.0250000007162294,-0.0290160998702049,-0.0690277740359306,-0.0381790772080422
5,1.04583335139288,-0.113888891307548,-0.0250000007162294,0.0491746515035629,-0.0461203269660473,-0.0998764708638191
5,1.05833337834217,-0.118055554801345,-0.0138888899621255,0.11636982858181,-0.0235183127224445,-0.152105450630188
5,1.0361111082101,-0.0680555564078778,-0.0250000007162294,0.172263994812965,-0.0021380283869803,-0.189673662185669
5,1.0361111082101,-0.0680555564078778,-0.0250000007162294,0.156686931848526,0.00305432616733015,-0.176540061831474
5,1.00416669214298,-0.0125000003581147,-0.0583333375370279,0.134390354156494,-0.0103847095742822,-0.119424156844616
5,1.00000001649321,-0.0125000003581147,-0.0583333375370279,0.126449108123779,-0.0152716310694814,-0.0763581544160843
5,1.00000001649321,-0.0125000003581147,-0.0583333375370279,0.131030589342117,-0.0445931628346443,-0.0125227374956012
5,1.00694447590948,-0.00972222266958873,-0.0583333375370279,0.135917514562607,-0.00702495034784079,0.0259617734700441
5,1.02361117850853,-0.0125000003581147,-0.0722222259796579,0.100792765617371,0.08460483700037,0.0558941699564457
5,1.0361111082101,-0.00694444498106275,-0.0680555564078778,0.0473420582711697,0.145385921001434,0.0882700309157372
5,1.01527782720901,0.00277777787846293,-0.0611111152255539,-0.0479529201984406,0.109955742955208,0.125532805919647
5,1.00972225967599,-0.00138888893923146,-0.0625000010308258,-0.162184715270996,0.0647517144680023,0.126143679022789
5,1.05555559457566,-0.0597222233422998,-0.0652777787193518,-0.191811680793762,0.134084925055504,0.0827722400426865
5,1.10277782135859,-0.125000002061652,-0.0250000007162294,-0.147218525409698,0.166460782289505,-0.0109955742955208
5,1.06527783775844,-0.136111112815755,0.0166666676506515,-0.0540615729987621,0.101709060370922,-0.05283984541893
5,1.00000001649321,-0.0847222225390337,0.0166666676506515,-0.0571159012615681,0.0244346093386412,-0.0299323964864016
5,0.965277816659576,-0.029166668768514,0.0166666676506515,-0.0720821022987366,-0.0427605658769607,0.0323758572340012
5,0.976388951725609,-0.0208333341834404,-0.0125000003581147,-0.0638354197144508,-0.0729983970522881,0.10567969083786
5,1.00138890837647,-0.03194444645704,-0.0152777788063885,-0.0320704244077206,-0.103541657328606,0.122173048555851
5,1.05000002704265,-0.0680555564078778,-0.0194444453391775,-0.00519235478714108,-0.0772744566202164,0.118507854640484
5,1.08750001064279,-0.0902777839940679,-0.0222222230277034,0.0259617734700441,0.0259617734700441,0.0791070461273193
5,1.07500008094122,-0.0777777813567098,-0.0222222230277034,0.0427605658769607,0.0452040284872055,0.0122173046693206
5,1.04166667574312,-0.0583333375370279,-0.0111111115138517,0.0113010071218014,0.0357356183230877,-0.0100792767480016
5,1.01527782720901,-0.0625000010308258,-0.00555555575692586,-0.013744467869401,0.00794124789535999,0.00397062394768
5,1.01388893532575,-0.0750000036681839,-0.0138888899621255,0.0250454749912024,0.0109955742955208,0.00733038317412138
5,1.02222228662528,-0.0777777813567098,-0.0138888899621255,0.0552833043038845,0.00824668072164059,0.0302378293126821
5,1.02361117850853,-0.0736111117849297,-0.00138888893923146,0.0665843114256859,0.0470366254448891,0.0711658000946045
5,1.0305556379248,-0.0888888921108138,-0.00138888893923146,0.0742201283574104,0.0922406539320946,0.064446285367012
5,1.04305556762637,-0.105555564319952,0.0222222230277034,0.0986547395586967,0.150883719325066,0.0326812900602817
5,1.0333333244436,-0.111111119697004,0.0430555572111439,0.147218525409698,0.145080491900444,-0.00610865233466029
5,1.0305556379248,-0.108333335930496,0.0416666683668809,0.162184715270996,0.139582708477974,-0.0305432621389627
5,1.02500007039179,-0.0847222225390337,0.0513888902767219,0.19578230381012,0.117896988987923,-0.0146607663482428
5,1.02500007039179,-0.0777777813567098,0.0430555572111439,0.203418120741844,0.0931569486856461,0.00366519158706069
5,1.02777785415829,-0.0736111117849297,0.029166668768514,0.182037845253944,0.0959058403968811,0.015577063895762
5,1.01111115155925,-0.0680555564078778,0.033333335301303,0.120340451598167,0.0647517144680023,0.0113010071218014
5,1.00416669214298,-0.0666666706026059,0.0347222241455659,0.0867428630590439,0.0265726372599602,-0.00885754637420177
5,1.00833336779274,-0.0750000036681839,0.0236111118719664,0.0433714315295219,0.0397062413394451,-0.0033597587607801
5,1.0125000434425,-0.0777777813567098,0.0388888906783549,0.0406225398182869,0.0488692186772823,0.0122173046693206
5,1.02222228662528,-0.0875000002275597,0.0430555572111439,0.0690277740359306,0.0265726372599602,0.029626963660121
5,1.03750000009336,-0.101388894748172,0.0388888906783549,0.0736092627048492,0.0378736443817616,0.0109955742955208
5,1.0361111082101,-0.112499999424294,0.0472222237439329,0.0647517144680023,0.0543670058250427,-0.0213802829384804
5,1.02916674604155,-0.108333335930496,0.0611111152255539,0.0620028227567673,0.0681114718317986,-0.0204639863222837
5,1.01666671909226,-0.113888891307548,0.0625000010308258,0.0751364231109619,0.0693332031369209,-0.011606439948082
5,1.0125000434425,-0.108333335930496,0.055555559848502,0.076052725315094,0.0482583530247212,-0.0186313893646002
5,1.01944450285877,-0.101388894748172,0.0472222237439329,0.090408056974411,0.0186313893646002,-0.00885754637420177
5,1.02916674604155,-0.0986111170596459,0.0486111125881959,0.0812450796365738,0.0277943685650826,-0.0143553335219622
5,1.02916674604155,-0.0916666697993398,0.0444444460554069,0.0613919571042061,0.0430659987032413,-0.0149661982432008
5,1.01388893532575,-0.0847222225390337,0.0625000010308258,0.0543670058250427,0.0345138870179653,-0.0171042270958424
5,1.00694447590948,-0.0847222225390337,0.0680555564078778,0.0320704244077206,-0.00122173049021512,-0.00610865233466029
5,1.01527782720901,-0.0958333393711199,0.055555559848502,0.0253509078174829,-0.0226020142436027,0.000610865245107561
5,1.0305556379248,-0.0944444474878658,0.0458333348996699,0.0180205255746841,-0.00916297826915979,-0.00519235478714108
5,1.04027778385987,-0.0902777839940679,0.0486111125881959,0.00122173049021512,0.0256563406437635,-0.01191187184304
5,1.02638896227504,-0.0944444474878658,0.0541666679652478,0.0027488935738802,0.0418442711234093,-0.00916297826915979
5,1.01944450285877,-0.0986111170596459,0.0611111152255539,0.0122173046693206,0.0198531206697226,-0.00397062394768
5,1.0125000434425,-0.0986111170596459,0.0583333375370279,0.0219911485910416,-0.00794124789535999,-0.0021380283869803
5,1.01666671909226,-0.0986111170596459,0.0541666679652478,0.0287106670439243,-0.0357356183230877,0.00946841109544039
5,1.02361117850853,-0.101388894748172,0.0486111125881959,0.0345138870179653,-0.0308486949652433,0.00244346098043024
5,1.02777785415829,-0.0944444474878658,0.0375000018340919,0.0455094613134861,-0.0314595587551594,0.0149661982432008
5,1.01944450285877,-0.0861111144222878,0.0361111129898289,0.0430659987032413,-0.0366519130766392,0.0265726372599602
5,1.02500007039179,-0.0902777839940679,0.0388888906783549,0.0232128798961639,-0.0400116741657257,0.021685715764761
5,1.02916674604155,-0.0875000002275597,0.0458333348996699,0.00244346098043024,-0.0467311926186085,0.017409659922123
5,1.0305556379248,-0.0833333367337618,0.0416666683668809,-0.0177150927484035,-0.0427605658769607,0.0143553335219622
5,1.02777785415829,-0.0902777839940679,0.0361111129898289,-0.0323758572340012,-0.0461203269660473,0.0149661982432008
5,1.02500007039179,-0.0944444474878658,0.0444444460554069,-0.0268780700862408,-0.0427605658769607,0.0192422550171614
5,1.02500007039179,-0.0944444474878658,0.0222222230277034,-0.0125227374956012,-0.0507018156349659,0.0134390350431204
5,1.02500007039179,-0.0986111170596459,0.0194444453391775,-0.0235183127224445,-0.0390953756868839,0.0033597587607801
5,1.02222228662528,-0.104166672436698,0.0375000018340919,-0.0305432621389627,-0.0180205255746841,0.00397062394768
5,1.02222228662528,-0.102777780553444,0.0402777795226179,-0.0280998013913631,-0.011606439948082,0.0045814891345799
5,1.02222228662528,-0.100000002864918,0.0416666683668809,-0.0241291765123606,-0.0100792767480016,0.0103847095742822
5,1.02500007039179,-0.0861111144222878,0.0347222241455659,-0.0125227374956012,-0.0372627787292004,0.000305432622553781
5,1.02500007039179,-0.0902777839940679,0.026388891079988,-0.0198531206697226,-0.0503963828086853,0.0021380283869803
5,1.0305556379248,-0.0944444474878658,0.029166668768514,-0.0201585534960032,-0.0363464802503586,-0.000916297896765172
5,1.01944450285877,-0.0972222251763917,0.0361111129898289,-0.019547687843442,-0.0189368221908808,0.00122173049021512
5,1.01527782720901,-0.0958333393711199,0.0416666683668809,-0.0161879286170006,-0.0290160998702049,0.0131336031481624
5,1.02083339474202,-0.0930555616825939,0.0250000007162294,-0.0167987942695618,-0.0482583530247212,0.00885754637420177
5,1.02083339474202,-0.0930555616825939,0.0250000007162294,-0.0131336031481624,-0.0458148941397667,0.00824668072164059
5,1.03194452980806,-0.0944444474878658,0.03194444645704,-0.0198531206697226,-0.0418442711234093,0.0125227374956012
5,1.02500007039179,-0.100000002864918,0.0388888906783549,-0.0277943685650826,-0.021685715764761,0.0131336031481624
5,1.02500007039179,-0.100000002864918,0.0388888906783549,-0.0204639863222837,-0.0177150927484035,0.00916297826915979
5,1.02361117850853,-0.0875000002275597,0.0222222230277034,-0.0284052342176437,-0.0280998013913631,0.00397062394768
5,1.02500007039179,-0.0888888921108138,0.0361111129898289,-0.0152716310694814,-0.0427605658769607,-0.0021380283869803
5,1.02500007039179,-0.0888888921108138,0.0361111129898289,-0.0186313893646002,-0.0354301854968071,-0.00733038317412138
5,1.02916674604155,-0.0875000002275597,0.03194444645704,-0.0131336031481624,-0.0259617734700441,-0.0103847095742822
5,1.02500007039179,-0.0916666697993398,0.0222222230277034,-0.0131336031481624,-0.00733038317412138,-0.0033597587607801
5,1.02500007039179,-0.0916666697993398,0.0222222230277034,-0.0177150927484035,-0.015577063895762,-0.0167987942695618
5,1.02222228662528,-0.0805555590452358,0.0250000007162294,-0.0109955742955208,-0.0268780700862408,-0.0149661982432008
5,1.02500007039179,-0.0888888921108138,0.0138888899621255,-0.0021380283869803,-0.0348193198442459,-0.00885754637420177
5,1.02500007039179,-0.0888888921108138,0.0138888899621255,0.00152716308366507,-0.0320704244077206,-0.00122173049021512
5,1.0305556379248,-0.0944444474878658,0.0152777788063885,0.00610865233466029,-0.0229074470698834,-0.00488692196086049
5,1.02500007039179,-0.0847222225390337,0.0166666676506515,-0.000610865245107561,-0.0335975885391235,-0.0122173046693206
5,1.02638896227504,-0.0875000002275597,0.0152777788063885,0.000916297896765172,-0.03176499158144,-0.021685715764761
5,1.02638896227504,-0.0930555616825939,0.0222222230277034,0.00946841109544039,-0.0384845100343227,-0.01588249579072
5,1.02638896227504,-0.0944444474878658,0.0166666676506515,0.0186313893646002,-0.0381790772080422,-0.00580321997404099
5,1.02500007039179,-0.0847222225390337,0.0125000003581147,0.0226020142436027,-0.0284052342176437,-0.00488692196086049
5,1.02916674604155,-0.0847222225390337,0.0125000003581147,0.0189368221908808,-0.015577063895762,-0.00855211354792118
5,1.02222228662528,-0.0805555590452358,0.0125000003581147,0.00794124789535999,-0.0335975885391235,-0.0180205255746841
5,1.02222228662528,-0.0819444448505077,0.0111111115138517,-0.00152716308366507,-0.0403171069920063,-0.00733038317412138
5,1.02361117850853,-0.0875000002275597,0.0138888899621255,-0.00580321997404099,-0.021685715764761,0.00488692196086049
5,1.02916674604155,-0.0916666697993398,0.0125000003581147,-0.00641408516094089,-0.019547687843442,-0.00488692196086049
5,1.02777785415829,-0.0944444474878658,0.0194444453391775,-0.00122173049021512,-0.0167987942695618,-0.00549778714776039
5,1.02500007039179,-0.0888888921108138,0.029166668768514,0.000610865245107561,-0.0143553335219622,-0.0161879286170006
5,1.02361117850853,-0.0847222225390337,0.0180555564949145,0.000305432622553781,-0.03176499158144,-0.0103847095742822
5,1.01944450285877,-0.0861111144222878,0.0222222230277034,-0.00122173049021512,-0.0436768643558025,-0.00244346098043024
5,1.02500007039179,-0.0861111144222878,0.0194444453391775,-0.00305432616733015,-0.037568211555481,-0.0186313893646002
5,1.02361117850853,-0.0875000002275597,0.0125000003581147,0.0100792767480016,-0.0342084541916847,-0.00183259579353034
5,1.02361117850853,-0.0888888921108138,0.0125000003581147,0.0177150927484035,-0.0354301854968071,-0.000305432622553781
5,1.02638896227504,-0.0944444474878658,0.0208333341834404,0.0189368221908808,-0.0464257597923279,-0.000916297896765172
5,1.02500007039179,-0.0847222225390337,0.00972222266958873,0.00671951752156019,-0.0452040284872055,0.0021380283869803
5,1.02638896227504,-0.0875000002275597,0.00694444498106275,-0.0021380283869803,-0.0360410511493683,-0.0177150927484035
5,1.02638896227504,-0.0875000002275597,0.00833333382532574,-0.00671951752156019,-0.0284052342176437,-0.0329867228865623
5,1.0305556379248,-0.0861111144222878,0.0111111115138517,-0.0103847095742822,-0.0201585534960032,-0.0222965814173222
5,1.0333333244436,-0.0875000002275597,0.0152777788063885,-0.0226020142436027,-0.0320704244077206,-0.0235183127224445
5,1.03194452980806,-0.0875000002275597,0.00972222266958873,-0.0241291765123606,-0.00702495034784079,-0.01191187184304
5,1.01944450285877,-0.0791666671619817,-0.00138888893923146,-0.0192422550171614,-0.0293215326964855,-0.0427605658769607
5,1.02222228662528,-0.0777777813567098,0.00694444498106275,-0.0277943685650826,-0.0366519130766392,-0.0326812900602817
5,1.02916674604155,-0.0944444474878658,0.00694444498106275,-0.0146607663482428,-0.0183259565383196,-0.0354301854968071
5,1.02777785415829,-0.0916666697993398,0.0166666676506515,-0.0235183127224445,0.0021380283869803,-0.0387899428606033
5,1.02361117850853,-0.0736111117849297,-0.00694444498106275,-0.0219911485910416,-0.0125227374956012,-0.0436768643558025
5,1.02638896227504,-0.0750000036681839,-0.0250000007162294,-0.0473420582711697,-0.0128281703218818,-0.0507018156349659
5,1.02500007039179,-0.0833333367337618,-0.0250000007162294,-0.0555887371301651,-0.029626963660121,-0.0537561401724815
5,1.02222228662528,-0.0847222225390337,-0.0194444453391775,-0.0534507073462009,-0.0445931628346443,-0.0561996027827263
5,1.02222228662528,-0.0916666697993398,-0.0194444453391775,-0.0403171069920063,-0.0629191175103188,-0.05283984541893
5,1.0333333244436,-0.104166672436698,-0.0347222241455659,-0.0516181141138077,-0.0226020142436027,-0.0507018156349659
5,1.0305556379248,-0.104166672436698,-0.0361111129898289,-0.0406225398182869,-0.0247400421649218,-0.0568104684352875
5,1.02500007039179,-0.106944444047242,-0.03194444645704,-0.0235183127224445,-0.0458148941397667,-0.0671951770782471
5,1.02638896227504,-0.111111119697004,-0.030555557612777,0.000610865245107561,-0.0684169083833694,-0.0665843114256859
5,1.02638896227504,-0.112499999424294,-0.0222222230277034,0.0415388382971287,-0.0580321997404099,-0.0613919571042061
5,1.02222228662528,-0.102777780553444,-0.0250000007162294,0.0913243517279625,-0.0763581544160843,-0.0400116741657257
5,1.02777785415829,-0.0958333393711199,-0.03194444645704,0.125532805919647,-0.0772744566202164,-0.0201585534960032
5,1.03194452980806,-0.0902777839940679,-0.0361111129898289,0.141415297985077,-0.0583376325666905,-0.0177150927484035
5,1.02222228662528,-0.0722222259796579,-0.033333335301303,0.145691365003586,-0.0580321997404099,-0.0122173046693206
5,1.02222228662528,-0.0638888929140799,-0.0222222230277034,0.154548913240433,-0.0571159012615681,0.00427605677396059
5,1.02083339474202,-0.0583333375370279,-0.026388891079988,0.154854342341423,-0.0342084541916847,0.0387899428606033
5,1.02638896227504,-0.0458333348996699,-0.0180555564949145,0.134390354156494,-0.0106901414692402,0.0415388382971287
5,1.02361117850853,-0.0458333348996699,-0.0194444453391775,0.109039448201656,-0.00366519158706069,0.0381790772080422
5,1.02500007039179,-0.0444444460554069,-0.0111111115138517,0.0852157026529312,0.000916297896765172,0.0629191175103188
5,1.02500007039179,-0.0347222241455659,-0.0250000007162294,0.0467311926186085,0.0204639863222837,0.0781907513737679
5,1.02500007039179,-0.03194444645704,-0.030555557612777,-0.0250454749912024,0.0259617734700441,0.087659165263176
5,1.02222228662528,-0.0416666683668809,-0.0361111129898289,-0.0836885422468185,0.0232128798961639,0.0552833043038845
5,1.02500007039179,-0.0513888902767219,-0.0361111129898289,-0.100181899964809,0.00152716308366507,0.0183259565383196
5,1.03472221632685,-0.0638888929140799,-0.029166668768514,-0.11606439948082,0.00885754637420177,-0.00641408516094089
5,1.05555559457566,-0.0861111144222878,-0.029166668768514,-0.106595985591412,0.0442877300083637,-0.00855211354792118
5,1.05694448645892,-0.0875000002275597,-0.0194444453391775,-0.0812450796365738,0.0852157026529312,-0.0314595587551594
5,1.04444445950963,-0.0916666697993398,-0.0152777788063885,-0.0497855171561241,0.0842994004487991,-0.0372627787292004
5,1.02500007039179,-0.0819444448505077,-0.00972222266958873,-0.0232128798961639,0.0928515195846558,-0.0250454749912024
5,1.00833336779274,-0.0652777787193518,-0.00972222266958873,-0.00549778714776039,0.0387899428606033,0.0027488935738802
5,1.00972225967599,-0.0722222259796579,-0.0194444453391775,0.000305432622553781,0.0134390350431204,0.00641408516094089
5,1.02222228662528,-0.0736111117849297,-0.026388891079988,-0.00152716308366507,0.0253509078174829,0.0247400421649218
5,1.02638896227504,-0.0819444448505077,-0.026388891079988,-0.00794124789535999,0.0439822971820831,0.0100792767480016
5,1.02916674604155,-0.0819444448505077,-0.0236111118719664,-0.0164933614432812,0.0503963828086853,0.00305432616733015
5,1.03194452980806,-0.0847222225390337,-0.0152777788063885,-0.0268780700862408,0.0659734457731247,-0.019547687843442
5,1.0333333244436,-0.0777777813567098,-0.00138888893923146,-0.0467311926186085,0.0769690200686455,-0.0335975885391235
5,1.02500007039179,-0.0694444482911319,0.00416666691266287,-0.05283984541893,0.0580321997404099,-0.0207694191485643
5,1.01805561097552,-0.0652777787193518,0.0152777788063885,-0.0726929605007172,0.00824668072164059,-0.00885754637420177
5,1.02777785415829,-0.0736111117849297,0.0152777788063885,-0.0522289797663689,-0.0140499006956816,0.0146607663482428
5,1.02638896227504,-0.0888888921108138,-0.00277777787846293,-0.0421497002243996,0.000305432622553781,0.0302378293126821
5,1.02083339474202,-0.101388894748172,0.00416666691266287,-0.019547687843442,0.00427605677396059,0.0357356183230877
5,1.02083339474202,-0.104166672436698,0.00555555575692586,0.0204639863222837,-0.00671951752156019,0.0311541277915239
5,1.02083339474202,-0.104166672436698,0.00555555575692586,0.0342084541916847,-0.0131336031481624,0.0280998013913631
5,1.02361117850853,-0.100000002864918,0.00555555575692586,0.0452040284872055,-0.0128281703218818,0.0250454749912024
5,1.0305556379248,-0.0833333367337618,-0.00277777787846293,0.0357356183230877,-0.00641408516094089,0.0299323964864016
5,1.03194452980806,-0.0805555590452358,-0.00277777787846293,0.0277943685650826,-0.000916297896765172,0.0241291765123606
5,1.02500007039179,-0.0819444448505077,-0.00833333382532574,0.0293215326964855,-0.000610865245107561,0.0287106670439243
5,1.02916674604155,-0.0875000002275597,-0.00138888893923146,0.037568211555481,-0.00122173049021512,0.03176499158144
5,1.02638896227504,-0.0888888921108138,0.00694444498106275,0.0366519130766392,-0.00855211354792118,0.0259617734700441
5,1.02638896227504,-0.0805555590452358,0.00277777787846293,0.0204639863222837,0.00488692196086049,0.0189368221908808
5,1.02638896227504,-0.0791666671619817,0.00277777787846293,0.0183259565383196,0.00824668072164059,0.0152716310694814
5,1.02916674604155,-0.0847222225390337,0.00277777787846293,0.00549778714776039,-0.00427605677396059,0.0113010071218014
5,1.0333333244436,-0.0833333367337618,0.00277777787846293,0.00946841109544039,0.0302378293126821,-0.00397062394768
5,1.02777785415829,-0.0819444448505077,0.00694444498106275,0.00794124789535999,0.0287106670439243,-0.000916297896765172
5,1.02222228662528,-0.0847222225390337,0.00833333382532574,0.0229074470698834,0.0241291765123606,0.00488692196086049
5,1.02222228662528,-0.0819444448505077,0.00694444498106275,0.0256563406437635,0.0177150927484035,0.00488692196086049
5,1.02638896227504,-0.0888888921108138,-0.00833333382532574,0.0342084541916847,0.0161879286170006,-0.0021380283869803
5,1.02500007039179,-0.0888888921108138,-0.00833333382532574,0.0390953756868839,0.021685715764761,-0.00366519158706069
5,1.0305556379248,-0.0888888921108138,-0.00972222266958873,0.0345138870179653,0.0271835029125214,-0.0027488935738802
5,1.02500007039179,-0.0888888921108138,-0.00277777787846293,0.0342084541916847,0.0201585534960032,0.00580321997404099
5,1.02083339474202,-0.0902777839940679,-0.00555555575692586,0.0452040284872055,0.0140499006956816,-0.00152716308366507
5,1.01944450285877,-0.0930555616825939,-0.00277777787846293,0.0494800843298435,0.0134390350431204,-0.00122173049021512
5,1.02500007039179,-0.0888888921108138,-0.00138888893923146,0.0607810914516449,0.00244346098043024,0.00519235478714108
5,1.02500007039179,-0.0847222225390337,-0.00138888893923146,0.0445931628346443,0.0143553335219622,0.00427605677396059
5,1.02361117850853,-0.0875000002275597,-0.00416666691266287,0.0467311926186085,0.00855211354792118,0.000916297896765172
5,1.02500007039179,-0.0888888921108138,0.00416666691266287,0.0445931628346443,-0.00305432616733015,0.00641408516094089
5,1.02361117850853,-0.0875000002275597,0.0194444453391775,0.0458148941397667,-0.00610865233466029,0.00641408516094089
5,1.0333333244436,-0.0861111144222878,0.0152777788063885,0.0442877300083637,-0.013744467869401,0.00580321997404099
5,1.0305556379248,-0.0819444448505077,-0.00277777787846293,0.0400116741657257,-0.00488692196086049,0.00580321997404099
5,1.03194452980806,-0.0847222225390337,0.00555555575692586,0.0372627787292004,-0.00824668072164059,0.011606439948082
5,1.02777785415829,-0.0847222225390337,0.00555555575692586,0.0409279726445675,-0.0186313893646002,0.00794124789535999
5,1.02777785415829,-0.0833333367337618,0.00555555575692586,0.0314595587551594,-0.021685715764761,0.00427605677396059
5,1.02500007039179,-0.0875000002275597,0.00416666691266287,0.0339030213654041,-0.0109955742955208,0.00305432616733015
5,1.02361117850853,-0.0916666697993398,0.00416666691266287,0.0384845100343227,-0.0021380283869803,-0.00702495034784079
5,1.02500007039179,-0.0902777839940679,0.00138888893923146,0.0519235469400883,0.000610865245107561,0.00366519158706069
5,1.03194452980806,-0.0861111144222878,0.00555555575692586,0.0488692186772823,-0.0021380283869803,0.00305432616733015
5,1.03194452980806,-0.0847222225390337,-0.00694444498106275,0.0461203269660473,0.00702495034784079,-0.0143553335219622
5,1.02916674604155,-0.0819444448505077,0.00138888893923146,0.0381790772080422,-0.00183259579353034,-0.0134390350431204
5,1.02777785415829,-0.0916666697993398,0.00555555575692586,0.0390953756868839,0.0131336031481624,-0.00671951752156019
5,1.02638896227504,-0.0916666697993398,0.00555555575692586,0.037568211555481,0.017409659922123,0.000610865245107561
5,1.02500007039179,-0.0916666697993398,0.00555555575692586,0.0400116741657257,0.0161879286170006,-0.00885754637420177
5,1.02777785415829,-0.0902777839940679,0.00555555575692586,0.0348193198442459,0.0113010071218014,-0.0229074470698834
5,1.01805561097552,-0.0861111144222878,0.00138888893923146,0.0366519130766392,0.0232128798961639,-0.0226020142436027
5,1.01527782720901,-0.0861111144222878,0.00277777787846293,0.0320704244077206,0.0167987942695618,-0.0180205255746841
5,1.02500007039179,-0.0833333367337618,0.0111111115138517,0.0305432621389627,0.01191187184304,-0.0109955742955208
5,1.02916674604155,-0.0875000002275597,0.0111111115138517,0.0329867228865623,0.0171042270958424,-0.0140499006956816
5,1.0305556379248,-0.0819444448505077,0.00277777787846293,0.027488935738802,0.013744467869401,-0.0210748501121998
5,1.02916674604155,-0.0805555590452358,0.0111111115138517,0.0198531206697226,-0.00244346098043024,-0.0171042270958424
5,1.02361117850853,-0.0847222225390337,0.00833333382532574,0.0149661982432008,0.0134390350431204,-0.00733038317412138
5,1.02222228662528,-0.0875000002275597,0.00972222266958873,0.017409659922123,0.00763581553474069,-0.0103847095742822
5,1.02361117850853,-0.0875000002275597,0.0125000003581147,0.0293215326964855,-0.00488692196086049,-0.0128281703218818
5,1.02916674604155,-0.0819444448505077,-0.00277777787846293,0.029626963660121,-0.000610865245107561,-0.00885754637420177
5,1.02916674604155,-0.0819444448505077,-0.00138888893923146,0.0293215326964855,0.0113010071218014,-0.00702495034784079
5,1.02222228662528,-0.0847222225390337,0.00277777787846293,0.0387899428606033,0.0149661982432008,-0.00671951752156019
5,1.02500007039179,-0.0833333367337618,0.00555555575692586,0.0442877300083637,-0.01191187184304,-0.00702495034784079
5,1.02777785415829,-0.0819444448505077,0.00694444498106275,0.0516181141138077,-0.0219911485910416,-0.00794124789535999
5,1.03750000009336,-0.0819444448505077,0.00277777787846293,0.0516181141138077,-0.00427605677396059,-0.0033597587607801
5,1.0361111082101,-0.0819444448505077,0.00416666691266287,0.0335975885391235,0.00824668072164059,-0.000305432622553781
5,1.02361117850853,-0.0833333367337618,0.00416666691266287,0.017409659922123,0.00702495034784079,-0.0027488935738802
5,1.02222228662528,-0.0805555590452358,0.00972222266958873,0.0161879286170006,-0.000305432622553781,-0.00916297826915979
5,1.02361117850853,-0.0805555590452358,0.00972222266958873,0.0164933614432812,-0.00244346098043024,-0.00610865233466029
5,1.02916674604155,-0.0861111144222878,0.00277777787846293,0.0213802829384804,0.0161879286170006,-0.0143553335219622
5,1.02638896227504,-0.0847222225390337,-0.00277777787846293,0.0229074470698834,0.0250454749912024,-0.0109955742955208
5,1.02916674604155,-0.0847222225390337,-0.00277777787846293,0.0256563406437635,0.0381790772080422,-0.015577063895762
5,1.02083339474202,-0.0819444448505077,-0.00277777787846293,0.0113010071218014,0.0363464802503586,-0.0280998013913631
5,1.02222228662528,-0.0833333367337618,0.00694444498106275,0.00671951752156019,0.0250454749912024,-0.0335975885391235
5,1.02500007039179,-0.0847222225390337,0.00972222266958873,0.0113010071218014,0.01588249579072,-0.0320704244077206
5,1.0305556379248,-0.0847222225390337,0.00416666691266287,0.011606439948082,0.0219911485910416,-0.0241291765123606
5,1.02638896227504,-0.0847222225390337,0.00138888893923146,0.0204639863222837,0.03176499158144,-0.0222965814173222
5,1.02500007039179,-0.0875000002275597,0.00138888893923146,0.0183259565383196,0.037568211555481,-0.0219911485910416
5,1.02222228662528,-0.0916666697993398,0.00555555575692586,0.0229074470698834,0.0354301854968071,-0.0171042270958424
5,1.02222228662528,-0.0944444474878658,0.0152777788063885,0.0387899428606033,0.0277943685650826,-0.01588249579072
5,1.02916674604155,-0.0847222225390337,0.0125000003581147,0.0397062413394451,0.0222965814173222,-0.0180205255746841
5,1.02777785415829,-0.0722222259796579,0.0125000003581147,0.03176499158144,0.0345138870179653,-0.0100792767480016
5,1.02916674604155,-0.0763888894734557,0.00972222266958873,0.0339030213654041,0.0207694191485643,-0.00580321997404099
5,1.02916674604155,-0.0777777813567098,0.0166666676506515,0.0265726372599602,0.00885754637420177,-0.00641408516094089
5,1.02500007039179,-0.0777777813567098,0.0152777788063885,0.029626963660121,0.00977384392172098,-0.00794124789535999
5,1.02500007039179,-0.0777777813567098,0.0152777788063885,0.0354301854968071,-0.000305432622553781,0.0045814891345799
5,1.02361117850853,-0.0875000002275597,0.0111111115138517,0.0418442711234093,0.00519235478714108,0.0027488935738802
5,1.01527782720901,-0.0875000002275597,0.0125000003581147,0.0418442711234093,0.00916297826915979,0.00916297826915979
5,1.01527782720901,-0.0875000002275597,0.0125000003581147,0.0390953756868839,0.000610865245107561,0.000916297896765172
5,1.0305556379248,-0.0763888894734557,0.0166666676506515,0.0445931628346443,-0.00824668072164059,0.00183259579353034
5,1.03194452980806,-0.0722222259796579,0.0152777788063885,0.0271835029125214,0.013744467869401,0.00488692196086049
5,1.03194452980806,-0.0722222259796579,0.0152777788063885,0.0149661982432008,0.0143553335219622,-0.0027488935738802
5,1.02916674604155,-0.0666666706026059,0.0125000003581147,0.00580321997404099,0.00671951752156019,-0.00580321997404099
5,1.02500007039179,-0.0652777787193518,0.0222222230277034,-0.00152716308366507,0.00519235478714108,-0.00733038317412138
5,1.02500007039179,-0.0652777787193518,0.0222222230277034,-0.00916297826915979,0.00122173049021512,-0.0128281703218818
5,1.02361117850853,-0.0722222259796579,0.0222222230277034,-0.011606439948082,0.0122173046693206,-0.00977384392172098
5,1.02500007039179,-0.0722222259796579,0.00972222266958873,-0.00824668072164059,0.00885754637420177,-0.00427605677396059
5,1.02500007039179,-0.0722222259796579,0.00972222266958873,-0.00763581553474069,0.027488935738802,-0.0109955742955208
5,1.02500007039179,-0.0791666671619817,0.029166668768514,-0.0033597587607801,0.01588249579072,-0.00733038317412138
5,1.02500007039179,-0.0777777813567098,0.0222222230277034,-0.0021380283869803,0.0122173046693206,-0.00824668072164059
5,1.02500007039179,-0.0708333340964038,0.026388891079988,0.000610865245107561,0.00702495034784079,-0.00977384392172098
5,1.02916674604155,-0.0736111117849297,0.0250000007162294,0.0027488935738802,0.00671951752156019,-0.00733038317412138
5,1.02916674604155,-0.0694444482911319,0.0208333341834404,0.0045814891345799,0.0027488935738802,-0.00855211354792118
5,1.0305556379248,-0.0680555564078778,0.0208333341834404,-0.0045814891345799,0.00488692196086049,-0.0128281703218818
5,1.02777785415829,-0.0680555564078778,0.027777779924251,-0.00671951752156019,0.0140499006956816,-0.00519235478714108
5,1.02500007039179,-0.0652777787193518,0.030555557612777,-0.0128281703218818,0.00122173049021512,-0.00427605677396059
5,1.02500007039179,-0.0625000010308258,0.0347222241455659,-0.0152716310694814,0.000305432622553781,-0.00702495034784079
5,1.02777785415829,-0.0625000010308258,0.0208333341834404,-0.0122173046693206,-0.00885754637420177,-0.00397062394768
5,1.02361117850853,-0.0680555564078778,0.030555557612777,-0.0140499006956816,0.00244346098043024,-0.01191187184304
5,1.02500007039179,-0.0722222259796579,0.026388891079988,-0.0106901414692402,0.0186313893646002,-0.0134390350431204
5,1.02777785415829,-0.0708333340964038,0.029166668768514,-0.0149661982432008,0.0171042270958424,-0.0161879286170006
5,1.02500007039179,-0.0625000010308258,0.0250000007162294,-0.0183259565383196,0.0146607663482428,-0.0149661982432008
5,1.02638896227504,-0.0583333375370279,0.0375000018340919,-0.029626963660121,0.00946841109544039,-0.00916297826915979
5,1.02638896227504,-0.0583333375370279,0.029166668768514,-0.0311541277915239,-0.00671951752156019,-0.00946841109544039
5,1.02916674604155,-0.0638888929140799,0.0194444453391775,-0.03176499158144,-0.000305432622553781,-0.00885754637420177
5,1.02916674604155,-0.0652777787193518,0.0208333341834404,-0.0259617734700441,0.00549778714776039,-0.0109955742955208
5,1.02916674604155,-0.0708333340964038,0.0194444453391775,-0.0332921557128429,0.00946841109544039,-0.00152716308366507
5,1.0305556379248,-0.0638888929140799,0.0250000007162294,-0.0332921557128429,0.00183259579353034,-0.00916297826915979
5,1.02638896227504,-0.0680555564078778,0.0250000007162294,-0.0326812900602817,0.00488692196086049,0.000305432622553781
5,1.02500007039179,-0.0652777787193518,0.0166666676506515,-0.0320704244077206,-0.00519235478714108,-0.00183259579353034
5,1.02916674604155,-0.0680555564078778,0.026388891079988,-0.0226020142436027,-0.0021380283869803,0.00763581553474069
5,1.02777785415829,-0.0722222259796579,0.0250000007162294,-0.0192422550171614,-0.00397062394768,-0.00305432616733015
5,1.02361117850853,-0.0750000036681839,0.0125000003581147,-0.0226020142436027,0.000916297896765172,0.00427605677396059
5,1.01944450285877,-0.0736111117849297,0.0180555564949145,-0.0235183127224445,0.00549778714776039,0.00580321997404099
5,1.02083339474202,-0.0750000036681839,0.0180555564949145,-0.0277943685650826,-0.0106901414692402,0.00305432616733015
5,1.02777785415829,-0.0763888894734557,0.0222222230277034,-0.0198531206697226,-0.00946841109544039,0.00855211354792118
5,1.02916674604155,-0.0777777813567098,0.0152777788063885,-0.0128281703218818,-0.000916297896765172,0.00885754637420177
5,1.03194452980806,-0.0750000036681839,0.0138888899621255,-0.0226020142436027,-0.00641408516094089,0.00733038317412138
5,1.02361117850853,-0.0750000036681839,0.00277777787846293,-0.0177150927484035,-0.0125227374956012,0.00397062394768
5,1.02500007039179,-0.0763888894734557,0.0125000003581147,-0.015577063895762,-0.0045814891345799,0.0106901414692402
5,1.02222228662528,-0.0777777813567098,0.00972222266958873,-0.00794124789535999,-0.0106901414692402,0.0167987942695618
5,1.02500007039179,-0.0750000036681839,0.0125000003581147,-0.00641408516094089,-0.011606439948082,0.0177150927484035
5,1.02500007039179,-0.0750000036681839,0.0152777788063885,-0.0045814891345799,-0.0201585534960032,0.0131336031481624
5,1.02638896227504,-0.0777777813567098,0.00694444498106275,0.00152716308366507,-0.0149661982432008,0.013744467869401
5,1.02916674604155,-0.0791666671619817,0.00972222266958873,0.00794124789535999,-0.00916297826915979,0.0164933614432812
5,1.03194452980806,-0.0847222225390337,0.00277777787846293,0.00427605677396059,-0.00519235478714108,0.015577063895762
5,1.02500007039179,-0.0805555590452358,0.00833333382532574,-0.0109955742955208,-0.0161879286170006,0.00946841109544039
5,1.02222228662528,-0.0819444448505077,0.0111111115138517,-0.00519235478714108,-0.0143553335219622,0.02382374368608
5,1.02222228662528,-0.0847222225390337,0.0125000003581147,-0.00305432616733015,-0.0271835029125214,0.0213802829384804
5,1.02500007039179,-0.0819444448505077,0.0111111115138517,0.0103847095742822,-0.0348193198442459,0.0250454749912024
