Activity,acc_x,acc_y,acc_z,gyro_x,gyro_y,gyro_z
0,0.0361111129898289,0.0152777788063885,1.00000001649321,0.00244346098043024,-0.0113010071218014,0.00244346098043024
0,0.0361111129898289,0.0152777788063885,1.00000001649321,0.00397062394768,-0.0241291765123606,-0.0027488935738802
0,0.055555559848502,0.00972222266958873,1.00138890837647,0.00702495034784079,0.0186313893646002,-0.00610865233466029
0,0.0388888906783549,0.0125000003581147,1.00833336779274,0.000305432622553781,-0.0277943685650826,0.0021380283869803
0,0.0430555572111439,0.0125000003581147,1.00833336779274,0.00519235478714108,-0.0409279726445675,-0.00580321997404099
0,0.0388888906783549,0.0152777788063885,0.981944519258625,0.01191187184304,0.0302378293126821,-0.00824668072164059
0,0.0361111129898289,0.0125000003581147,0.984722303025134,0.00885754637420177,0.0549778714776039,-0.0021380283869803
0,0.0347222241455659,0.0138888899621255,1.01666671909226,0.00549778714776039,-0.0143553335219622,0.0027488935738802
0,0.0347222241455659,0.0125000003581147,1.00833336779274,-0.00152716308366507,-0.0131336031481624,-0.00152716308366507
0,0.0375000018340919,0.0138888899621255,0.984722303025134,0.00733038317412138,0.0143553335219622,-0.000916297896765172
0,0.0388888906783549,0.00972222266958873,0.990277773310434,0.0109955742955208,0.00855211354792118,0.00427605677396059
0,0.0388888906783549,0.0125000003581147,1.0125000434425,0.00763581553474069,0.00580321997404099,0.00152716308366507
0,0.0375000018340919,0.00972222266958873,1.0125000434425,0.00519235478714108,0.00946841109544039,-0.00183259579353034
0,0.0388888906783549,0.0138888899621255,0.986111194908388,0.01588249579072,0.0161879286170006,-0.000916297896765172
0,0.0347222241455659,0.0166666676506515,0.987499989543926,0.0103847095742822,0.0241291765123606,0.00122173049021512
0,0.0416666683668809,0.0125000003581147,1.00277780025972,0.00794124789535999,0.00519235478714108,-0.0021380283869803
0,0.0402777795226179,0.0125000003581147,1.00416669214298,0.000610865245107561,-0.0146607663482428,0.0021380283869803
0,0.0361111129898289,0.0111111115138517,0.976388951725609,0.00733038317412138,-0.00580321997404099,-0.000610865245107561
0,0.0402777795226179,0.0138888899621255,0.983333411141879,0.0113010071218014,0.0280998013913631,-0.000916297896765172
0,0.0416666683668809,0.00972222266958873,1.00416669214298,0.00580321997404099,0.00641408516094089,0.0021380283869803
0,0.0388888906783549,0.0111111115138517,1.00000001649321,0.00183259579353034,-0.00855211354792118,-0.00488692196086049
0,0.0416666683668809,0.00972222266958873,0.993055557076942,0.00885754637420177,0.0109955742955208,0.000305432622553781
0,0.0388888906783549,0.00555555575692586,1.00000001649321,0.00122173049021512,0.0287106670439243,0.00183259579353034
0,0.0361111129898289,0.00972222266958873,1.00555558402623,0.0027488935738802,-0.0027488935738802,-0.0033597587607801
0,0.0416666683668809,0.0138888899621255,0.99583334084345,0.00183259579353034,-0.01191187184304,-0.0033597587607801
0,0.0388888906783549,0.0125000003581147,0.98888888142718,0.00488692196086049,0.000916297896765172,0.0033597587607801
0,0.0388888906783549,0.0125000003581147,0.99583334084345,0.00702495034784079,0.0125227374956012,0.00366519158706069
0,0.0388888906783549,0.0125000003581147,1.00694447590948,0.00855211354792118,0.00702495034784079,-0.00641408516094089
0,0.0388888906783549,0.0125000003581147,0.998611124609959,0.00671951752156019,0.0021380283869803,-0.0033597587607801
0,0.0388888906783549,0.0152777788063885,0.986111194908388,0.00549778714776039,0.0027488935738802,-0.00580321997404099
0,0.0388888906783549,0.0138888899621255,0.990277773310434,0.00855211354792118,0.0122173046693206,-0.000610865245107561
0,0.0375000018340919,0.0111111115138517,1.00555558402623,0.00916297826915979,0.011606439948082,-0.00244346098043024
0,0.033333335301303,0.0125000003581147,1.00277780025972,0.00183259579353034,-0.00366519158706069,-0.0021380283869803
0,0.033333335301303,0.0125000003581147,1.00277780025972,0.00885754637420177,-0.00610865233466029,0.0033597587607801
0,0.0402777795226179,0.0138888899621255,0.986111194908388,0.0103847095742822,0.0226020142436027,-0.00641408516094089
0,0.0361111129898289,0.0111111115138517,1.00138890837647,0.00519235478714108,0.00946841109544039,-0.00671951752156019
0,0.0375000018340919,0.0111111115138517,1.00000001649321,0.000305432622553781,-0.00855211354792118,-0.00244346098043024
0,0.03194444645704,0.0125000003581147,0.986111194908388,0.0045814891345799,-0.00183259579353034,-0.0021380283869803
0,0.0361111129898289,0.0152777788063885,0.99583334084345,0.00610865233466029,0.015577063895762,-0.00671951752156019
0,0.0388888906783549,0.0152777788063885,0.998611124609959,0.00488692196086049,0.00519235478714108,-0.000916297896765172
0,0.0388888906783549,0.0125000003581147,0.997222232726705,0.00794124789535999,-0.0045814891345799,-0.00122173049021512
0,0.0388888906783549,0.0125000003581147,0.997222232726705,0.00824668072164059,0.00702495034784079,-0.000916297896765172
0,0.0375000018340919,0.00972222266958873,0.990277773310434,0.00671951752156019,0.00824668072164059,-0.0033597587607801
0,0.0375000018340919,0.00833333382532574,1.00000001649321,0.00794124789535999,0.00763581553474069,-0.0033597587607801
0,0.0375000018340919,0.00833333382532574,1.00000001649321,0.011606439948082,-0.00427605677396059,-0.00580321997404099
0,0.0375000018340919,0.0152777788063885,1.00000001649321,0.0045814891345799,-0.00152716308366507,-0.0021380283869803
0,0.0361111129898289,0.0152777788063885,0.98888888142718,0.00519235478714108,0.00549778714776039,0.0033597587607801
0,0.0361111129898289,0.0152777788063885,0.98888888142718,0.00885754637420177,0.00366519158706069,-0.00824668072164059
0,0.0361111129898289,0.0180555564949145,1.00277780025972,0.00763581553474069,-0.00305432616733015,-0.0027488935738802
0,0.033333335301303,0.0166666676506515,1.00277780025972,0.00610865233466029,-0.0045814891345799,-0.0021380283869803
0,0.0388888906783549,0.0111111115138517,0.997222232726705,0.0122173046693206,0.00733038317412138,0.000305432622553781
0,0.0361111129898289,0.0125000003581147,0.99583334084345,0.0106901414692402,0.00763581553474069,-0.00794124789535999
0,0.0375000018340919,0.0138888899621255,1.00000001649321,0.00671951752156019,0.00488692196086049,-0.000305432622553781
0,0.0347222241455659,0.00694444498106275,1.00555558402623,0.0106901414692402,-0.00244346098043024,0.000916297896765172
0,0.0375000018340919,0.0111111115138517,0.993055557076942,0.0146607663482428,0.0021380283869803,0.000305432622553781
0,0.0361111129898289,0.0125000003581147,0.98888888142718,0.00549778714776039,0.00916297826915979,0.00183259579353034
0,0.0388888906783549,0.0152777788063885,0.99583334084345,0.0021380283869803,0.00733038317412138,0.00244346098043024
0,0.0388888906783549,0.0152777788063885,0.998611124609959,0.00519235478714108,-0.0033597587607801,-0.00183259579353034
0,0.0388888906783549,0.0125000003581147,0.983333411141879,0.00244346098043024,0.0021380283869803,-0.000305432622553781
0,0.0402777795226179,0.0138888899621255,0.997222232726705,0.0131336031481624,0.00885754637420177,-0.00244346098043024
0,0.0402777795226179,0.0138888899621255,1.00972225967599,0.0045814891345799,0.00427605677396059,-0.00610865233466029
0,0.029166668768514,0.0166666676506515,0.99583334084345,0.00549778714776039,0.00152716308366507,-0.000916297896765172
0,0.030555557612777,0.0125000003581147,1.00138890837647,0.00916297826915979,0.00519235478714108,-0.00366519158706069
0,0.0347222241455659,0.0125000003581147,0.987499989543926,0.0106901414692402,0.00610865233466029,-0.000610865245107561
0,0.0347222241455659,0.0138888899621255,0.994444448960196,0.00519235478714108,0.00366519158706069,-0.00244346098043024
0,0.0347222241455659,0.0152777788063885,1.00416669214298,0.00580321997404099,-0.00488692196086049,-0.00610865233466029
0,0.027777779924251,0.00972222266958873,1.00138890837647,0.00946841109544039,0.0045814891345799,-0.00183259579353034
0,0.0347222241455659,0.0125000003581147,0.993055557076942,0.00733038317412138,0.00366519158706069,0.0033597587607801
0,0.0361111129898289,0.0125000003581147,0.990277773310434,0.00366519158706069,0.00549778714776039,-0.00702495034784079
0,0.0347222241455659,0.0125000003581147,0.99583334084345,0.00702495034784079,-0.000610865245107561,0.00122173049021512
0,0.0402777795226179,0.0125000003581147,0.99583334084345,0.00824668072164059,-0.0027488935738802,-0.00580321997404099
0,0.033333335301303,0.00972222266958873,1.00000001649321,0.00427605677396059,0.00763581553474069,-0.00366519158706069
0,0.0361111129898289,0.00972222266958873,0.998611124609959,0.00916297826915979,0.00152716308366507,0.00244346098043024
0,0.0416666683668809,0.0152777788063885,1.00555558402623,-0.00122173049021512,0.0021380283869803,-0.000610865245107561
0,0.0361111129898289,0.0125000003581147,0.997222232726705,0.0045814891345799,-0.00580321997404099,-0.00549778714776039
0,0.0361111129898289,0.00972222266958873,0.99583334084345,0.00977384392172098,0.00855211354792118,-0.0045814891345799
0,0.0375000018340919,0.00555555575692586,1.00972225967599,0.013744467869401,0.00977384392172098,-0.00397062394768
0,0.0361111129898289,0.00833333382532574,0.997222232726705,0.00152716308366507,-0.0027488935738802,-0.000610865245107561
0,0.0361111129898289,0.00555555575692586,0.998611124609959,0.0033597587607801,0.00152716308366507,-0.00244346098043024
0,0.0388888906783549,0.00555555575692586,0.990277773310434,0.00702495034784079,0.00244346098043024,-0.00183259579353034
0,0.0347222241455659,0.0125000003581147,1.00277780025972,0.0134390350431204,0.00610865233466029,0.00183259579353034
0,0.0375000018340919,0.00972222266958873,1.00694447590948,0.00794124789535999,0.00152716308366507,-0.00183259579353034
0,0.03194444645704,0.0111111115138517,0.997222232726705,0.0100792767480016,0.0027488935738802,-0.000305432622553781
0,0.0347222241455659,0.0125000003581147,1.00000001649321,0.00885754637420177,0.00152716308366507,-0.000610865245107561
0,0.0375000018340919,0.00972222266958873,1.00277780025972,0.0033597587607801,0.00397062394768,-0.00183259579353034
0,0.0361111129898289,0.0166666676506515,1.00000001649321,0.00519235478714108,0.00916297826915979,-0.00733038317412138
0,0.0388888906783549,0.00972222266958873,0.991666665193688,0.00763581553474069,0.00488692196086049,-0.00427605677396059
0,0.0388888906783549,0.0125000003581147,0.994444448960196,0.00641408516094089,0.00122173049021512,0.00183259579353034
0,0.0361111129898289,0.0125000003581147,0.997222232726705,0.0033597587607801,0.000916297896765172,-0.00488692196086049
0,0.0361111129898289,0.0125000003581147,1.00277780025972,0.00610865233466029,-0.00366519158706069,-0.00610865233466029
0,0.033333335301303,0.0138888899621255,0.997222232726705,0.00824668072164059,0.000610865245107561,0.00580321997404099
0,0.0361111129898289,0.0125000003581147,1.00416669214298,0.0125227374956012,0.00733038317412138,0.000916297896765172
0,0.033333335301303,0.0152777788063885,1.00138890837647,0.00794124789535999,0.00641408516094089,-0.0033597587607801
0,0.03194444645704,0.0166666676506515,0.998611124609959,0.00641408516094089,-0.00305432616733015,-0.00305432616733015
0,0.03194444645704,0.0152777788063885,1.01388893532575,-0.00152716308366507,0.00397062394768,-0.000305432622553781
0,0.0375000018340919,0.0152777788063885,0.99583334084345,0.00519235478714108,0.0027488935738802,-0.00366519158706069
0,0.0388888906783549,0.0125000003581147,1.00000001649321,0.0100792767480016,0.00580321997404099,0.011606439948082
0,0.0361111129898289,0.00694444498106275,1.00416669214298,0.00977384392172098,-0.000305432622553781,-0.000916297896765172
0,0.0361111129898289,0.00833333382532574,0.991666665193688,0.00610865233466029,-0.00366519158706069,-0.00152716308366507
0,0.0375000018340919,0.00972222266958873,0.99583334084345,0.00397062394768,0.00397062394768,-0.00244346098043024
0,0.0375000018340919,0.0138888899621255,1.00277780025972,0.00702495034784079,0.00549778714776039,0.00397062394768
0,0.0402777795226179,0.0152777788063885,1.00277780025972,0.0122173046693206,0.00366519158706069,0.00366519158706069
0,0.0388888906783549,0.0152777788063885,1.00277780025972,0.0045814891345799,0.00641408516094089,-0.00305432616733015
0,0.0430555572111439,0.00972222266958873,1.00000001649321,0.00733038317412138,0.00824668072164059,-0.00580321997404099
0,0.0402777795226179,0.0111111115138517,0.99583334084345,0.0113010071218014,0.000305432622553781,0.00122173049021512
0,0.0388888906783549,0.0125000003581147,0.997222232726705,0.00366519158706069,0.000305432622553781,-0.0045814891345799
0,0.0361111129898289,0.0180555564949145,0.98888888142718,0.00549778714776039,0.00152716308366507,-0.0021380283869803
0,0.0361111129898289,0.0125000003581147,0.997222232726705,0.01191187184304,0.00855211354792118,-0.00977384392172098
0,0.0347222241455659,0.0152777788063885,0.994444448960196,0.0021380283869803,0.00427605677396059,-0.000305432622553781
0,0.0361111129898289,0.0125000003581147,0.994444448960196,0.00549778714776039,-0.00305432616733015,-0.00671951752156019
0,0.0375000018340919,0.0138888899621255,0.99583334084345,0.00488692196086049,0.000610865245107561,0.000916297896765172
0,0.0347222241455659,0.00972222266958873,0.98888888142718,0.00610865233466029,0.00946841109544039,-0.00763581553474069
0,0.0347222241455659,0.00972222266958873,0.98888888142718,0.0131336031481624,0.0027488935738802,-0.00702495034784079
0,0.0347222241455659,0.0152777788063885,0.997222232726705,0.00305432616733015,0.0021380283869803,-0.00549778714776039
0,0.03194444645704,0.0138888899621255,0.998611124609959,0.00855211354792118,-0.000610865245107561,-0.00183259579353034
0,0.03194444645704,0.0138888899621255,0.998611124609959,0.00946841109544039,0.00794124789535999,0.0021380283869803
0,0.0361111129898289,0.0166666676506515,1.00000001649321,0.0106901414692402,0.0027488935738802,-0.00366519158706069
0,0.03194444645704,0.0138888899621255,0.986111194908388,0.00824668072164059,-0.00244346098043024,-0.00305432616733015
0,0.03194444645704,0.0138888899621255,0.986111194908388,0.00488692196086049,-0.00397062394768,-0.00366519158706069
0,0.0361111129898289,0.0152777788063885,0.993055557076942,0.0109955742955208,0.00305432616733015,0.00244346098043024
0,0.0361111129898289,0.0125000003581147,0.99583334084345,0.00916297826915979,0.00641408516094089,0.00855211354792118
0,0.0361111129898289,0.0125000003581147,0.99583334084345,0.00610865233466029,0.00641408516094089,-0.00641408516094089
0,0.0388888906783549,0.0125000003581147,0.993055557076942,0.0100792767480016,-0.00152716308366507,0.0021380283869803
0,0.0388888906783549,0.0125000003581147,0.99583334084345,0.00610865233466029,0.00519235478714108,-0.00671951752156019
0,0.033333335301303,0.0152777788063885,0.975000059842355,0.00824668072164059,0.00397062394768,0.00305432616733015
0,0.0347222241455659,0.0180555564949145,0.991666665193688,0.0113010071218014,-0.00244346098043024,-0.00397062394768
0,0.0388888906783549,0.0125000003581147,1.00138890837647,0.00488692196086049,-0.0027488935738802,-0.00885754637420177
0,0.0388888906783549,0.00833333382532574,0.997222232726705,0.00977384392172098,0.0027488935738802,0.00244346098043024
0,0.0347222241455659,0.0138888899621255,1.00000001649321,0.00366519158706069,0.00610865233466029,-0.00733038317412138
0,0.0402777795226179,0.0111111115138517,0.998611124609959,0.00855211354792118,0.0027488935738802,-0.00244346098043024
0,0.0361111129898289,0.0125000003581147,1.00000001649321,0.00702495034784079,0.00152716308366507,0.00152716308366507
0,0.03194444645704,0.0152777788063885,1.00000001649321,0.0113010071218014,0.00183259579353034,0.0045814891345799
0,0.0347222241455659,0.0208333341834404,1.00416669214298,0.00366519158706069,0.00794124789535999,-0.000610865245107561
0,0.0375000018340919,0.00833333382532574,0.994444448960196,0.00671951752156019,0.00641408516094089,-0.0045814891345799
0,0.0361111129898289,0.0152777788063885,0.993055557076942,0.00610865233466029,0.00855211354792118,0.000305432622553781
0,0.030555557612777,0.0125000003581147,0.998611124609959,0.00977384392172098,0.00671951752156019,-0.00641408516094089
0,0.0361111129898289,0.0138888899621255,0.993055557076942,0.00916297826915979,0.00641408516094089,-0.0033597587607801
0,0.03194444645704,0.0152777788063885,1.01111115155925,0.0103847095742822,0.00671951752156019,0.00549778714776039
0,0.0347222241455659,0.00833333382532574,0.998611124609959,0.00702495034784079,0.000610865245107561,-0.000916297896765172
0,0.0347222241455659,0.00833333382532574,0.998611124609959,0.0113010071218014,0.000916297896765172,-0.000916297896765172
0,0.03194444645704,0.0125000003581147,0.991666665193688,0.00702495034784079,0.00183259579353034,-0.00305432616733015
0,0.0361111129898289,0.0152777788063885,1.00000001649321,0.00427605677396059,0.00671951752156019,0.000610865245107561
0,0.0361111129898289,0.00555555575692586,1.00000001649321,0.00549778714776039,-0.0021380283869803,-0.00549778714776039
0,0.0361111129898289,0.00972222266958873,1.00000001649321,0.00580321997404099,0.00305432616733015,-0.00824668072164059
0,0.0375000018340919,0.0125000003581147,1.00277780025972,0.00733038317412138,0.00183259579353034,-0.00397062394768
0,0.0361111129898289,0.0138888899621255,0.997222232726705,0.00610865233466029,0.0021380283869803,-0.00671951752156019
0,0.0347222241455659,0.0111111115138517,0.99583334084345,0.00488692196086049,0.00824668072164059,-0.00183259579353034
0,0.0388888906783549,0.0152777788063885,1.00000001649321,0.00855211354792118,0.00397062394768,0.00244346098043024
0,0.030555557612777,0.0125000003581147,1.00000001649321,0.00183259579353034,-0.00244346098043024,-0.00305432616733015
0,0.030555557612777,0.0125000003581147,1.00000001649321,0.00794124789535999,0.000610865245107561,0.000305432622553781
0,0.030555557612777,0.0125000003581147,1.00000001649321,0.00794124789535999,0.000610865245107561,0.000305432622553781
0,0.0388888906783549,0.00694444498106275,0.998611124609959,0.00885754637420177,0.000610865245107561,-0.00580321997404099
0,0.0388888906783549,0.00694444498106275,0.998611124609959,0.00885754637420177,0.00671951752156019,0.00305432616733015
0,0.0361111129898289,0.0125000003581147,0.99583334084345,0.00824668072164059,0.000610865245107561,-0.00244346098043024
0,0.0361111129898289,0.0138888899621255,1.00277780025972,0.0109955742955208,-0.0033597587607801,0.00305432616733015
0,0.0361111129898289,0.0152777788063885,1.00277780025972,0.00946841109544039,0.000610865245107561,-0.00824668072164059
0,0.0347222241455659,0.0125000003581147,1.00555558402623,0.00733038317412138,0.00122173049021512,-0.00641408516094089
0,0.0375000018340919,0.0138888899621255,1.00277780025972,0.00519235478714108,0.000916297896765172,-0.000916297896765172
0,0.0361111129898289,0.0125000003581147,1.00000001649321,0.00702495034784079,-0.000610865245107561,0.000610865245107561
0,0.0375000018340919,0.0138888899621255,1.00000001649321,0.00702495034784079,0.00610865233466029,-0.0033597587607801
0,0.0375000018340919,0.0125000003581147,1.00000001649321,0.00885754637420177,-0.00244346098043024,-0.00122173049021512
0,0.03194444645704,0.0125000003581147,0.997222232726705,0.00733038317412138,0.0021380283869803,-0.0021380283869803
0,0.03194444645704,0.0125000003581147,0.99583334084345,0.0106901414692402,0.0027488935738802,0.00152716308366507
0,0.0361111129898289,0.0125000003581147,0.99583334084345,0.00733038317412138,0.00671951752156019,-0.00183259579353034
0,0.0361111129898289,0.0125000003581147,0.994444448960196,0.00580321997404099,0.00763581553474069,0.00763581553474069
0,0.0347222241455659,0.0125000003581147,0.998611124609959,0.00794124789535999,0.000305432622553781,-0.00397062394768
0,0.033333335301303,0.0152777788063885,0.99583334084345,0.00549778714776039,-0.0021380283869803,-0.00427605677396059
0,0.033333335301303,0.0138888899621255,0.998611124609959,0.00794124789535999,0.00366519158706069,-0.00549778714776039
0,0.0361111129898289,0.00972222266958873,0.986111194908388,0.00397062394768,0.00488692196086049,-0.0021380283869803
0,0.0361111129898289,0.0138888899621255,0.991666665193688,0.00610865233466029,0.0021380283869803,0.00122173049021512
0,0.03194444645704,0.0180555564949145,0.993055557076942,0.00580321997404099,0.0027488935738802,-0.00549778714776039
0,0.0347222241455659,0.0125000003581147,0.997222232726705,0.0109955742955208,0.00549778714776039,-0.00152716308366507
0,0.0361111129898289,0.0111111115138517,0.99583334084345,0.00763581553474069,-0.00183259579353034,-0.00122173049021512
0,0.0361111129898289,0.00277777787846293,1.00000001649321,0.00885754637420177,0.0045814891345799,0.00305432616733015
0,0.03194444645704,0.00833333382532574,1.00138890837647,0.00427605677396059,0.000305432622553781,-0.0021380283869803
0,0.0361111129898289,0.0111111115138517,1.00000001649321,0.00549778714776039,-0.000305432622553781,-0.00733038317412138
0,0.0361111129898289,0.0125000003581147,1.00000001649321,0.00794124789535999,0.00488692196086049,-0.00916297826915979
0,0.03194444645704,0.00694444498106275,0.997222232726705,0.00519235478714108,0.00397062394768,-0.00122173049021512
0,0.0388888906783549,0.00833333382532574,1.00833336779274,0.00733038317412138,0.00366519158706069,0.00702495034784079
0,0.03194444645704,0.0138888899621255,1.00555558402623,0.0045814891345799,0.0045814891345799,-0.0103847095742822
0,0.0361111129898289,0.0138888899621255,1.00416669214298,0.00702495034784079,-0.000610865245107561,0.00183259579353034
0,0.03194444645704,0.00833333382532574,0.997222232726705,0.0103847095742822,-0.000610865245107561,0.00152716308366507
0,0.0361111129898289,0.00555555575692586,0.993055557076942,0.0106901414692402,0.000305432622553781,0.000610865245107561
0,0.0402777795226179,0.00555555575692586,0.987499989543926,0.00794124789535999,0.0021380283869803,-0.00549778714776039
0,0.0361111129898289,0.00972222266958873,1.00000001649321,0.00488692196086049,0.00305432616733015,-0.00488692196086049
0,0.0375000018340919,0.00833333382532574,1.00416669214298,0.00702495034784079,0.000610865245107561,-0.00183259579353034
0,0.0388888906783549,0.0125000003581147,1.00277780025972,0.00488692196086049,0.00488692196086049,-0.00366519158706069
0,0.0361111129898289,0.0125000003581147,0.998611124609959,0.00855211354792118,0.00305432616733015,-0.0027488935738802
0,0.0375000018340919,0.00972222266958873,1.00555558402623,0.0113010071218014,-0.00122173049021512,-0.00397062394768
0,0.03194444645704,0.0111111115138517,1.00277780025972,0.00488692196086049,0.00305432616733015,-0.0027488935738802
0,0.03194444645704,0.0111111115138517,1.00277780025972,0.00427605677396059,0.0033597587607801,-0.0027488935738802
0,0.03194444645704,0.0125000003581147,0.99583334084345,0.0100792767480016,0.00549778714776039,-0.00641408516094089
0,0.03194444645704,0.0125000003581147,0.99583334084345,0.00641408516094089,-0.000610865245107561,0.0021380283869803
0,0.0388888906783549,0.0180555564949145,0.994444448960196,0.01191187184304,-0.0021380283869803,-0.00580321997404099
0,0.0375000018340919,0.0166666676506515,0.997222232726705,0.00702495034784079,0.00763581553474069,-0.0045814891345799
0,0.0375000018340919,0.0152777788063885,1.0125000434425,0.00763581553474069,-0.00366519158706069,-0.00549778714776039
0,0.0375000018340919,0.0152777788063885,1.0125000434425,0.00977384392172098,-0.0027488935738802,-0.00397062394768
0,0.0361111129898289,0.0152777788063885,0.99583334084345,0.0103847095742822,-0.00488692196086049,-0.00183259579353034
0,0.0402777795226179,0.00972222266958873,1.00694447590948,0.0100792767480016,0.00641408516094089,-0.00152716308366507
0,0.0402777795226179,0.00972222266958873,1.00694447590948,0.00855211354792118,0.0021380283869803,0.000916297896765172
0,0.0375000018340919,0.00972222266958873,0.99583334084345,0.00427605677396059,0.00549778714776039,0.00152716308366507
0,0.0361111129898289,0.00694444498106275,1.00138890837647,0.00794124789535999,0.00366519158706069,-0.000305432622553781
0,0.0361111129898289,0.0138888899621255,0.99583334084345,0.00916297826915979,0.000916297896765172,-0.00519235478714108
0,0.033333335301303,0.0111111115138517,0.997222232726705,0.00824668072164059,0.00244346098043024,-0.00305432616733015
0,0.0361111129898289,0.0166666676506515,0.99583334084345,0.00763581553474069,0.00366519158706069,-0.00122173049021512
0,0.0347222241455659,0.0152777788063885,0.99583334084345,0.00671951752156019,0.000916297896765172,-0.00733038317412138
0,0.03194444645704,0.0152777788063885,1.00138890837647,0.00916297826915979,0.00824668072164059,-0.00152716308366507
0,0.0361111129898289,0.0111111115138517,1.00277780025972,0.00305432616733015,0.000305432622553781,-0.0021380283869803
0,0.033333335301303,0.00972222266958873,0.99583334084345,0.00733038317412138,0.0021380283869803,-0.00152716308366507
0,0.0375000018340919,0.00972222266958873,0.99583334084345,0.00763581553474069,0.0027488935738802,0.00183259579353034
0,0.0375000018340919,0.00972222266958873,0.99583334084345,0.00763581553474069,0.00244346098043024,-0.00946841109544039
0,0.0361111129898289,0.00972222266958873,0.98888888142718,0.00733038317412138,-0.000916297896765172,-0.00366519158706069
0,0.0388888906783549,0.0125000003581147,0.991666665193688,0.00824668072164059,0.0027488935738802,0.0045814891345799
0,0.0361111129898289,0.0125000003581147,0.993055557076942,0.00122173049021512,0.00641408516094089,0.00244346098043024
0,0.0361111129898289,0.0152777788063885,0.99583334084345,0.00397062394768,0.00305432616733015,-0.000305432622553781
0,0.0361111129898289,0.0138888899621255,0.99583334084345,0.00977384392172098,0.00671951752156019,-0.00366519158706069
0,0.03194444645704,0.0125000003581147,0.997222232726705,0.00794124789535999,0.000305432622553781,-0.00122173049021512
0,0.0361111129898289,0.0125000003581147,0.99583334084345,0.00244346098043024,0.00397062394768,-0.00305432616733015
0,0.0347222241455659,0.00972222266958873,0.994444448960196,0.00610865233466029,0.00244346098043024,0.00427605677396059
0,0.0361111129898289,0.0125000003581147,0.998611124609959,0.00702495034784079,0.00183259579353034,-0.00152716308366507
0,0.03194444645704,0.0111111115138517,1.00416669214298,0.00580321997404099,0.00366519158706069,0.000916297896765172
0,0.0361111129898289,0.0152777788063885,1.00000001649321,0.00885754637420177,-0.00152716308366507,-0.000916297896765172
0,0.03194444645704,0.0111111115138517,0.993055557076942,0.00946841109544039,0.00397062394768,-0.0033597587607801
0,0.03194444645704,0.0152777788063885,0.993055557076942,0.0125227374956012,0.00305432616733015,0.00366519158706069
0,0.0347222241455659,0.0166666676506515,0.993055557076942,0.00763581553474069,0.000916297896765172,-0.00244346098043024
0,0.0388888906783549,0.0125000003581147,0.993055557076942,0.00122173049021512,0.00244346098043024,-0.000916297896765172
0,0.0375000018340919,0.00972222266958873,1.00833336779274,0.00977384392172098,0.00427605677396059,0.0021380283869803
0,0.033333335301303,0.00972222266958873,0.998611124609959,0.00610865233466029,0.000916297896765172,-0.00397062394768
0,0.0375000018340919,0.0125000003581147,0.997222232726705,0.0100792767480016,-0.0045814891345799,-0.0027488935738802
0,0.03194444645704,0.00972222266958873,0.994444448960196,0.00977384392172098,0.0027488935738802,-0.0021380283869803
0,0.0361111129898289,0.0152777788063885,1.00277780025972,0.00244346098043024,-0.000305432622553781,0.000610865245107561
0,0.0361111129898289,0.00833333382532574,0.98888888142718,0.00366519158706069,0.000305432622553781,0.00580321997404099
0,0.0361111129898289,0.00833333382532574,0.98888888142718,0.00610865233466029,0.00702495034784079,0.00610865233466029
0,0.0361111129898289,0.0152777788063885,1.00416669214298,0.00641408516094089,0.00397062394768,-0.000305432622553781
0,0.030555557612777,0.00972222266958873,0.98888888142718,0.00549778714776039,0.00244346098043024,-0.00397062394768
0,0.0361111129898289,0.0138888899621255,0.99583334084345,0.00855211354792118,-0.000916297896765172,-0.000305432622553781
0,0.03194444645704,0.0152777788063885,0.991666665193688,0.00824668072164059,0.0045814891345799,0.00366519158706069
0,0.03194444645704,0.0125000003581147,0.993055557076942,0.00977384392172098,0.00549778714776039,-0.00244346098043024
0,0.029166668768514,0.0111111115138517,0.990277773310434,0.0109955742955208,0.00702495034784079,0.00641408516094089
0,0.030555557612777,0.0166666676506515,0.998611124609959,0.013744467869401,0.0033597587607801,-0.0033597587607801
0,0.0347222241455659,0.0125000003581147,0.994444448960196,0.00733038317412138,0.000305432622553781,-0.00671951752156019
0,0.0347222241455659,0.0125000003581147,0.994444448960196,0.00824668072164059,0.000610865245107561,-0.000916297896765172
0,0.03194444645704,0.0125000003581147,0.997222232726705,0.00916297826915979,-0.00366519158706069,-0.00671951752156019
0,0.0388888906783549,0.0152777788063885,0.99583334084345,0.0033597587607801,0.00152716308366507,0.000305432622553781
0,0.03194444645704,0.0138888899621255,1.00138890837647,0.00946841109544039,0.0027488935738802,-0.00244346098043024
0,0.03194444645704,0.0138888899621255,1.00138890837647,0.00488692196086049,0.00183259579353034,0.000610865245107561
0,0.03194444645704,0.00972222266958873,1.00555558402623,0.00916297826915979,0.00824668072164059,0.00152716308366507
0,0.0347222241455659,0.0152777788063885,0.993055557076942,0.00763581553474069,0.00641408516094089,-0.000610865245107561
0,0.0347222241455659,0.0152777788063885,0.993055557076942,0.00152716308366507,0.00305432616733015,-0.00305432616733015
0,0.033333335301303,0.00972222266958873,0.998611124609959,0.00763581553474069,-0.000916297896765172,-0.00397062394768
0,0.0347222241455659,0.0152777788063885,0.998611124609959,0.00946841109544039,-0.000916297896765172,-0.00580321997404099
0,0.0361111129898289,0.0111111115138517,0.99583334084345,0.00885754637420177,0.00610865233466029,0.000916297896765172
0,0.033333335301303,0.0138888899621255,0.998611124609959,0.00702495034784079,0.00244346098043024,-0.00397062394768
0,0.033333335301303,0.0125000003581147,0.991666665193688,0.00824668072164059,0.00122173049021512,-0.00946841109544039
0,0.0361111129898289,0.0152777788063885,0.99583334084345,0.0045814891345799,0.00610865233466029,-0.0045814891345799
0,0.03194444645704,0.0138888899621255,0.994444448960196,0.00427605677396059,0.00244346098043024,-0.00794124789535999
0,0.03194444645704,0.0152777788063885,0.99583334084345,0.00244346098043024,0.00641408516094089,-0.00305432616733015
0,0.03194444645704,0.00972222266958873,0.99583334084345,0.0103847095742822,-0.0021380283869803,-0.000305432622553781
0,0.03194444645704,0.00972222266958873,0.993055557076942,0.00855211354792118,0.00122173049021512,-0.00519235478714108
0,0.0361111129898289,0.0138888899621255,1.00000001649321,0.00305432616733015,0.00671951752156019,-0.000305432622553781
0,0.0347222241455659,0.0194444453391775,0.994444448960196,0.00610865233466029,0.00580321997404099,-0.00397062394768
0,0.0347222241455659,0.0152777788063885,0.993055557076942,0.0106901414692402,0.00519235478714108,-0.00397062394768
0,0.033333335301303,0.0152777788063885,0.99583334084345,0.0149661982432008,0.000916297896765172,-0.0045814891345799
0,0.03194444645704,0.0138888899621255,0.99583334084345,-0.00152716308366507,0.00488692196086049,0.00519235478714108
0,0.0347222241455659,0.00972222266958873,0.998611124609959,0.00885754637420177,-0.000610865245107561,-0.000610865245107561
0,0.0361111129898289,0.0111111115138517,1.00555558402623,0.00427605677396059,-0.000305432622553781,-0.0021380283869803
0,0.033333335301303,0.0152777788063885,1.00000001649321,0.00946841109544039,0.00183259579353034,-0.00519235478714108
0,0.0347222241455659,0.0125000003581147,1.00000001649321,0.00824668072164059,0.000305432622553781,-0.000916297896765172
0,0.0347222241455659,0.00972222266958873,1.00277780025972,0.00641408516094089,0.00702495034784079,0.00366519158706069
0,0.0347222241455659,0.00972222266958873,1.00277780025972,0.00916297826915979,0.0027488935738802,-0.0045814891345799
0,0.0375000018340919,0.0125000003581147,0.998611124609959,0.00397062394768,0.0045814891345799,-0.00610865233466029
0,0.0347222241455659,0.0111111115138517,0.997222232726705,0.00763581553474069,-0.00183259579353034,-0.000916297896765172
0,0.03194444645704,0.0152777788063885,1.00555558402623,0.00946841109544039,0.00183259579353034,-0.00244346098043024
0,0.0347222241455659,0.0111111115138517,1.00000001649321,0.01191187184304,0.00183259579353034,-0.00671951752156019
0,0.0347222241455659,0.0125000003581147,0.998611124609959,0.00977384392172098,0.0033597587607801,-0.00794124789535999
0,0.0347222241455659,0.0222222230277034,0.993055557076942,0.00427605677396059,0.00244346098043024,-0.00152716308366507
0,0.03194444645704,0.0152777788063885,0.990277773310434,0.00916297826915979,0.000305432622553781,-0.00305432616733015
0,0.0361111129898289,0.0180555564949145,0.99583334084345,0.00977384392172098,-0.00397062394768,-0.00549778714776039
0,0.0361111129898289,0.0166666676506515,0.99583334084345,0.00763581553474069,0.00244346098043024,-0.000305432622553781
0,0.03194444645704,0.0152777788063885,0.98888888142718,0.0109955742955208,0.0027488935738802,-0.00488692196086049
0,0.03194444645704,0.0152777788063885,1.00000001649321,0.00183259579353034,-0.00885754637420177,-0.000916297896765172
0,0.0361111129898289,0.0125000003581147,1.00138890837647,0.0146607663482428,-0.000610865245107561,0.0021380283869803
0,0.030555557612777,0.00972222266958873,0.990277773310434,0.0100792767480016,-0.00183259579353034,-0.00488692196086049
0,0.0347222241455659,0.00555555575692586,1.00694447590948,0.0106901414692402,0.00122173049021512,0.000610865245107561
0,0.03194444645704,0.0111111115138517,1.00416669214298,0.00610865233466029,0.000305432622553781,0.00580321997404099
0,0.0361111129898289,0.0125000003581147,0.99583334084345,0.00763581553474069,0.00152716308366507,-0.00305432616733015
0,0.0361111129898289,0.0125000003581147,1.00000001649321,0.00946841109544039,-0.00488692196086049,-0.00427605677396059
0,0.0388888906783549,0.0138888899621255,1.00000001649321,0.00427605677396059,0.00244346098043024,-0.00122173049021512
0,0.0388888906783549,0.0111111115138517,0.99583334084345,0.01191187184304,0.00549778714776039,-0.000916297896765172
0,0.0347222241455659,0.0111111115138517,0.99583334084345,0.011606439948082,0.00549778714776039,-0.0033597587607801
0,0.0347222241455659,0.0111111115138517,0.99583334084345,0.0033597587607801,0.00427605677396059,0.0027488935738802
0,0.033333335301303,0.0125000003581147,0.99583334084345,0.00641408516094089,0.00519235478714108,-0.000916297896765172
0,0.0361111129898289,0.0138888899621255,0.99583334084345,0.00855211354792118,0.00580321997404099,0.0021380283869803
0,0.0361111129898289,0.0166666676506515,0.979166735492117,0.00733038317412138,-0.000916297896765172,-0.00519235478714108
0,0.0388888906783549,0.0125000003581147,0.993055557076942,0.000610865245107561,0.00397062394768,0.00244346098043024
0,0.0361111129898289,0.0111111115138517,1.00000001649321,0.00885754637420177,0.0045814891345799,0.00946841109544039
0,0.03194444645704,0.0125000003581147,1.00138890837647,0.0045814891345799,0.000305432622553781,-0.00977384392172098
0,0.0361111129898289,0.00694444498106275,0.997222232726705,0.0027488935738802,-0.0021380283869803,-0.0021380283869803
0,0.0361111129898289,0.00972222266958873,0.99583334084345,0.00824668072164059,0.00305432616733015,-0.000916297896765172
0,0.0361111129898289,0.0125000003581147,0.99583334084345,0.000305432622553781,0.0033597587607801,-0.00641408516094089
0,0.0375000018340919,0.00972222266958873,0.99583334084345,0.00733038317412138,0.00733038317412138,0.00610865233466029
0,0.0375000018340919,0.0125000003581147,0.998611124609959,0.00733038317412138,0.00549778714776039,0.0045814891345799
0,0.0347222241455659,0.00972222266958873,1.00694447590948,0.00733038317412138,0.0045814891345799,-0.0033597587607801
0,0.03194444645704,0.0152777788063885,1.00277780025972,0.00977384392172098,-0.000610865245107561,0.00183259579353034
0,0.0361111129898289,0.0125000003581147,1.00000001649321,0.00427605677396059,0.00488692196086049,-0.00305432616733015
0,0.033333335301303,0.00833333382532574,1.00138890837647,0.00977384392172098,-0.00397062394768,-0.0021380283869803
0,0.0347222241455659,0.0111111115138517,1.00000001649321,0.0100792767480016,-0.00305432616733015,-0.000916297896765172
0,0.0347222241455659,0.0125000003581147,0.99583334084345,0.00702495034784079,-0.00122173049021512,-0.000305432622553781
0,0.0347222241455659,0.0111111115138517,0.993055557076942,0.0045814891345799,0.00488692196086049,-0.00916297826915979
0,0.0347222241455659,0.0111111115138517,0.993055557076942,0.0045814891345799,-0.00183259579353034,-0.0109955742955208
0,0.03194444645704,0.0138888899621255,0.998611124609959,0.00824668072164059,0.00366519158706069,-0.0131336031481624
0,0.0361111129898289,0.0138888899621255,0.99583334084345,0.0113010071218014,0.0027488935738802,-0.00244346098043024
0,0.0375000018340919,0.0180555564949145,0.997222232726705,0.00641408516094089,0.00152716308366507,0.00244346098043024
0,0.0361111129898289,0.0125000003581147,0.991666665193688,0.00733038317412138,-0.00427605677396059,-0.0027488935738802
0,0.0361111129898289,0.0152777788063885,1.00000001649321,0.011606439948082,-0.000610865245107561,-0.00122173049021512
0,0.0361111129898289,0.0152777788063885,1.00000001649321,0.00244346098043024,-0.00641408516094089,-0.00733038317412138
0,0.0347222241455659,0.0152777788063885,0.99583334084345,0.00977384392172098,0.00122173049021512,-0.000305432622553781
0,0.0347222241455659,0.0138888899621255,1.00000001649321,0.00671951752156019,-0.00152716308366507,-0.00244346098043024
0,0.0347222241455659,0.0138888899621255,1.00000001649321,0.00885754637420177,-0.00183259579353034,-0.0033597587607801
0,0.0388888906783549,0.0125000003581147,1.00555558402623,0.00580321997404099,0.00855211354792118,-0.00152716308366507
0,0.033333335301303,0.0125000003581147,1.00555558402623,0.0103847095742822,0.000916297896765172,-0.000916297896765172
0,0.030555557612777,0.0111111115138517,1.00277780025972,0.00641408516094089,0.00427605677396059,-0.00519235478714108
0,0.030555557612777,0.0180555564949145,1.00138890837647,0.0109955742955208,0.00580321997404099,-0.00702495034784079
0,0.033333335301303,0.0111111115138517,0.994444448960196,0.00641408516094089,0.00397062394768,0.000610865245107561
0,0.033333335301303,0.0111111115138517,0.994444448960196,0.0109955742955208,0.0045814891345799,0.00244346098043024
0,0.0347222241455659,0.0125000003581147,1.00000001649321,0.00610865233466029,-0.00152716308366507,-0.0021380283869803
0,0.03194444645704,0.0125000003581147,0.986111194908388,0.00366519158706069,0.00824668072164059,-0.00641408516094089
0,0.030555557612777,0.0250000007162294,0.991666665193688,0.0100792767480016,0.00427605677396059,-0.00519235478714108
0,0.03194444645704,0.0138888899621255,0.994444448960196,0.00488692196086049,-0.00671951752156019,-0.0103847095742822
0,0.033333335301303,0.0152777788063885,0.994444448960196,0.0109955742955208,0.000610865245107561,0.00397062394768
0,0.0347222241455659,0.0166666676506515,1.00138890837647,0.00488692196086049,0.0033597587607801,-0.00916297826915979
0,0.0361111129898289,0.0166666676506515,1.00416669214298,0.00885754637420177,0.00763581553474069,-0.00794124789535999
0,0.03194444645704,0.0194444453391775,0.99583334084345,0.00549778714776039,0.00244346098043024,-0.00427605677396059
0,0.03194444645704,0.0125000003581147,0.997222232726705,0.00305432616733015,0.00122173049021512,-0.00519235478714108
0,0.0361111129898289,0.0125000003581147,0.99583334084345,-0.000916297896765172,-0.0021380283869803,0.00305432616733015
0,0.0361111129898289,0.0125000003581147,1.00000001649321,0.0027488935738802,0.0045814891345799,-0.00305432616733015
0,0.0361111129898289,0.0125000003581147,0.998611124609959,0.00488692196086049,0.00122173049021512,0.0021380283869803
0,0.0361111129898289,0.0125000003581147,0.99583334084345,0.00488692196086049,0.0045814891345799,-0.00305432616733015
0,0.0347222241455659,0.0111111115138517,0.997222232726705,0.0021380283869803,0.00488692196086049,-0.00152716308366507
0,0.030555557612777,0.00972222266958873,0.990277773310434,0.00733038317412138,0.00397062394768,-0.00183259579353034
0,0.03194444645704,0.0111111115138517,0.990277773310434,0.00366519158706069,0.00824668072164059,-0.00763581553474069
0,0.0375000018340919,0.0152777788063885,0.997222232726705,0.01191187184304,-0.0027488935738802,-0.0033597587607801
0,0.0361111129898289,0.0125000003581147,1.00277780025972,0.00519235478714108,0.00610865233466029,-0.000916297896765172
0,0.0361111129898289,0.0125000003581147,0.99583334084345,0.00824668072164059,0.000305432622553781,-0.00427605677396059
0,0.0347222241455659,0.00972222266958873,1.00138890837647,0.00610865233466029,-0.000916297896765172,-0.00183259579353034
0,0.0361111129898289,0.0152777788063885,1.00277780025972,0.00916297826915979,0.000610865245107561,-0.0027488935738802
0,0.03194444645704,0.00972222266958873,1.00555558402623,0.00794124789535999,0.000916297896765172,-0.000610865245107561
0,0.033333335301303,0.0138888899621255,1.00000001649321,0.00580321997404099,0.00671951752156019,0.000305432622553781
0,0.0361111129898289,0.0138888899621255,1.00000001649321,0.0109955742955208,0.00855211354792118,-0.00641408516094089
0,0.03194444645704,0.0125000003581147,1.0125000434425,0.00580321997404099,0.00427605677396059,-0.000916297896765172
0,0.0361111129898289,0.0125000003581147,1.00555558402623,0.00855211354792118,-0.00397062394768,0.0027488935738802
0,0.033333335301303,0.0125000003581147,1.00000001649321,0.00488692196086049,-0.00183259579353034,0.0045814891345799
0,0.0361111129898289,0.0125000003581147,1.00138890837647,0.0103847095742822,0.000916297896765172,0.00549778714776039
0,0.029166668768514,0.00833333382532574,1.00277780025972,0.00549778714776039,-0.00397062394768,0.00122173049021512
0,0.03194444645704,0.00972222266958873,1.00694447590948,0.00549778714776039,0.0021380283869803,-0.000916297896765172
0,0.0361111129898289,0.00972222266958873,1.0125000434425,-0.00152716308366507,0.00305432616733015,0.000916297896765172
0,0.03194444645704,0.00972222266958873,0.997222232726705,0.0045814891345799,0.00122173049021512,0.00397062394768
0,0.033333335301303,0.00972222266958873,0.997222232726705,0.00916297826915979,0.0045814891345799,-0.0033597587607801
0,0.030555557612777,0.00972222266958873,0.993055557076942,0.00763581553474069,0.00763581553474069,-0.00183259579353034
0,0.0361111129898289,0.0125000003581147,0.998611124609959,0.011606439948082,0.00183259579353034,-0.0027488935738802
0,0.0388888906783549,0.00694444498106275,0.99583334084345,0.00824668072164059,0.0027488935738802,-0.0027488935738802
0,0.0388888906783549,0.00694444498106275,0.99583334084345,0.00549778714776039,0.00397062394768,-0.00183259579353034
0,0.030555557612777,0.00972222266958873,0.997222232726705,0.0045814891345799,0.00397062394768,-0.0045814891345799
0,0.03194444645704,0.0152777788063885,1.00277780025972,0.00885754637420177,0.00183259579353034,-0.00305432616733015
0,0.027777779924251,0.0222222230277034,1.00000001649321,0.00488692196086049,0.00824668072164059,-0.00152716308366507
0,0.03194444645704,0.0125000003581147,1.00000001649321,0.00977384392172098,0.000916297896765172,-0.00366519158706069
0,0.03194444645704,0.00972222266958873,1.0125000434425,0.00824668072164059,0.0027488935738802,-0.0045814891345799
0,0.03194444645704,0.0125000003581147,1.00277780025972,0.00488692196086049,-0.00183259579353034,-0.0021380283869803
0,0.027777779924251,0.0152777788063885,1.00416669214298,0.00305432616733015,0.00580321997404099,-0.000305432622553781
0,0.033333335301303,0.0166666676506515,0.99583334084345,0.00641408516094089,0.00519235478714108,-0.00152716308366507
0,0.0361111129898289,0.0138888899621255,0.993055557076942,0.00580321997404099,0.00427605677396059,0.0021380283869803
0,0.0361111129898289,0.0138888899621255,0.993055557076942,0.000305432622553781,0.0021380283869803,0.0021380283869803
0,0.03194444645704,0.0152777788063885,1.00000001649321,0.0027488935738802,0.000916297896765172,-0.00397062394768
0,0.0361111129898289,0.0166666676506515,1.00277780025972,0.00794124789535999,-0.000305432622553781,-0.00305432616733015
0,0.0347222241455659,0.0125000003581147,0.99583334084345,0.00885754637420177,-0.000610865245107561,-0.000305432622553781
0,0.033333335301303,0.0125000003581147,1.00000001649321,0.0113010071218014,-0.000610865245107561,-0.000916297896765172
0,0.0375000018340919,0.0152777788063885,0.99583334084345,0.0106901414692402,-0.00152716308366507,0.00305432616733015
0,0.0361111129898289,0.00833333382532574,1.00972225967599,0.00519235478714108,-0.00641408516094089,-0.000916297896765172
0,0.030555557612777,0.00972222266958873,0.993055557076942,0.00977384392172098,0.00183259579353034,0.00397062394768
0,0.033333335301303,0.0152777788063885,1.00000001649321,0.00427605677396059,0.0122173046693206,-0.000610865245107561
0,0.033333335301303,0.00833333382532574,1.00000001649321,0.00366519158706069,0.00397062394768,-0.00641408516094089
0,0.03194444645704,0.0125000003581147,1.00277780025972,0.00671951752156019,0.0033597587607801,-0.00488692196086049
0,0.03194444645704,0.0138888899621255,0.98888888142718,0.00580321997404099,-0.00244346098043024,-0.00610865233466029
0,0.03194444645704,0.0180555564949145,1.00277780025972,0.00427605677396059,0.00244346098043024,0.00244346098043024
0,0.030555557612777,0.0194444453391775,0.998611124609959,0.00366519158706069,-0.00427605677396059,-0.00641408516094089
0,0.0347222241455659,0.0138888899621255,0.99583334084345,0.00549778714776039,0.00427605677396059,-0.0033597587607801
0,0.03194444645704,0.0152777788063885,0.99583334084345,0.0021380283869803,-0.0045814891345799,-0.00427605677396059
0,0.0347222241455659,0.0125000003581147,0.993055557076942,0.000916297896765172,0.00152716308366507,-0.00549778714776039
0,0.0361111129898289,0.0125000003581147,0.997222232726705,0.00641408516094089,0.0027488935738802,-0.00549778714776039
0,0.0361111129898289,0.0152777788063885,1.00000001649321,0.00702495034784079,0.000305432622553781,-0.00244346098043024
0,0.03194444645704,0.0152777788063885,0.998611124609959,0.00305432616733015,0.00183259579353034,-0.00671951752156019
0,0.033333335301303,0.0125000003581147,0.99583334084345,0.00580321997404099,-0.000916297896765172,-0.00977384392172098
0,0.03194444645704,0.0138888899621255,0.993055557076942,-0.000305432622553781,0.00152716308366507,-0.0033597587607801
0,0.0347222241455659,0.0125000003581147,1.00138890837647,0.00794124789535999,0.00763581553474069,-0.00122173049021512
0,0.033333335301303,0.0152777788063885,0.998611124609959,0.00885754637420177,-0.000916297896765172,-0.000305432622553781
0,0.03194444645704,0.0166666676506515,1.00000001649321,0.00671951752156019,-0.0033597587607801,-0.00397062394768
0,0.03194444645704,0.00972222266958873,1.00555558402623,0.00641408516094089,0.0033597587607801,-0.00152716308366507
0,0.03194444645704,0.0125000003581147,1.00277780025972,0.00794124789535999,0.00183259579353034,0.000305432622553781
0,0.0388888906783549,0.0152777788063885,1.00000001649321,0.00885754637420177,0.00519235478714108,-0.000305432622553781
0,0.0388888906783549,0.0152777788063885,0.991666665193688,0.00855211354792118,0.0027488935738802,0.000305432622553781
0,0.0361111129898289,0.0194444453391775,0.993055557076942,0.00702495034784079,0.000610865245107561,0.000610865245107561
0,0.0361111129898289,0.0194444453391775,0.993055557076942,0.00855211354792118,0.00641408516094089,-0.0027488935738802
0,0.033333335301303,0.00972222266958873,0.994444448960196,0.00397062394768,0.00549778714776039,-0.00152716308366507
0,0.0361111129898289,0.00972222266958873,0.990277773310434,0.0131336031481624,0.000916297896765172,-0.00702495034784079
0,0.0375000018340919,0.0125000003581147,0.99583334084345,0.0122173046693206,0.00427605677396059,-0.00641408516094089
0,0.0361111129898289,0.0111111115138517,1.00416669214298,0.00641408516094089,0.0027488935738802,-0.00641408516094089
0,0.0347222241455659,0.0125000003581147,1.00694447590948,0.011606439948082,0.00519235478714108,-0.0103847095742822
0,0.0347222241455659,0.0138888899621255,1.00694447590948,0.00794124789535999,0.00885754637420177,0.00855211354792118
0,0.03194444645704,0.0152777788063885,1.00694447590948,0.00244346098043024,0.00244346098043024,-0.00366519158706069
0,0.0347222241455659,0.0152777788063885,1.00416669214298,0.0113010071218014,-0.00183259579353034,-0.00244346098043024
0,0.0375000018340919,0.00972222266958873,0.991666665193688,0.00671951752156019,0.000610865245107561,-0.00824668072164059
0,0.0375000018340919,0.00972222266958873,0.991666665193688,0.00366519158706069,0.00580321997404099,-0.0033597587607801
0,0.0361111129898289,0.0111111115138517,0.990277773310434,0.00916297826915979,0.00610865233466029,-0.00671951752156019
0,0.0347222241455659,0.0152777788063885,0.99583334084345,0.0109955742955208,0.00671951752156019,-0.00366519158706069
0,0.0375000018340919,0.0138888899621255,1.00000001649321,0.00702495034784079,0.000610865245107561,0.000305432622553781
0,0.0361111129898289,0.0125000003581147,1.00694447590948,0.0140499006956816,-0.000610865245107561,-0.00488692196086049
0,0.0347222241455659,0.0111111115138517,0.99583334084345,0.00580321997404099,-0.0021380283869803,0.00549778714776039
0,0.033333335301303,0.0125000003581147,0.986111194908388,0.00885754637420177,0.00244346098043024,-0.00152716308366507
0,0.03194444645704,0.0166666676506515,0.994444448960196,0.00733038317412138,0.00244346098043024,-0.00366519158706069
0,0.03194444645704,0.0125000003581147,0.98888888142718,0.0021380283869803,0.0021380283869803,-0.000916297896765172
0,0.03194444645704,0.0152777788063885,0.986111194908388,0.00885754637420177,0.00152716308366507,-0.00305432616733015
0,0.029166668768514,0.0166666676506515,0.993055557076942,0.00977384392172098,0.00733038317412138,-0.00580321997404099
0,0.03194444645704,0.0125000003581147,0.998611124609959,0.00488692196086049,-0.000305432622553781,-0.00183259579353034
0,0.0361111129898289,0.0138888899621255,0.983333411141879,0.00946841109544039,0.00183259579353034,0.0045814891345799
0,0.0361111129898289,0.0138888899621255,0.983333411141879,0.00885754637420177,-0.00244346098043024,0.000305432622553781
0,0.0361111129898289,0.0166666676506515,1.00000001649321,0.00916297826915979,0.00488692196086049,-0.00397062394768
0,0.0361111129898289,0.0166666676506515,1.00000001649321,0.00549778714776039,0.00366519158706069,-0.00580321997404099
0,0.03194444645704,0.0152777788063885,0.99583334084345,0.00610865233466029,-0.00152716308366507,-0.00183259579353034
0,0.033333335301303,0.0125000003581147,0.997222232726705,0.0027488935738802,0.00519235478714108,0.0027488935738802
0,0.033333335301303,0.0138888899621255,0.994444448960196,0.00152716308366507,0.000305432622553781,0.00488692196086049
0,0.030555557612777,0.0138888899621255,0.99583334084345,0.00488692196086049,0.00794124789535999,-0.00183259579353034
0,0.0347222241455659,0.0194444453391775,0.993055557076942,0.00519235478714108,-0.00244346098043024,0.000610865245107561
0,0.0375000018340919,0.0138888899621255,0.998611124609959,0.00610865233466029,0.00427605677396059,0.000610865245107561
0,0.0375000018340919,0.0152777788063885,0.993055557076942,0.00244346098043024,0.00366519158706069,-0.00916297826915979
0,0.033333335301303,0.0152777788063885,0.993055557076942,0.00855211354792118,-0.000916297896765172,-0.00610865233466029
0,0.0361111129898289,0.0152777788063885,1.00000001649321,0.00916297826915979,0.0045814891345799,-0.00122173049021512
0,0.029166668768514,0.0152777788063885,1.00000001649321,0.00702495034784079,-0.000305432622553781,-0.0033597587607801
0,0.03194444645704,0.0152777788063885,0.997222232726705,0.00702495034784079,0.0033597587607801,-0.0027488935738802
0,0.0388888906783549,0.0166666676506515,0.994444448960196,0.00488692196086049,0.00183259579353034,-0.0027488935738802
0,0.0347222241455659,0.0180555564949145,0.997222232726705,0.0122173046693206,0.0021380283869803,0.00366519158706069
0,0.0361111129898289,0.0152777788063885,0.99583334084345,0.0106901414692402,-0.0033597587607801,-0.00244346098043024
0,0.0347222241455659,0.0125000003581147,0.993055557076942,0.00794124789535999,0.00916297826915979,-0.00549778714776039
0,0.030555557612777,0.0125000003581147,0.993055557076942,0.00549778714776039,-0.0027488935738802,0.00641408516094089
0,0.03194444645704,0.0152777788063885,0.99583334084345,0.00885754637420177,0.0021380283869803,-0.00122173049021512
0,0.03194444645704,0.00972222266958873,1.00138890837647,0.00885754637420177,0.0033597587607801,-0.0027488935738802
0,0.03194444645704,0.0152777788063885,0.99583334084345,0.00733038317412138,0.00305432616733015,0.0045814891345799
0,0.027777779924251,0.0111111115138517,0.990277773310434,0.00610865233466029,0.0027488935738802,-0.00824668072164059
0,0.029166668768514,0.0152777788063885,1.00000001649321,0.01191187184304,0.000916297896765172,-0.000610865245107561
0,0.029166668768514,0.0111111115138517,1.00000001649321,0.00580321997404099,0.000610865245107561,0.00122173049021512
0,0.0388888906783549,0.0125000003581147,0.993055557076942,0.00610865233466029,0.00641408516094089,0.00488692196086049
0,0.0347222241455659,0.0111111115138517,0.998611124609959,0.01191187184304,-0.00397062394768,0.00885754637420177
0,0.03194444645704,0.00833333382532574,0.998611124609959,0.0045814891345799,0.0033597587607801,-0.0045814891345799
0,0.03194444645704,0.00833333382532574,0.998611124609959,0.00610865233466029,0.00152716308366507,0.00885754637420177
0,0.03194444645704,0.0125000003581147,1.00000001649321,0.00977384392172098,-0.00152716308366507,0.0045814891345799
0,0.03194444645704,0.0208333341834404,0.991666665193688,0.01191187184304,0.00427605677396059,-0.00488692196086049
0,0.0361111129898289,0.0125000003581147,0.993055557076942,0.00305432616733015,0.0033597587607801,-0.00183259579353034
0,0.0361111129898289,0.0111111115138517,0.998611124609959,0.00519235478714108,-0.000610865245107561,0.00244346098043024
0,0.033333335301303,0.0125000003581147,1.00000001649321,0.00885754637420177,0.00152716308366507,0.00152716308366507
0,0.029166668768514,0.0125000003581147,0.99583334084345,0.0033597587607801,0.000916297896765172,-0.00733038317412138
0,0.03194444645704,0.0111111115138517,0.986111194908388,0.0128281703218818,0.00519235478714108,-0.0033597587607801
0,0.030555557612777,0.0125000003581147,0.998611124609959,0.00977384392172098,-0.000610865245107561,0.000305432622553781
0,0.026388891079988,0.0180555564949145,1.00000001649321,0.0027488935738802,0.000610865245107561,-0.00671951752156019
0,0.0347222241455659,0.0125000003581147,0.99583334084345,0.00824668072164059,-0.00183259579353034,0.000916297896765172
0,0.033333335301303,0.0152777788063885,1.00277780025972,0.00671951752156019,0.00610865233466029,0.00152716308366507
0,0.03194444645704,0.0194444453391775,0.98888888142718,0.0106901414692402,0.00855211354792118,0.00549778714776039
0,0.0347222241455659,0.0152777788063885,0.991666665193688,0.00855211354792118,0.0045814891345799,-0.00122173049021512
0,0.0347222241455659,0.0152777788063885,0.991666665193688,0.00763581553474069,0.0027488935738802,-0.000916297896765172
0,0.0347222241455659,0.0125000003581147,1.00138890837647,0.00702495034784079,0.00305432616733015,0.00152716308366507
0,0.0347222241455659,0.0138888899621255,0.991666665193688,0.00824668072164059,-0.00549778714776039,-0.00641408516094089
0,0.0347222241455659,0.0138888899621255,0.991666665193688,0.00702495034784079,0.00152716308366507,0.0033597587607801
0,0.0361111129898289,0.0125000003581147,1.00138890837647,0.00671951752156019,0.00366519158706069,-0.0033597587607801
0,0.03194444645704,0.0194444453391775,0.993055557076942,0.00580321997404099,0.000305432622553781,0.00366519158706069
0,0.03194444645704,0.0194444453391775,0.993055557076942,0.00397062394768,0.00763581553474069,0.00580321997404099
0,0.030555557612777,0.0194444453391775,0.990277773310434,0.00610865233466029,0.000610865245107561,-0.00671951752156019
0,0.0375000018340919,0.0166666676506515,0.993055557076942,0.00824668072164059,0.00671951752156019,0.00122173049021512
0,0.0361111129898289,0.0111111115138517,0.997222232726705,0.00671951752156019,-0.00122173049021512,-0.00519235478714108
0,0.0361111129898289,0.00555555575692586,0.99583334084345,0.00671951752156019,-0.00305432616733015,-0.00397062394768
0,0.033333335301303,0.00555555575692586,0.997222232726705,0.00580321997404099,-0.000610865245107561,-0.00122173049021512
0,0.03194444645704,0.0125000003581147,0.998611124609959,0.0161879286170006,0.000916297896765172,-0.00580321997404099
0,0.0347222241455659,0.0138888899621255,0.993055557076942,0.00427605677396059,0.00610865233466029,0.000305432622553781
0,0.0361111129898289,0.0152777788063885,1.00000001649321,0.0103847095742822,0.00397062394768,0.0033597587607801
0,0.03194444645704,0.0138888899621255,0.998611124609959,0.0122173046693206,0.000610865245107561,-0.00305432616733015
0,0.0402777795226179,0.0138888899621255,0.99583334084345,0.00519235478714108,0.00397062394768,-0.00519235478714108
0,0.0361111129898289,0.0180555564949145,1.00277780025972,0.0045814891345799,0.00427605677396059,0.0033597587607801
0,0.0361111129898289,0.0125000003581147,0.994444448960196,0.0027488935738802,-0.00519235478714108,-0.00641408516094089
0,0.033333335301303,0.0138888899621255,0.99583334084345,0.00641408516094089,-0.00152716308366507,-0.0021380283869803
0,0.0347222241455659,0.0138888899621255,0.99583334084345,0.00824668072164059,-0.000916297896765172,0.00397062394768
0,0.033333335301303,0.0125000003581147,0.997222232726705,0.00427605677396059,-0.0033597587607801,0.00305432616733015
0,0.0347222241455659,0.0138888899621255,0.993055557076942,0.00641408516094089,0.0045814891345799,-0.00244346098043024
0,0.0347222241455659,0.0125000003581147,1.00000001649321,0.00366519158706069,0.00488692196086049,-0.00977384392172098
0,0.030555557612777,0.0208333341834404,0.993055557076942,0.00641408516094089,-0.000916297896765172,0.00183259579353034
0,0.03194444645704,0.0180555564949145,0.994444448960196,0.01191187184304,0.00519235478714108,-0.000610865245107561
0,0.033333335301303,0.0152777788063885,0.997222232726705,0.0103847095742822,-0.0045814891345799,-0.000305432622553781
0,0.0347222241455659,0.0208333341834404,1.00555558402623,0.013744467869401,0.00733038317412138,-0.0045814891345799
0,0.0347222241455659,0.0152777788063885,0.994444448960196,0.0045814891345799,0.00580321997404099,-0.0100792767480016
0,0.030555557612777,0.0125000003581147,0.993055557076942,0.0103847095742822,-0.0027488935738802,-0.000916297896765172
0,0.03194444645704,0.0125000003581147,0.994444448960196,0.00488692196086049,-0.0033597587607801,-0.00855211354792118
0,0.0361111129898289,0.0166666676506515,0.99583334084345,0.00916297826915979,0.00244346098043024,-0.00305432616733015
0,0.03194444645704,0.0125000003581147,0.998611124609959,0.00794124789535999,0.00122173049021512,-0.0045814891345799
0,0.03194444645704,0.0125000003581147,0.99583334084345,0.0033597587607801,0.0045814891345799,0.00183259579353034
0,0.03194444645704,0.0125000003581147,0.997222232726705,0.00885754637420177,0.00580321997404099,0.0033597587607801
0,0.0347222241455659,0.0125000003581147,0.998611124609959,0.00824668072164059,0.0033597587607801,-0.00152716308366507
0,0.0361111129898289,0.0125000003581147,1.00833336779274,0.00733038317412138,-0.0027488935738802,-0.00427605677396059
0,0.0347222241455659,0.0138888899621255,1.00138890837647,0.0109955742955208,0.000610865245107561,-0.00427605677396059
0,0.030555557612777,0.0138888899621255,1.00277780025972,0.0027488935738802,-0.000610865245107561,-0.000610865245107561
0,0.029166668768514,0.0194444453391775,0.990277773310434,0.00366519158706069,0.00305432616733015,-0.000916297896765172
0,0.03194444645704,0.0138888899621255,0.998611124609959,0.0106901414692402,0.0045814891345799,-0.00397062394768
0,0.033333335301303,0.0180555564949145,1.00277780025972,0.00488692196086049,0.00427605677396059,0.00305432616733015
0,0.0361111129898289,0.0138888899621255,0.993055557076942,0.00366519158706069,-0.000916297896765172,-0.00580321997404099
0,0.0361111129898289,0.0152777788063885,0.993055557076942,0.00549778714776039,0.00549778714776039,0.000610865245107561
0,0.0361111129898289,0.0125000003581147,0.99583334084345,0.00702495034784079,-0.00152716308366507,-0.0033597587607801
0,0.03194444645704,0.0125000003581147,0.997222232726705,0.00824668072164059,-0.000610865245107561,0.0027488935738802
0,0.029166668768514,0.0138888899621255,0.980555627375371,0.00305432616733015,0.000610865245107561,-0.0027488935738802
0,0.030555557612777,0.0111111115138517,0.98888888142718,0.00916297826915979,-0.000610865245107561,-0.00152716308366507
0,0.0347222241455659,0.0166666676506515,0.99583334084345,0.00152716308366507,0.00671951752156019,0.0027488935738802
0,0.03194444645704,0.0111111115138517,1.00138890837647,0.00580321997404099,0.00549778714776039,-0.000610865245107561
0,0.030555557612777,0.0125000003581147,0.997222232726705,0.0045814891345799,0.0027488935738802,-0.000305432622553781
0,0.030555557612777,0.0138888899621255,0.994444448960196,0.00549778714776039,0.000916297896765172,-0.00305432616733015
0,0.03194444645704,0.00555555575692586,0.997222232726705,0.00794124789535999,-0.00183259579353034,0.00488692196086049
0,0.0375000018340919,0.0125000003581147,0.99583334084345,0.0109955742955208,0.00183259579353034,0.00916297826915979
0,0.0347222241455659,0.00972222266958873,0.991666665193688,0.0103847095742822,0.00366519158706069,-0.00610865233466029
0,0.0361111129898289,0.0125000003581147,1.00000001649321,0.00733038317412138,0.00824668072164059,-0.000916297896765172
0,0.0388888906783549,0.0180555564949145,0.994444448960196,0.00244346098043024,0.00305432616733015,0.00305432616733015
0,0.0388888906783549,0.0180555564949145,0.993055557076942,0.00916297826915979,-0.000610865245107561,-0.00733038317412138
0,0.0347222241455659,0.0152777788063885,0.993055557076942,0.00519235478714108,-0.00397062394768,0.000610865245107561
0,0.0347222241455659,0.00972222266958873,1.00416669214298,0.00397062394768,-0.00671951752156019,-0.00427605677396059
0,0.030555557612777,0.00972222266958873,1.00277780025972,0.00794124789535999,0.0045814891345799,0.00183259579353034
0,0.03194444645704,0.00972222266958873,0.994444448960196,0.00977384392172098,0.0045814891345799,0.00183259579353034
0,0.0361111129898289,0.0152777788063885,0.99583334084345,0.00977384392172098,0.00702495034784079,-0.00671951752156019
0,0.0347222241455659,0.0111111115138517,0.994444448960196,0.00427605677396059,0.00549778714776039,-0.0045814891345799
0,0.0347222241455659,0.0111111115138517,0.994444448960196,0.00397062394768,0.000305432622553781,-0.00397062394768
0,0.03194444645704,0.0125000003581147,1.00138890837647,0.00824668072164059,0.000916297896765172,-0.000305432622553781
0,0.03194444645704,0.0125000003581147,1.00138890837647,0.00366519158706069,0.00183259579353034,0.00549778714776039
0,0.0402777795226179,0.0152777788063885,1.00000001649321,0.00641408516094089,-0.00488692196086049,0.00122173049021512
0,0.0375000018340919,0.0152777788063885,1.00138890837647,0.00824668072164059,0.0033597587607801,-0.0033597587607801
0,0.033333335301303,0.0138888899621255,0.998611124609959,0.011606439948082,0.000916297896765172,-0.0033597587607801
0,0.033333335301303,0.0166666676506515,0.997222232726705,0.00397062394768,0.000305432622553781,-0.00671951752156019
0,0.03194444645704,0.0111111115138517,0.998611124609959,0.00610865233466029,-0.00122173049021512,-0.00397062394768
0,0.0347222241455659,0.0152777788063885,0.997222232726705,0.00946841109544039,-0.000916297896765172,0.00183259579353034
0,0.0347222241455659,0.0138888899621255,0.99583334084345,0.00549778714776039,-0.00152716308366507,-0.00366519158706069
0,0.0347222241455659,0.0138888899621255,0.99583334084345,0.013744467869401,0.000916297896765172,-0.00549778714776039
0,0.033333335301303,0.0125000003581147,1.00138890837647,0.0106901414692402,0.0021380283869803,-0.00580321997404099
0,0.029166668768514,0.0152777788063885,0.98888888142718,0.00519235478714108,-0.00427605677396059,0.00855211354792118
0,0.03194444645704,0.0152777788063885,0.994444448960196,0.00916297826915979,-0.00549778714776039,-0.00946841109544039
0,0.029166668768514,0.0125000003581147,1.00277780025972,0.00488692196086049,0.000916297896765172,-0.00244346098043024
0,0.029166668768514,0.0125000003581147,1.00277780025972,0.00488692196086049,-0.00152716308366507,-0.00183259579353034
0,0.0347222241455659,0.00694444498106275,0.997222232726705,0.00794124789535999,0.00733038317412138,-0.00702495034784079
0,0.030555557612777,0.0125000003581147,0.99583334084345,0.0109955742955208,0.00610865233466029,-0.0033597587607801
0,0.03194444645704,0.0111111115138517,0.994444448960196,0.0033597587607801,0.0045814891345799,0.00183259579353034
0,0.0347222241455659,0.00833333382532574,0.99583334084345,0.00794124789535999,0.00305432616733015,-0.000610865245107561
0,0.03194444645704,0.0138888899621255,0.993055557076942,0.00977384392172098,0.00397062394768,-0.0021380283869803
0,0.03194444645704,0.0138888899621255,0.993055557076942,0.00671951752156019,0.00488692196086049,-0.00671951752156019
0,0.030555557612777,0.0138888899621255,1.00138890837647,0.00824668072164059,0.0045814891345799,-0.00519235478714108
0,0.0361111129898289,0.00972222266958873,0.993055557076942,0.00702495034784079,0.0021380283869803,0.0045814891345799
0,0.03194444645704,0.0125000003581147,0.99583334084345,0.00763581553474069,0.00244346098043024,-0.0021380283869803
0,0.033333335301303,0.0138888899621255,0.993055557076942,0.00641408516094089,0.00366519158706069,0.000305432622553781
0,0.0361111129898289,0.00972222266958873,1.00000001649321,0.0033597587607801,-0.000916297896765172,-0.00305432616733015
0,0.0347222241455659,0.00972222266958873,0.997222232726705,0.00610865233466029,0.00488692196086049,-0.000305432622553781
0,0.03194444645704,0.0111111115138517,0.99583334084345,0.000916297896765172,0.00671951752156019,-0.00671951752156019
0,0.03194444645704,0.00694444498106275,0.99583334084345,0.00397062394768,0.00427605677396059,0.00122173049021512
0,0.033333335301303,0.00972222266958873,0.993055557076942,0.00549778714776039,-0.0033597587607801,0.000610865245107561
0,0.033333335301303,0.00833333382532574,1.00000001649321,0.01191187184304,-0.00152716308366507,0.00702495034784079
0,0.03194444645704,0.00972222266958873,0.98888888142718,0.00794124789535999,0.00641408516094089,0.00122173049021512
0,0.0361111129898289,0.0138888899621255,0.998611124609959,0.00824668072164059,-0.00244346098043024,-0.0027488935738802
0,0.0375000018340919,0.0138888899621255,1.00277780025972,0.00671951752156019,0.00397062394768,-0.00244346098043024
0,0.0347222241455659,0.0138888899621255,0.99583334084345,0.0167987942695618,-0.000916297896765172,0.00549778714776039
0,0.0375000018340919,0.0152777788063885,1.00000001649321,0.0109955742955208,-0.00244346098043024,-0.00733038317412138
0,0.0347222241455659,0.00972222266958873,0.997222232726705,0.00641408516094089,0.0027488935738802,0.00610865233466029
0,0.0361111129898289,0.0125000003581147,0.994444448960196,0.00671951752156019,0.00427605677396059,-0.00519235478714108
0,0.033333335301303,0.0166666676506515,0.99583334084345,0.0027488935738802,-0.00305432616733015,-0.00183259579353034
0,0.03194444645704,0.0125000003581147,1.00138890837647,0.00733038317412138,0.00397062394768,-0.00488692196086049
0,0.0402777795226179,0.0125000003581147,1.00555558402623,0.0109955742955208,-0.0021380283869803,0.00305432616733015
0,0.0361111129898289,0.0138888899621255,1.00277780025972,0.00763581553474069,0.00977384392172098,-0.00824668072164059
0,0.03194444645704,0.0166666676506515,0.998611124609959,0.01191187184304,-0.00244346098043024,-0.000305432622553781
0,0.03194444645704,0.00833333382532574,0.993055557076942,0.011606439948082,0.00366519158706069,0.00244346098043024
0,0.03194444645704,0.0138888899621255,1.00000001649321,0.0113010071218014,0.0021380283869803,0.000916297896765172
0,0.033333335301303,0.0125000003581147,0.997222232726705,0.00916297826915979,-0.0021380283869803,-0.0027488935738802
0,0.0347222241455659,0.0111111115138517,0.997222232726705,0.00763581553474069,-0.00305432616733015,-0.00397062394768
0,0.033333335301303,0.0138888899621255,1.00000001649321,0.00397062394768,0.0021380283869803,-0.00183259579353034
0,0.0388888906783549,0.0152777788063885,0.997222232726705,0.00366519158706069,0.000916297896765172,-0.00610865233466029
0,0.033333335301303,0.0125000003581147,1.00000001649321,0.00885754637420177,-0.000916297896765172,-0.00427605677396059
0,0.0375000018340919,0.00694444498106275,0.98888888142718,0.00549778714776039,0.00305432616733015,-0.000916297896765172
0,0.03194444645704,0.0152777788063885,0.99583334084345,0.00702495034784079,0.0027488935738802,-0.00519235478714108
0,0.0361111129898289,0.00972222266958873,1.00277780025972,0.00763581553474069,0.00427605677396059,0.00366519158706069
0,0.0361111129898289,0.0152777788063885,0.998611124609959,0.00855211354792118,0.00763581553474069,-0.00488692196086049
0,0.03194444645704,0.0125000003581147,0.99583334084345,0.00641408516094089,0.00122173049021512,0.00488692196086049
0,0.03194444645704,0.0166666676506515,0.990277773310434,0.00763581553474069,-0.00183259579353034,0.0045814891345799
0,0.0361111129898289,0.0138888899621255,0.987499989543926,0.00946841109544039,-0.00183259579353034,0.00152716308366507
0,0.0347222241455659,0.0125000003581147,1.00000001649321,0.00824668072164059,-0.00427605677396059,0.00244346098043024
0,0.030555557612777,0.0125000003581147,1.00138890837647,0.00763581553474069,0.00671951752156019,0.00122173049021512
0,0.03194444645704,0.0125000003581147,0.994444448960196,0.0113010071218014,0.00488692196086049,0.00397062394768
0,0.033333335301303,0.0152777788063885,1.00277780025972,0.00305432616733015,0.00366519158706069,-0.00366519158706069
0,0.033333335301303,0.0125000003581147,0.98888888142718,-0.00183259579353034,0.00305432616733015,-0.00427605677396059
0,0.033333335301303,0.0125000003581147,0.98888888142718,0.0106901414692402,0.00183259579353034,-0.000610865245107561
0,0.0361111129898289,0.0152777788063885,0.993055557076942,0.00946841109544039,0.00152716308366507,0.000305432622553781
0,0.0361111129898289,0.0152777788063885,0.993055557076942,0.00580321997404099,-0.0033597587607801,-0.00488692196086049
0,0.033333335301303,0.0152777788063885,0.99583334084345,0.0109955742955208,0.00397062394768,-0.00397062394768
0,0.03194444645704,0.0138888899621255,0.998611124609959,0.00855211354792118,0.00397062394768,-0.00671951752156019
0,0.03194444645704,0.0152777788063885,0.993055557076942,0.0128281703218818,0.00488692196086049,-0.00305432616733015
0,0.03194444645704,0.0125000003581147,0.99583334084345,0.00488692196086049,0.00397062394768,-0.00580321997404099
0,0.029166668768514,0.0125000003581147,0.986111194908388,0.00916297826915979,0.00916297826915979,-0.00702495034784079
0,0.0347222241455659,0.0152777788063885,1.00000001649321,0.00519235478714108,0.00671951752156019,-0.0027488935738802
0,0.030555557612777,0.0138888899621255,1.00694447590948,0.00946841109544039,0.00305432616733015,-0.00122173049021512
0,0.03194444645704,0.0152777788063885,0.98888888142718,0.0113010071218014,0.00397062394768,-0.0033597587607801
0,0.030555557612777,0.0138888899621255,1.00000001649321,0.0045814891345799,0.000610865245107561,-0.00519235478714108
0,0.0361111129898289,0.0180555564949145,0.99583334084345,0.0045814891345799,0.0027488935738802,-0.0106901414692402
0,0.03194444645704,0.0125000003581147,0.998611124609959,0.00427605677396059,0.00152716308366507,-0.00549778714776039
0,0.03194444645704,0.0138888899621255,0.984722303025134,0.0122173046693206,-0.00244346098043024,0.00580321997404099
0,0.03194444645704,0.0166666676506515,1.00277780025972,0.0033597587607801,0.0021380283869803,0.0021380283869803
0,0.03194444645704,0.0125000003581147,1.00277780025972,0.00916297826915979,0.0021380283869803,0.00183259579353034
0,0.03194444645704,0.0208333341834404,0.997222232726705,0.00671951752156019,-0.00488692196086049,-0.00244346098043024
0,0.0361111129898289,0.0125000003581147,0.99583334084345,0.00549778714776039,0.0021380283869803,-0.00488692196086049
0,0.03194444645704,0.0194444453391775,0.983333411141879,0.00794124789535999,-0.00305432616733015,-0.0021380283869803
0,0.033333335301303,0.0111111115138517,1.00277780025972,0.0045814891345799,0.00397062394768,-0.00794124789535999
0,0.033333335301303,0.0125000003581147,1.00000001649321,0.00641408516094089,0.000305432622553781,0.00183259579353034
0,0.033333335301303,0.00972222266958873,1.00277780025972,0.00671951752156019,0.00244346098043024,-0.00733038317412138
0,0.03194444645704,0.00972222266958873,0.998611124609959,0.00885754637420177,0.00183259579353034,-0.00427605677396059
0,0.026388891079988,0.0125000003581147,0.98888888142718,0.00397062394768,0.0045814891345799,-0.00824668072164059
0,0.0361111129898289,0.0152777788063885,1.00000001649321,0.00519235478714108,0.00580321997404099,0.00366519158706069
0,0.0569444456537738,0.03194444645704,0.984722303025134,0.105374254286289,0.71318519115448,0.0354301854968071
0,0.00277777787846293,0.0250000007162294,1.06250005399193,0.0167987942695618,0.140193566679955,0.0100792767480016
0,0.0194444453391775,0.00138888893923146,1.01527782720901,-0.00122173049021512,-0.027488935738802,-0.0109955742955208
0,0.0125000003581147,0.0166666676506515,1.00972225967599,0.0140499006956816,0.0870482996106148,-0.00305432616733015
0,0.0194444453391775,0.00972222266958873,0.99583334084345,-0.00671951752156019,-0.0479529201984406,-0.00794124789535999
0,0.0152777788063885,0.0152777788063885,0.994444448960196,0.0164933614432812,0.0342084541916847,-0.0033597587607801
0,0.0222222230277034,0.0152777788063885,1.00555558402623,0.000916297896765172,-0.0207694191485643,-0.00366519158706069
0,0.0152777788063885,0.0180555564949145,1.00277780025972,0.0146607663482428,0.096211276948452,0.00152716308366507
0,0.0152777788063885,0.0152777788063885,1.00138890837647,0.01191187184304,0.00610865233466029,0.000610865245107561
0,-0.0430555572111439,0.0125000003581147,1.02777785415829,-0.00427605677396059,-0.362548530101776,0.0384845100343227
0,-0.308333341660331,0.00277777787846293,1.0361111082101,-0.0314595587551594,-0.582459986209869,0.499076902866364
0,-0.415277797863537,-0.105555564319952,1.08472222687628,-0.0855211317539215,-0.92607170343399,0.66126161813736
0,0.712500028769764,0.0388888906783549,0.975000059842355,0.32742378115654,-0.0256563406437635,-1.95690679550171
0,0.152777778946911,0.00277777787846293,1.13194445365921,0.0693332031369209,-0.612086951732635,-1.9712620973587
0,0.0777777813567098,-0.0472222237439329,1.14583337249175,0.543670058250427,-1.01250910758972,-1.69973254203796
0,0.0875000002275597,0.0208333341834404,1.06527783775844,0.220827788114548,-1.82007300853729,-2.96819424629211
0,0.0875000002275597,-0.0513888902767219,1.1083333888916,0.140499010682106,-2.38726139068604,-2.9935450553894
0,0.1194444466846,0.0444444460554069,1.00833336779274,0.229379892349243,-2.35183119773865,-2.74675559997559
0,0.211111128639904,0.187500003092477,0.997222232726705,-0.202501833438873,-2.3469443321228,-2.76874661445618
0,0.187500003092477,0.154166670830166,0.991666665193688,-1.11605083942413,-2.32556390762329,-3.18871665000915
0,0.187500003092477,0.154166670830166,0.991666665193688,-1.84969997406006,-2.03693008422852,-2.94192695617676
0,0.20972223675665,0.0750000036681839,1.11388895642462,-2.24156999588013,-1.49509263038635,-1.92269837856293
0,0.277777793164528,0.0222222230277034,1.11805563207438,-1.92666900157928,-1.06076753139496,-1.01159286499023
0,0.277777793164528,0.0222222230277034,1.11805563207438,-1.89673662185669,-0.851546168327332,-0.996321201324463
0,0.370833354847121,-0.00555555575692586,1.06250005399193,-1.85061621665955,-1.11757791042328,-1.15209186077118
0,0.322222236180943,-0.0750000036681839,1.17638889667562,-1.75226700305939,-0.761748969554901,-1.25990951061249
0,0.322222236180943,-0.0888888921108138,1.26666667459171,-1.68537724018097,-0.685390830039978,-1.28464961051941
0,0.322222236180943,-0.0888888921108138,1.26666667459171,-1.70614659786224,-0.952033460140228,-1.46363317966461
0,0.331944455051793,-0.186111123365188,1.34444452280622,-2.0702223777771,-1.07451200485229,-1.74860179424286
0,0.298611122789481,-0.230555566381603,1.32500003644066,-2.17040419578552,-0.531758189201355,-1.47737765312195
0,0.298611122789481,-0.230555566381603,1.32500003644066,-1.89490401744843,-0.125532805919647,-1.37383592128754
0,0.33750002258481,-0.205555561106887,1.28333337719076,-1.68323922157288,-0.305432617664337,-1.85916841030121
0,0.406944470875941,-0.248611112240049,1.26944445835822,-1.49723076820373,-0.519846320152283,-2.18934106826782
0,0.480555570504907,-0.273611117514765,1.25277785300688,-1.49661982059479,-0.501214921474457,-2.25653624534607
0,0.470833327322128,-0.298611122789481,1.19444449115793,-1.6890424489975,-0.0647517144680023,-2.060142993927
0,0.676388937052873,-0.215277779977737,1.09166668629255,-1.59527456760406,-0.457232624292374,-1.7534886598587
0,0.676388937052873,-0.215277779977737,1.09166668629255,-1.5824464559555,-0.25870144367218,-1.58488988876343
0,0.558333370095563,-0.227777782615095,0.944444438410764,-1.95599055290222,-0.138055548071861,-1.52930116653442
0,0.436111127488491,-0.24583335278547,0.823611136310804,-1.856724858284,0.172263994812965,-1.74554741382599
0,0.449999997697174,-0.108333335930496,0.726388898978447,-1.17744278907776,-0.0418442711234093,-1.57053458690643
0,0.511111143312639,-0.133333341205212,0.666666693870094,-0.341473668813705,0.0561996027827263,-1.39216184616089
0,0.526388905404577,-0.13750000469901,0.618055575203916,-0.0445931628346443,0.0201585534960032,-1.29411804676056
0,0.49444444071359,-0.106944444047242,0.670833369519857,-0.164628177881241,0.349109500646591,-1.0711522102356
0,0.44583337067127,-0.223611131277262,0.700000001820477,-0.616057574748993,0.886670887470245,-0.905913174152374
0,0.437500019371745,-0.0791666671619817,0.630555602153203,-0.881173133850098,0.43401974439621,-0.816115975379944
0,0.433333343721983,-0.122222230451108,0.588888894279438,-0.395840674638748,-0.0152716310694814,-1.01800692081451
0,0.443055586904762,-0.143055560076062,0.555555586329055,-0.163101017475128,-0.309403240680695,-1.31427657604218
0,0.455555565230191,-0.113888891307548,0.493055597454194,0.165239050984383,-0.308181524276733,-1.19332528114319
0,0.456944457113445,-0.108333335930496,0.509722251429385,0.432798027992248,-0.0717766657471657,-0.949284613132477
0,0.500000008246606,-0.0750000036681839,0.573611132187501,0.464257597923279,0.273973047733307,-0.551916778087616
0,0.53750004047061,-0.100000002864918,0.604166704995233,0.32253685593605,0.339030206203461,-0.412944912910461
0,0.591666678045946,-0.0916666697993398,0.627777818386695,0.0268780700862408,-0.380569040775299,-0.451734840869904
0,0.676388937052873,-0.0638888929140799,0.604166704995233,0.0271835029125214,-0.553138494491577,-0.478002041578293
0,0.700000001820477,-0.029166668768514,0.597222245578963,0.23243422806263,-0.621860802173615,-0.0430659987032413
0,0.701388893703731,-0.0416666683668809,0.597222245578963,0.427300244569778,0.141415297985077,0.292604446411133
0,0.680555564078778,-0.115277783190802,0.729166682744956,0.580016553401947,0.237015709280968,0.356134444475174
0,0.811111157985375,-0.115277783190802,0.729166682744956,0.710130870342255,-0.00305432616733015,0.168293371796608
0,0.687500023495048,0.0819444448505077,0.752777796136418,0.977384388446808,-0.597731649875641,0.215635433793068
0,0.659722234453824,-0.0125000003581147,0.858333336144441,1.45080494880676,-0.0943786799907684,0.148440256714821
0,0.608333332021137,0.030555557612777,0.854166660494678,1.63589715957642,0.180510684847832,0.325896620750427
0,0.726388898978447,0.0916666697993398,0.826388920077312,1.54823791980743,0.321620553731918,0.870788395404816
0,0.880555606276507,0.169444445078067,0.861111119910949,1.69545650482178,-1.0690141916275,0.762665271759033
0,0.815277785011279,0.166666673467524,0.923611157409668,1.61146247386932,-2.61541962623596,0.364686548709869
0,0.766666714968959,0.20972223675665,0.916666697993398,1.4056009054184,-2.7168231010437,0.339335650205612
0,0.811111157985375,0.25555557165632,0.809722266102121,1.77273094654083,-2.24706768989563,0.598647952079773
0,0.811111157985375,0.25555557165632,0.809722266102121,2.64443564414978,-2.45934343338013,0.903469681739807
0,1.05555559457566,0.24583335278547,0.668055585753349,3.07662272453308,-3.00423526763916,0.9056077003479
0,1.16111118320754,0.258333331110899,0.462500024646461,2.69147229194641,-2.53509068489075,1.08031523227692
0,1.35833334439105,0.236111109602691,0.169444445078067,1.27304315567017,-1.21317839622498,1.63101017475128
0,1.44305565202183,0.258333331110899,-0.0152777788063885,0.475253164768219,-0.531147301197052,2.51004528999329
0,1.27500002589123,0.231944458264858,-0.055555559848502,1.08917272090912,-0.575435042381287,2.92970967292786
0,1.27500002589123,0.231944458264858,-0.055555559848502,1.68537724018097,-1.0256427526474,2.76996850967407
0,0.993055557076942,0.138888896582264,0.0222222230277034,2.18598127365112,-1.08367490768433,2.46759009361267
0,0.666666693870094,0.0583333375370279,0.20972223675665,2.44468259811401,-0.837801694869995,2.03662467002869
0,0.304166666010569,-0.0722222259796579,0.449999997697174,2.23210167884827,-0.73517632484436,1.58366811275482
0,0.304166666010569,-0.200000005729836,0.608333332021137,1.59405291080475,-0.874453604221344,0.74159038066864
0,-0.13750000469901,-0.340277782039389,0.719444488186035,0.799317181110382,-0.876591622829437,-0.144469633698463
0,-0.140277788465518,-0.381944465601225,0.700000001820477,-0.0467311926186085,-0.520457208156586,-0.905913174152374
0,0.0166666676506515,-0.331944455051793,0.651388931778157,-0.560468852519989,0.417220950126648,-1.52074897289276
0,0.359722244093018,-0.218055563744246,0.515277818962402,-0.922101080417633,1.78494822978973,-1.76631689071655
0,0.863888903677457,-0.0791666671619817,0.323611128064198,-0.709519982337952,2.07419300079346,-1.64628183841705
0,1.28055559342425,-0.00416666691266287,0.238888893369199,0.204028993844986,0.938899874687195,-0.765719592571259
0,1.44305565202183,-0.00138888893923146,0.262500006760661,1.12735176086426,-0.194560587406159,0.123089343309402
0,1.3208333607909,-0.052777782159976,0.340277782039389,0.999070107936859,-0.111482910811901,0.496633440256119
0,1.05555559457566,-0.118055554801345,0.466666700296224,0.589790403842926,0.776715159416199,0.548556983470917
0,0.787500044593913,-0.158333334323963,0.5930555699292,0.255647093057633,1.14017999172211,0.266031801700592
0,0.600000029345471,-0.18333333959868,0.629166710269949,0.02382374368608,0.582459986209869,-0.191200822591782
0,0.613888899554154,-0.176388892338373,0.625000034620187,-0.111482910811901,0.729373097419739,-0.315511912107468
0,0.787500044593913,-0.156944454596674,0.587500002396184,-0.108428582549095,0.928515195846558,-0.260534018278122
0,1.0513889189259,-0.0847222225390337,0.476388894855144,-0.203723564743996,0.952644348144531,-0.292299032211304
0,1.2430556098241,-0.0250000007162294,0.372222246730376,-0.22174409031868,0.785572707653046,-0.04764748737216
0,1.32777782020717,0.0152777788063885,0.368055571080613,0.198225766420364,0.190895393490791,0.485027015209198
0,1.21250008564023,0.00972222266958873,0.402777795226179,0.614225029945374,-0.318260788917542,0.752891421318054
0,1.00555558402623,-0.0208333341834404,0.472222219205382,0.652709543704987,-0.241902634501457,0.800233483314514
0,0.899999995394348,-0.030555557612777,0.509722251429385,0.521678924560547,0.0907134860754013,0.757778346538544
0,0.620833358970425,-0.0680555564078778,0.608333332021137,0.467311918735504,0.131641462445259,0.531147301197052
0,0.500000008246606,-0.0777777813567098,0.644444472361887,0.288939267396927,-0.125838235020638,0.0690277740359306
0,0.436111127488491,-0.108333335930496,0.676388937052873,0.214108273386955,-0.198836639523506,-0.19058994948864
0,0.449999997697174,-0.102777780553444,0.690277807261557,0.081855945289135,-0.0458148941397667,-0.427300244569778
0,0.538888932353864,-0.0805555590452358,0.652777823661411,-0.122478485107422,0.38026362657547,-0.563523173332214
0,0.691666699144811,-0.0472222237439329,0.611111115787646,-0.284052342176437,0.711352586746216,-0.642019391059875
0,0.85138887672817,-0.00833333382532574,0.569444456537738,-0.201585531234741,0.685085356235504,-0.452651143074036
0,0.959722249126559,0.00277777787846293,0.545833343146276,0.0650571510195732,0.401033043861389,-0.272751331329346
0,0.991666665193688,0.0222222230277034,0.551388910679293,0.211053937673569,0.224798411130905,-0.0833831056952477
0,0.98888888142718,0.0180555564949145,0.604166704995233,0.244956970214844,0.264504641294479,0.0387899428606033
0,0.961111141009813,0.03194444645704,0.650000039894903,0.184175878763199,0.362548530101776,0.148134827613831
0,0.909722238577127,0.0652777787193518,0.663888910103586,0.154854342341423,0.326202034950256,0.292604446411133
0,0.909722238577127,0.0652777787193518,0.663888910103586,0.275194793939591,0.187841057777405,0.189062789082527
0,0.841666730793107,0.0736111117849297,0.663888910103586,0.279165416955948,0.202807262539864,0.120340451598167
0,0.798611131036088,0.0680555564078778,0.693055591028065,0.107817716896534,0.420275300741196,0.126143679022789
0,0.798611131036088,0.0388888906783549,0.715277812536273,-0.206777885556221,0.542142927646637,0.172569438815117
0,0.812500049868629,0.0486111125881959,0.697222266677827,-0.277943700551987,0.537256002426147,0.107206851243973
0,0.793055563503071,0.0541666679652478,0.681944455962032,-0.120035022497177,0.381790786981583,-0.0387899428606033
0,0.772222233878117,0.0652777787193518,0.680555564078778,0.0192422550171614,0.207999616861343,-0.0952949747443199
0,0.769444450111609,0.0847222225390337,0.755555579902926,0.0241291765123606,0.0812450796365738,-0.0558941699564457
0,0.769444450111609,0.0930555616825939,0.763888931202451,-0.189062789082527,0.0384845100343227,-0.0229074470698834
0,0.751388904253164,0.131944449321958,0.759722255552688,-0.539088606834412,-0.0192422550171614,-0.12705996632576
0,0.738888925927735,0.141666668192807,0.740277817810989,-0.635605275630951,-0.110566608607769,-0.16401731967926
0,0.691666699144811,0.125000002061652,0.687500023495048,-0.59315013885498,-0.170125976204872,-0.216246291995048
0,0.693055591028065,0.106944444047242,0.693055591028065,-0.403171062469482,0.433714330196381,-0.22174409031868
0,0.738888925927735,0.115277783190802,0.675000045169619,-0.231212496757507,0.690277755260468,-0.157908663153648
0,0.816666676894533,0.134722233088466,0.654166666920807,0.0241291765123606,0.0122173046693206,-0.0357356183230877
0,0.805555590452358,0.13750000469901,0.662500018220332,0.183565005660057,-0.391564607620239,-0.0229074470698834
0,0.779166693294388,0.122222230451108,0.66527780198684,0.141720741987228,-0.271835029125214,0.0543670058250427
0,0.801388914802596,0.125000002061652,0.611111115787646,0.157297804951668,0.0308486949652433,0.146302223205566
0,0.918055589876652,0.156944454596674,0.58333337537028,0.613003253936768,0.0751364231109619,0.509461641311646
0,0.986111194908388,0.144444451959316,0.558333370095563,0.957531273365021,-0.518319189548492,0.522595226764679
0,0.962500032893068,0.13750000469901,0.58611111051293,0.753807723522186,-0.616057574748993,0.563828647136688
0,0.89166674134254,0.140277788465518,0.654166666920807,0.59162300825119,-0.281608879566193,0.706771075725555
0,0.815277785011279,0.14722222356986,0.70416667747024,0.616973876953125,-0.226325571537018,0.81428337097168
0,0.668055585753349,0.130555557438704,0.788888936477167,0.809091031551361,-0.674089789390564,0.78251838684082
0,0.516666662221798,0.0805555590452358,0.831944487610329,0.522900640964508,-0.889725208282471,0.408974289894104
0,0.440277803138253,0.0611111152255539,0.844444514559616,0.0629191175103188,-0.256257981061935,0.163406446576118
0,0.423611149163062,0.055555559848502,0.818055568777787,-0.358883321285248,0.538783133029938,-0.0177150927484035
0,0.441666695021508,0.0625000010308258,0.73055557462821,-0.664315938949585,0.948979139328003,-0.225103840231896
0,0.458333348996699,0.0861111144222878,0.637500012945616,-0.568104684352875,1.28862023353577,-0.311846703290939
0,0.493055597454194,0.0500000014324589,0.581944483487025,-0.395229816436768,1.45447015762329,-0.353690981864929
0,0.529166689171085,0.0125000003581147,0.555555586329055,-0.605062007904053,1.38055551052094,-0.331394404172897
0,0.556944478212309,0.0819444448505077,0.594444461812454,-1.04946649074554,1.18874371051788,-0.0839939713478088
0,0.529166689171085,-0.0138888899621255,0.53750004047061,-1.46363317966461,1.44713973999023,0.203723564743996
0,0.468055592179478,-0.0500000014324589,0.548611126912784,-1.08856189250946,2.1755964756012,0.368657171726227
0,0.46527780841297,-0.144444451959316,0.529166689171085,-0.661567032337189,2.74736642837524,0.28008171916008
0,0.454166673346937,-0.159722226207217,0.604166704995233,-1.06840336322784,4.0924916267395,0.62002819776535
0,0.426388884305712,-0.14722222356986,0.687500023495048,-1.48776233196259,4.68716907501221,0.646906316280365
0,0.383333357484479,-0.115277783190802,0.834722271376837,-1.61024081707001,4.500244140625,0.724791586399078
0,0.350000000910239,-0.134722233088466,0.926388941176177,-1.43980944156647,4.57721328735352,0.856433093547821
0,0.262500006760661,-0.272222225631511,1.02916674604155,-1.56870198249817,5.45227766036987,1.56809103488922
0,0.223611131277262,-0.315277801076602,1.02083339474202,-1.61482226848602,5.21617841720581,1.60871362686157
0,0.162500009973726,-0.363888895430851,1.02361117850853,-1.51158607006073,4.35455274581909,1.14292883872986
0,0.0347222241455659,-0.312500017310094,0.925000049292922,-1.65330684185028,3.595858335495,0.746782779693604
0,0.0486111125881959,-0.313888909193348,0.918055589876652,-1.16919612884522,3.39121842384338,0.976468086242676
0,-0.00277777787846293,-0.405555578992687,0.962500032893068,-0.162795588374138,2.70888185501099,1.17683184146881
0,-0.0791666671619817,-0.437500019371745,1.00555558402623,0.332310706377029,2.03143239021301,1.04885566234589
0,-0.125000002061652,-0.375000006184955,1.0305556379248,-0.0198531206697226,1.25502264499664,1.51738929748535
0,-0.13750000469901,-0.523611121638068,1.02500007039179,-0.593761026859283,1.52716314792633,0.984103918075562
0,-0.205555561106887,-0.44861110581392,0.98888888142718,-0.67683869600296,1.23578035831451,0.54916787147522
0,-0.215277779977737,-0.470833327322128,0.904166671044111,-0.442266434431076,0.153938040137291,-0.0503963828086853
0,-0.224999998848587,-0.469444484062732,0.870833363093728,-0.0366519130766392,-0.245873257517815,-0.577878534793854
0,-0.212499996211229,-0.505555575779623,0.879166714393253,0.347276896238327,-0.159435823559761,-0.633161842823029
0,-0.193055558469529,-0.500000008246606,0.93750007624221,0.462730437517166,0.0213802829384804,-0.401033043861389
0,-0.2194444556275,-0.480555570504907,0.963888924776322,0.0977384373545647,0.16401731967926,-0.269391566514969
0,-0.2194444556275,-0.480555570504907,0.963888924776322,-0.145691365003586,0.21135938167572,-0.405919969081879
0,-0.231944458264858,-0.459722240879953,0.959722249126559,-0.111788339912891,0.221133217215538,-0.553443908691406
0,-0.238888893369199,-0.420833365396554,0.962500032893068,0.154243469238281,0.04764748737216,-0.649655163288116
0,-0.238888893369199,-0.420833365396554,0.962500032893068,0.139888137578964,-0.0555887371301651,-0.692110300064087
0,-0.2194444556275,-0.420833365396554,1.02361117850853,-0.0384845100343227,-0.130725160241127,-0.634994447231293
0,-0.2194444556275,-0.420833365396554,1.02361117850853,-0.235183119773865,-0.105374254286289,-0.454789161682129
0,-0.205555561106887,-0.380555573717971,1.02500007039179,-0.246484130620956,-0.194560587406159,-0.445931643247604
0,-0.205555561106887,-0.355555568443255,1.03194452980806,-0.212581098079681,-0.249843880534172,-0.504574716091156
0,-0.237500001485945,-0.354166676560001,1.03194452980806,-0.292299032211304,-0.136222943663597,-0.556192815303802
0,-0.238888893369199,-0.366666679197359,1.00694447590948,-0.392175495624542,-0.125532805919647,-0.484721571207047
0,-0.212499996211229,-0.361111135976272,0.968055600426084,-0.393702656030655,-0.277027398347855,-0.383317947387695
0,-0.197222234119292,-0.354166676560001,0.930555616825939,-0.341779112815857,-0.587346911430359,-0.379652738571167
0,-0.208333344873396,-0.351388892793493,0.894444525109048,-0.195171445608139,-1.01709067821503,-0.569937288761139
0,-0.223611131277262,-0.361111135976272,0.899999995394348,-0.0940732508897781,-1.08703470230102,-0.668592035770416
0,-0.216666671860991,-0.387500008822313,0.904166671044111,-0.0610865242779255,-0.945008516311646,-0.627664029598236
0,-0.180555567988136,-0.402777795226179,0.913888914226889,-0.0464257597923279,-0.839023411273956,-0.496022582054138
0,-0.12916666555545,-0.413888905980283,0.93750007624221,-0.0809396430850029,-0.831082165241241,-0.292604446411133
0,-0.100000002864918,-0.423611149163062,0.95000000594378,-0.139582708477974,-0.903469681739807,-0.275500237941742
0,-0.118055554801345,-0.42916666807222,0.951388897827035,-0.194560587406159,-0.88819807767868,-0.376903861761093
0,-0.130555557438704,-0.433333343721983,0.952777789710289,-0.272751331329346,-0.780685782432556,-0.578183948993683
0,-0.105555564319952,-0.452777781463682,0.938888968125464,-0.463341295719147,-0.732427418231964,-0.67836582660675
0,-0.0430555572111439,-0.452777781463682,0.901388887277602,-0.55527651309967,-0.744339287281036,-0.542142927646637
0,-0.00833333382532574,-0.455555565230191,0.858333336144441,-0.376903861761093,-0.70218962430954,-0.394008070230484
0,0.00138888893923146,-0.461111132763207,0.861111119910949,-0.202501833438873,-0.633467257022858,-0.427300244569778
0,-0.0152777788063885,-0.46527780841297,0.85138887672817,-0.22235494852066,-0.484416127204895,-0.54916787147522
0,-0.0125000003581147,-0.483333354271415,0.849999984844916,-0.127976268529892,-0.287106662988663,-0.583070874214172
0,0.026388891079988,-0.486111138037923,0.808333374218867,-0.000610865245107561,-0.276111096143722,-0.53969943523407
0,0.0541666679652478,-0.495833332596844,0.809722266102121,0.0226020142436027,-0.443793594837189,-0.46059238910675
0,0.112499999424294,-0.495833332596844,0.858333336144441,-0.0580321997404099,-0.757472932338715,-0.393397212028503
0,0.0750000036681839,-0.505555575779623,0.888888957576031,-0.23823744058609,-0.937678158283234,-0.529620170593262
0,0.0500000014324589,-0.505555575779623,0.876388930626744,-0.221438646316528,-0.732122004032135,-0.753807723522186
0,0.0472222237439329,-0.512500035195893,0.843055622676362,-0.168598800897598,-0.532979905605316,-0.74464476108551
0,0.187500003092477,-0.509722251429385,0.848611190209378,-0.194255143404007,-0.637132465839386,-0.564744889736176
0,0.233333350148112,-0.522222229754814,0.87500003874349,-0.289244681596756,-1.14720487594604,-0.45998153090477
0,0.230555566381603,-0.543055559379768,0.923611157409668,-0.651487767696381,-1.58397352695465,-0.662177920341492
0,0.230555566381603,-0.543055559379768,0.923611157409668,-0.818253993988037,-1.44042026996613,-0.84574294090271
0,0.227777782615095,-0.604166704995233,0.855555552377932,-0.897971928119659,-0.993572294712067,-0.908356606960297
0,0.326388911830706,-0.604166704995233,0.859722228027695,-1.16247653961182,-1.69240212440491,-0.920268476009369
0,0.318055560531181,-0.605555596878487,0.777777801411134,-1.4456125497818,-2.29715871810913,-1.19179809093475
0,0.325000019947452,-0.65833334257057,0.70416667747024,-1.46088421344757,-2.51676487922669,-1.49845242500305
0,0.384722225055805,-0.706944461236748,0.702777785586986,-1.22570109367371,-2.53325819969177,-1.61176800727844
0,0.455555565230191,-0.729166682744956,0.688888915378302,-1.48684597015381,-2.78462910652161,-1.59588539600372
0,0.555555586329055,-0.625000034620187,0.687500023495048,-1.49997961521149,-2.57815670967102,-1.69637274742127
0,0.58333337537028,-0.616666683320662,0.575000024070755,-1.45538640022278,-2.24615144729614,-2.16673898696899
0,0.559722261978817,-0.683333347845286,0.506944467662877,-1.34512531757355,-2.6957483291626,-2.49385738372803
0,0.559722261978817,-0.683333347845286,0.506944467662877,-1.38422060012817,-2.7546968460083,-2.87289929389954
0,0.551388910679293,-0.694444482911319,0.295833339022973,-1.39521622657776,-2.2101104259491,-2.79562473297119
0,0.551388910679293,-0.694444482911319,0.295833339022973,-1.32649385929108,-1.62154173851013,-2.58884692192078
0,0.726388898978447,-0.605555596878487,0.211111128639904,-1.21378922462463,-2.13283610343933,-2.47919654846191
0,0.726388898978447,-0.605555596878487,0.211111128639904,-1.18935465812683,-2.38756680488586,-2.97857904434204
0,0.922222265526414,-0.493055597454194,0.156944454596674,-1.27334856986999,-1.85947382450104,-3.01553630828857
0,0.948611114060526,-0.509722251429385,0.19166667874224,-1.12399208545685,-1.10994219779968,-2.43399262428284
0,0.955555573476797,-0.481944462388161,0.200000005729836,-0.913243532180786,-0.338113903999329,-1.84023153781891
0,0.984722303025134,-0.384722225055805,0.190277786858986,-0.924239099025726,-0.574824213981628,-1.87382912635803
0,1.06666672964169,-0.280555576931036,0.265277790527169,-0.877813339233398,-1.00212442874908,-2.3469443321228
0,1.06666672964169,-0.280555576931036,0.265277790527169,-1.0622946023941,-1.26174211502075,-2.23087978363037
0,1.0305556379248,-0.216666671860991,0.24583335278547,-1.1267409324646,-1.19729590415955,-2.09984922409058
0,0.976388951725609,-0.140277788465518,0.266666682410424,-0.835052788257599,-1.27701377868652,-1.90498328208923
0,0.981944519258625,-0.0944444474878658,0.254166679773066,-0.672868072986603,-1.24769222736359,-1.66185891628265
0,0.981944519258625,-0.0944444474878658,0.254166679773066,-0.875064492225647,-1.1844676733017,-1.21714901924133
0,0.87500003874349,0.00555555575692586,0.140277788465518,-0.786183595657349,-0.937372744083405,-1.12582468986511
0,0.858333336144441,0.106944444047242,0.0513888902767219,-0.487165033817291,-1.13834738731384,-1.35734260082245
0,0.858333336144441,0.106944444047242,0.0513888902767219,-0.157297804951668,-1.32557761669159,-1.95293617248535
0,0.823611136310804,0.154166670830166,0.0777777813567098,-0.0494800843298435,-1.26479649543762,-1.96820783615112
0,0.827777811960566,0.169444445078067,0.0569444456537738,-0.137750118970871,-0.975551784038544,-1.75654304027557
0,0.812500049868629,0.170833336961321,0.0750000036681839,-0.355523586273193,-0.54916787147522,-1.25410640239716
0,0.916666697993398,0.233333350148112,0.0458333348996699,-0.816421389579773,-0.528398454189301,-0.757778346538544
0,1.05972227022542,0.290277795801886,-0.0152777788063885,-0.441044718027115,-1.1823296546936,-1.37841737270355
0,0.993055557076942,0.269444466176932,-0.0805555590452358,-0.191506251692772,-0.48197266459465,-1.04977190494537
0,1.08194444310977,0.0652777787193518,0.0652777787193518,-0.498160600662232,0.186008468270302,0.192727982997894
0,1.19305559927467,0.187500003092477,-0.150000007336368,-0.40225476026535,0.0601702257990837,0.408363401889801
0,1.14027780495873,0.216666671860991,-0.168055565350778,-0.0891863256692886,0.177761793136597,0.371100634336472
0,1.05277781080915,0.186111123365188,-0.158333334323963,-0.187535628676414,0.272445887327194,0.218689754605293
0,0.998611124609959,0.181944447715425,-0.140277788465518,-0.291993588209152,0.561996042728424,0.029626963660121
0,0.99583334084345,0.151388899219622,-0.113888891307548,-0.331394404172897,0.846048355102539,0.123089343309402
0,1.03750000009336,0.172222228844576,-0.187500003092477,-0.596204459667206,0.248927593231201,-0.0171042270958424
0,1.04861113515939,0.200000005729836,-0.0638888929140799,-0.435546934604645,0.136833816766739,-0.0696386396884918
0,1.0513889189259,0.161111118090472,-0.029166668768514,-0.368962615728378,0.430354565382004,-0.167682513594627
0,1.03750000009336,0.144444451959316,-0.0361111129898289,-0.309708684682846,0.00427605677396059,-0.319787949323654
0,1.0361111082101,0.112499999424294,-0.0736111117849297,-0.31703907251358,-0.520457208156586,-0.451734840869904
0,0.98888888142718,0.13750000469901,-0.0138888899621255,-0.376903861761093,-0.147523954510689,-0.362853944301605
0,0.959722249126559,0.144444451959316,-0.0736111117849297,-0.504269242286682,-0.550084173679352,-0.380874484777451
0,0.984722303025134,0.213888888094483,-0.0722222259796579,-0.318260788917542,-0.549473285675049,-0.340557366609573
0,1.01111115155925,0.179166676104882,-0.0402777795226179,-0.470671683549881,-0.894001305103302,-0.384234249591827
0,0.970833384192592,0.104166672436698,-0.0722222259796579,-0.653931260108948,-1.00151360034943,-0.654236674308777
0,0.927777833059431,0.17361112072783,-0.0888888921108138,-0.536950528621674,-0.800233483314514,-0.783129215240479
0,0.976388951725609,0.259722222994153,-0.13750000469901,-0.313679307699203,-0.632550954818726,-0.593455612659454
0,0.96666670854283,0.320833344297689,-0.230555566381603,-0.308486938476563,-0.441655576229096,-0.270613312721252
0,0.89722221162784,0.327777779402031,-0.200000005729836,-0.27458393573761,-0.364991992712021,-0.0839939713478088
0,0.95000000594378,0.359722244093018,-0.20972223675665,0.17989981174469,0.152410879731178,0.114842668175697
0,0.962500032893068,0.287500012035377,-0.141666668192807,-0.145691365003586,0.0800233483314514,0.173180297017098
0,0.993055557076942,0.286111120152123,-0.111111119697004,-0.964250802993774,-0.952644348144531,0.293520748615265
0,0.870833363093728,0.306944449777077,-0.14583334384257,-1.20370995998383,-1.34084916114807,0.361021369695664
0,0.89722221162784,0.24583335278547,-0.190277786858986,-0.91507613658905,-1.63528621196747,0.427300244569778
0,1.1625000750908,0.251388896006557,-0.268055574293678,0.357050746679306,0.259312301874161,0.0394008085131645
0,1.0513889189259,0.211111128639904,-0.179166676104882,0.159741267561913,0.0323758572340012,-0.0021380283869803
0,0.969444492309338,0.244444460902216,-0.180555567988136,0.197920337319374,0.0635299831628799,0.0626136884093285
0,0.962500032893068,0.234722242031366,-0.223611131277262,0.237321153283119,0.486248731613159,0.0641408488154411
0,0.962500032893068,0.236111109602691,-0.273611117514765,0.217162594199181,0.785572707653046,0.0302378293126821
0,0.983333411141879,0.233333350148112,-0.216666671860991,-0.0803287774324417,0.663399636745453,-0.160962998867035
0,1.01527782720901,0.202777789496344,-0.180555567988136,-0.189368233084679,0.397367835044861,-0.244040668010712
0,0.970833384192592,0.2194444556275,-0.150000007336368,-0.196087747812271,0.695164620876312,-0.175929188728332
0,0.940277860008718,0.234722242031366,-0.187500003092477,-0.215330004692078,1.05740773677826,-0.264810085296631
0,0.909722238577127,0.24583335278547,-0.126388893944906,-0.0858265683054924,0.938289046287537,-0.313679307699203
0,0.872222254976982,0.252777787889811,-0.130555557438704,0.0403171069920063,0.815810561180115,-0.171958565711975
0,0.533333364820847,0.29166668768514,-0.0986111170596459,0.078801617026329,0.613614141941071,0.556498229503632
0,0.75000001236991,0.348611133338914,-0.0791666671619817,-0.357356160879135,-0.138360977172852,1.65666651725769
0,0.769444450111609,0.388888900705567,-0.0180555564949145,-0.205861583352089,-0.293826192617416,2.63160753250122
0,0.61944446708717,0.16527778158427,-0.0722222259796579,-0.442266434431076,0.579711139202118,3.34601426124573
0,0.690277807261557,-0.105555564319952,0.03194444645704,0.00702495034784079,0.218384325504303,3.30478096008301
0,1.53194453805466,-0.0861111144222878,-0.0430555572111439,0.26419922709465,1.64322745800018,-1.20584797859192
0,1.15416672379127,-0.0361111129898289,-0.17361112072783,0.165849909186363,-0.394008070230484,-0.12705996632576
0,0.870833363093728,0.0791666671619817,0.0611111152255539,0.615752160549164,-0.428216546773911,-0.339641064405441
0,1.00277780025972,0.108333335930496,-0.03194444645704,0.952033460140228,-0.0436768643558025,-0.619111955165863
0,1.00277780025972,0.108333335930496,-0.03194444645704,0.54428094625473,0.0937678143382072,-0.834441900253296
0,1.09722225382557,0.0652777787193518,-0.143055560076062,0.224187538027763,0.1795943826437,0.0302378293126821
0,1.18750003174166,0.0375000018340919,-0.118055554801345,0.276111096143722,0.148440256714821,-0.179288953542709
0,1.02916674604155,0.102777780553444,-0.168055565350778,-0.0384845100343227,0.0510072484612465,-0.0461203269660473
0,1.0125000434425,0.108333335930496,-0.0833333367337618,-0.0335975885391235,0.117286130785942,-0.0803287774324417
0,1.05416670269241,0.101388894748172,-0.13750000469901,-0.252287358045578,0.382707089185715,-0.0387899428606033
0,1.05277781080915,0.0777777813567098,-0.143055560076062,-0.438906669616699,0.613614141941071,-0.0607810914516449
0,1.01944450285877,0.0722222259796579,-0.108333335930496,-0.62491512298584,0.923017382621765,-0.15851953625679
0,1.00277780025972,0.0875000002275597,-0.052777782159976,-0.434936046600342,0.937067270278931,-0.144164204597473
0,0.96666670854283,0.0930555616825939,0.052777782159976,-0.644157409667969,1.90834307670593,-0.0629191175103188
0,0.99583334084345,0.106944444047242,-0.0194444453391775,-0.593455612659454,1.45141577720642,-0.0210748501121998
0,1.02083339474202,0.195833342236038,0.215277779977737,0.0027488935738802,0.400422155857086,-0.0387899428606033
0,0.994444448960196,0.1194444466846,0.00555555575692586,-0.464868456125259,0.829249560832977,-0.00641408516094089
0,1.06111116210868,0.123611110178398,0.0722222259796579,-0.115453533828259,0.0983493030071259,-0.0403171069920063
0,0.929166724942685,0.177777784221628,0.211111128639904,-0.0479529201984406,0.327118337154388,0.0891863256692886
0,1.02916674604155,0.116666675074056,0.0708333340964038,-0.122783914208412,0.565966665744781,-0.0659734457731247
0,1.02361117850853,0.12777778582816,0.0513888902767219,-0.247705861926079,0.182037845253944,0.0177150927484035
0,1.01666671909226,0.0944444474878658,0.0722222259796579,-0.130419731140137,0.316122770309448,-0.0442877300083637
0,1.04722224327614,0.116666675074056,0.12777778582816,0.0812450796365738,0.129503428936005,-0.0671951770782471
0,0.96666670854283,0.175000000455119,0.476388894855144,0.380874484777451,-0.243735238909721,0.0372627787292004
0,0.983333411141879,0.169444445078067,0.0833333367337618,-0.163101017475128,0.198225766420364,0.0470366254448891
0,1.04166667574312,0.113888891307548,0.0666666706026059,-0.256868839263916,0.00855211354792118,-0.0198531206697226
0,0.98888888142718,0.130555557438704,0.208333344873396,0.119729585945606,-0.128587126731873,0.00916297826915979
0,0.997222232726705,0.134722233088466,0.113888891307548,0.106290549039841,-0.0977384373545647,0.0580321997404099
0,1.02916674604155,0.104166672436698,0.0930555616825939,0.0998764708638191,-0.0742201283574104,0.0394008085131645
0,1.02916674604155,0.104166672436698,0.0930555616825939,0.229074463248253,-0.122478485107422,0.198836639523506
0,1.02222228662528,0.0819444448505077,0.118055554801345,0.156686931848526,0.0937678143382072,0.280692577362061
0,1.00138890837647,0.0805555590452358,0.102777780553444,0.234572261571884,0.113620936870575,0.281914323568344
0,0.912500022343635,0.0250000007162294,0.029166668768514,0.222660377621651,-0.0675006061792374,0.386677712202072
0,1.04722224327614,0.0652777787193518,0.033333335301303,0.103847093880177,0.22693644464016,0.170125976204872
0,0.998611124609959,0.100000002864918,0.0902777839940679,0.185703039169311,-0.0565050356090069,0.144469633698463
0,0.983333411141879,0.100000002864918,0.0930555616825939,0.285884946584701,-0.393397212028503,0.237321153283119
0,0.969444492309338,0.0500000014324589,0.13750000469901,0.302378296852112,-0.287717521190643,0.627969443798065
0,1.00138890837647,0.118055554801345,0.0972222251763917,0.0113010071218014,0.0723875313997269,0.517708301544189
0,1.00694447590948,0.206944452990142,0.101388894748172,-0.240986332297325,0.0033597587607801,0.387288570404053
0,0.983333411141879,0.18333333959868,0.10972222781375,-0.425773084163666,-0.188451930880547,0.578183948993683
0,0.925000049292922,0.12777778582816,0.12777778582816,-0.284663200378418,-0.88208943605423,0.827416956424713
0,1.02638896227504,0.0611111152255539,0.0805555590452358,-0.280387133359909,-0.470060795545578,0.619417369365692
0,1.13194445365921,0.0180555564949145,0.0819444448505077,-0.0885754600167274,-0.324674874544144,0.305127203464508
0,1.15416672379127,-0.00972222266958873,-0.0138888899621255,-0.186619326472282,-0.0232128798961639,-0.0253509078174829
0,1.06805562152495,-0.0138888899621255,0.0486111125881959,0.00488692196086049,0.104152522981167,-0.114537231624126
0,1.04861113515939,-0.0152777788063885,0.126388893944906,0.364686548709869,0.0668897479772568,-0.135612085461616
0,1.02083339474202,0.0597222233422998,0.0902777839940679,0.364991992712021,-0.105068825185299,-0.0473420582711697
0,1.00277780025972,0.0805555590452358,0.03194444645704,0.140193566679955,-0.216246291995048,0.0778853222727776
0,1.00277780025972,0.0805555590452358,0.03194444645704,0.00427605677396059,-0.207388743758202,0.098960168659687
0,1.02222228662528,0.0388888906783549,0.0208333341834404,-0.00519235478714108,-0.161879286170006,0.0803287774324417
0,1.04305556762637,-0.00555555575692586,0.027777779924251,-0.0177150927484035,0.00855211354792118,-0.0247400421649218
0,1.05833337834217,-0.0208333341834404,0.00277777787846293,-0.000610865245107561,0.0537561401724815,-0.0613919571042061
0,1.05833337834217,-0.0208333341834404,0.00277777787846293,0.00885754637420177,-0.0503963828086853,0.0204639863222837
0,1.00277780025972,0.0458333348996699,0.0486111125881959,-0.0870482996106148,-0.0305432621389627,0.0241291765123606
0,1.03750000009336,0.00138888893923146,-0.00972222266958873,-0.187535628676414,0.122173048555851,-0.0189368221908808
0,1.03472221632685,0.00138888893923146,0.03194444645704,-0.0775798857212067,0.154548913240433,-0.0626136884093285
0,1.04305556762637,0.00277777787846293,0.0583333375370279,0.109344877302647,0.0613919571042061,-0.0219911485910416
0,0.997222232726705,0.0444444460554069,0.0986111170596459,0.159741267561913,-0.0849102661013603,0.0491746515035629
0,1.00833336779274,0.0402777795226179,0.0736111117849297,0.0693332031369209,-0.0977384373545647,0.0384845100343227
0,1.03194452980806,0.00972222266958873,0.029166668768514,-0.0323758572340012,-0.109650313854218,0.0488692186772823
0,1.02361117850853,0.0138888899621255,0.026388891079988,-0.0849102661013603,-0.134084925055504,0.0290160998702049
0,1.04861113515939,-0.00138888893923146,0.00833333382532574,-0.191506251692772,-0.0525344125926495,-0.0183259565383196
0,1.03888889197661,0.0166666676506515,0.0222222230277034,-0.241291776299477,-0.0247400421649218,-0.0357356183230877
0,1.0333333244436,0.00972222266958873,0.0416666683668809,-0.188146501779556,-0.01588249579072,-0.0549778714776039
0,1.02777785415829,0.00555555575692586,0.0416666683668809,-0.12675453722477,0.0293215326964855,-0.0928515195846558
0,1.03194452980806,-0.00416666691266287,0.0625000010308258,-0.0033597587607801,-0.00794124789535999,-0.0601702257990837
0,0.986111194908388,0.0347222241455659,0.0791666671619817,0.0131336031481624,0.0189368221908808,0.0363464802503586
0,0.99583334084345,0.055555559848502,0.0347222241455659,-0.102014496922493,-0.0100792767480016,0.0229074470698834
0,1.06250005399193,0.0125000003581147,0.0250000007162294,-0.0354301854968071,-0.0427605658769607,-0.015577063895762
0,1.02916674604155,0.0347222241455659,0.0736111117849297,0.113620936870575,-0.186619326472282,0.0332921557128429
0,1.01666671909226,0.0361111129898289,0.0722222259796579,0.181121543049812,-0.19028452038765,0.0598647929728031
0,1.02777785415829,0.0125000003581147,0.029166668768514,0.151189148426056,-0.13225232064724,0.0345138870179653
0,1.02222228662528,0.00833333382532574,-0.0138888899621255,-0.0027488935738802,-0.0946841165423393,0.0412334054708481
0,1.0125000434425,0.0125000003581147,0.0111111115138517,-0.0351247526705265,-0.0720821022987366,0.096211276948452
0,1.02083339474202,0.0430555572111439,0.0472222237439329,0.0571159012615681,-0.0803287774324417,0.114231802523136
0,1.05972227022542,0.03194444645704,0.03194444645704,0.144164204597473,-0.280998021364212,0.0696386396884918
0,1.0361111082101,0.00416666691266287,0.0402777795226179,0.217468023300171,-0.358272463083267,0.0714712366461754
0,1.00277780025972,0.0194444453391775,0.0194444453391775,0.162490159273148,-0.352163821458816,0.142637029290199
0,1.00972225967599,0.027777779924251,-0.029166668768514,-0.0394008085131645,-0.332005262374878,0.167071640491486
0,1.07222229717471,-0.029166668768514,-0.0138888899621255,0.0516181141138077,-0.124616511166096,0.0500909499824047
0,1.05972227022542,-0.03194444645704,0.00416666691266287,0.12705996632576,-0.0800233483314514,-0.0302378293126821
0,1.02916674604155,-0.00833333382532574,-0.0388888906783549,0.125838235020638,-0.0626136884093285,-0.0290160998702049
0,1.01666671909226,-0.00833333382532574,-0.0541666679652478,-0.0180205255746841,-0.0146607663482428,-0.00794124789535999
0,1.02222228662528,-0.00277777787846293,-0.0513888902767219,-0.0931569486856461,0.0766635909676552,-0.0183259565383196
0,1.05277781080915,-0.00277777787846293,-0.026388891079988,-0.0766635909676552,0.0519235469400883,-0.0494800843298435
0,1.04166667574312,-0.0166666676506515,-0.0166666676506515,-0.0604756586253643,0.0439822971820831,-0.0705549344420433
0,1.07777786470773,-0.026388891079988,-0.0805555590452358,-0.215330004692078,0.133779495954514,-0.16371189057827
0,1.0513889189259,-0.00416666691266287,-0.0250000007162294,-0.181121543049812,0.181121543049812,-0.161573857069016
0,0.976388951725609,0.0361111129898289,0.0388888906783549,-0.0387899428606033,0.230296194553375,-0.0763581544160843
0,0.981944519258625,0.0250000007162294,0.0361111129898289,0.0565050356090069,0.267253547906876,-0.0128281703218818
0,1.02500007039179,0.00972222266958873,0.0361111129898289,0.0885754600167274,0.223271250724793,-0.0021380283869803
0,1.0333333244436,-0.00972222266958873,0.0125000003581147,0.175623759627342,0.0824668109416962,-0.0879645943641663
0,0.968055600426084,0.0777777813567098,-0.026388891079988,0.0366519130766392,0.285884946584701,0.0757472887635231
0,1.04583335139288,0.0208333341834404,-0.00277777787846293,-0.0363464802503586,0.368962615728378,0.0555887371301651
0,1.04027778385987,0.00277777787846293,0.052777782159976,0.0647517144680023,0.298407673835754,0.0045814891345799
0,1.0305556379248,-0.0125000003581147,0.055555559848502,0.145080491900444,0.160352125763893,-0.0189368221908808
0,1.00833336779274,0.00694444498106275,0.0583333375370279,0.103236228227615,0.119118720293045,-0.0369573459029198
0,0.979166735492117,0.0458333348996699,0.0861111144222878,0.119729585945606,0.0620028227567673,0.029626963660121
0,1.00277780025972,0.026388891079988,0.055555559848502,0.0956004112958908,-0.0507018156349659,0.0659734457731247
0,1.00277780025972,0.026388891079988,0.055555559848502,0.0665843114256859,-0.0830776765942574,0.0729983970522881
0,1.01388893532575,0.0194444453391775,0.026388891079988,-0.00549778714776039,-0.166155353188515,0.029626963660121
0,1.0361111082101,0.00555555575692586,0.0111111115138517,-0.0531452745199203,-0.0873537287116051,-0.00580321997404099
0,1.00833336779274,0.00555555575692586,0.0125000003581147,-0.0714712366461754,-0.0357356183230877,-0.0571159012615681
0,1.01111115155925,-0.00277777787846293,0.0222222230277034,-0.127365410327911,0.0100792767480016,-0.0613919571042061
0,1.04583335139288,-0.00277777787846293,0.0152777788063885,-0.139888137578964,0.0635299831628799,0.064446285367012
0,1.0125000434425,-0.00555555575692586,0.0347222241455659,-0.0980438739061356,0.0280998013913631,0.064446285367012
0,1.05416670269241,0.0194444453391775,0.0361111129898289,-0.0461203269660473,-0.029626963660121,0.0219911485910416
0,1.06805562152495,0.0152777788063885,0.0402777795226179,0.00885754637420177,0.0027488935738802,-0.0626136884093285
0,1.02916674604155,0.0166666676506515,0.0444444460554069,0.0690277740359306,0.0033597587607801,-0.015577063895762
0,0.86805557932722,0.0250000007162294,0.0388888906783549,0.00885754637420177,-0.210137650370598,0.283441483974457
0,0.872222254976982,0.0388888906783549,0.0625000010308258,0.0329867228865623,-0.260534018278122,0.438906669616699
0,1.00694447590948,0.0250000007162294,0.0652777787193518,0.0442877300083637,-0.0467311926186085,0.255647093057633
0,0.956944465360051,-0.029166668768514,0.0361111129898289,-0.0189368221908808,0.0464257597923279,0.375376701354981
0,0.904166671044111,-0.00416666691266287,-0.0111111115138517,-0.162490159273148,-0.0729983970522881,0.855211317539215
0,1.0361111082101,-0.027777779924251,0.03194444645704,-0.271835029125214,-0.229990765452385,0.614835858345032
0,1.07916665934326,-0.0222222230277034,0.0125000003581147,-0.24862214922905,-0.138055548071861,0.677144110202789
0,1.08611111875954,-0.0166666676506515,0.00833333382532574,-0.176845490932465,-0.15332718193531,0.756862044334412
0,1.13750002119222,-0.0486111125881959,-0.00972222266958873,-0.132863193750381,-0.10048733651638,0.506712734699249
0,1.06527783775844,-0.0875000002275597,-0.00972222266958873,-0.0699440687894821,-0.0256563406437635,0.353080123662949
0,1.10416671324184,-0.108333335930496,-0.00277777787846293,-0.00366519158706069,0.0864374339580536,0.368046313524246
0,1.04861113515939,-0.112499999424294,0.0236111118719664,-0.0479529201984406,-0.0250454749912024,0.182037845253944
0,1.19305559927467,-0.134722233088466,-0.0402777795226179,0.00977384392172098,0.00641408516094089,-0.101709060370922
0,1.01388893532575,-0.106944444047242,0.0416666683668809,-0.0855211317539215,-0.0769690200686455,-0.120035022497177
0,0.98888888142718,-0.0500000014324589,0.0111111115138517,-0.0335975885391235,-0.17989981174469,0.00549778714776039
0,1.02916674604155,-0.0861111144222878,-0.0361111129898289,-0.0329867228865623,0.0879645943641663,0.00763581553474069
0,1.03888889197661,-0.102777780553444,-0.0125000003581147,0.0186313893646002,0.202807262539864,-0.013744467869401
0,1.04444445950963,-0.108333335930496,-0.0166666676506515,0.0540615729987621,0.262672066688538,-0.0452040284872055
0,1.02222228662528,-0.0916666697993398,0.0708333340964038,0.142942473292351,-0.0571159012615681,0.0412334054708481
0,1.02222228662528,-0.0805555590452358,0.0138888899621255,0.0671951770782471,-0.140193566679955,0.0821613743901253
0,1.03750000009336,-0.106944444047242,-0.00416666691266287,0.0458148941397667,-0.0164933614432812,-0.00366519158706069
0,1.04583335139288,-0.116666675074056,-0.027777779924251,-0.00122173049021512,0.204334422945976,-0.0488692186772823
0,1.04861113515939,-0.130555557438704,-0.0361111129898289,-0.0684169083833694,0.279470860958099,-0.152716308832169
0,1.02222228662528,-0.0444444460554069,0.0819444448505077,0.124311074614525,-0.0403171069920063,-0.064446285367012
0,1.0125000434425,-0.0902777839940679,0.0694444482911319,0.210748508572578,-0.113620936870575,-0.17440202832222
0,0.972222276075846,-0.0736111117849297,0.027777779924251,0.139277279376984,-0.0250454749912024,-0.147829383611679
0,0.958333357243305,-0.0569444456537738,-0.00555555575692586,-0.0268780700862408,0.0125227374956012,-0.0873537287116051
0,0.986111194908388,-0.0847222225390337,-0.00555555575692586,-0.160962998867035,-0.087659165263176,-0.457232624292374
0,0.945833330294018,-0.10972222781375,0.0250000007162294,-0.108428582549095,-0.0696386396884918,-0.809091031551361
0,0.813888941751883,-0.0722222259796579,0.108333335930496,-0.0534507073462009,0.0516181141138077,-1.70736837387085
