Activity,acc_x,acc_y,acc_z,gyro_x,gyro_y,gyro_z
0,0.347222241455659,0.187500003092477,0.909722238577127,-0.000610865245107561,-0.00305432616733015,0.0305432621389627
0,0.356944460326509,0.187500003092477,0.918055589876652,0.00183259579353034,-0.011606439948082,0.0171042270958424
0,0.352777784676747,0.187500003092477,0.930555616825939,0.0128281703218818,-0.0329867228865623,0.021685715764761
0,0.352777784676747,0.187500003092477,0.930555616825939,0.0128281703218818,-0.0329867228865623,0.021685715764761
0,0.348611133338914,0.181944447715425,0.899999995394348,0.0180205255746841,-0.0161879286170006,0.0189368221908808
0,0.348611133338914,0.181944447715425,0.899999995394348,0.00794124789535999,0.0284052342176437,0.0189368221908808
0,0.344444457689151,0.188888894975731,0.905555562927365,0.0290160998702049,0.0302378293126821,0.00824668072164059
0,0.348611133338914,0.193055558469529,0.92083337364316,0.0409279726445675,0.0271835029125214,-0.0045814891345799
0,0.356944460326509,0.194444450352783,0.918055589876652,0.0122173046693206,0.0161879286170006,-0.00977384392172098
0,0.350000000910239,0.190277786858986,0.919444481759906,-0.00824668072164059,0.00427605677396059,-0.0177150927484035
0,0.345833349572405,0.187500003092477,0.909722238577127,-0.0146607663482428,0.0232128798961639,-0.0131336031481624
0,0.351388892793493,0.190277786858986,0.89722221162784,-0.0045814891345799,-0.00610865233466029,-0.00671951752156019
0,0.348611133338914,0.190277786858986,0.906944454810619,0.0339030213654041,0.0189368221908808,-0.0122173046693206
0,0.348611133338914,0.190277786858986,0.906944454810619,0.0461203269660473,0.0241291765123606,-0.00885754637420177
0,0.348611133338914,0.190277786858986,0.906944454810619,0.0473420582711697,0.021685715764761,-0.00397062394768
0,0.356944460326509,0.197222234119292,0.898611103511094,-0.0189368221908808,-0.019547687843442,0.0149661982432008
0,0.356944460326509,0.197222234119292,0.919444481759906,0.00152716308366507,-0.0369573459029198,-0.0033597587607801
0,0.354166676560001,0.202777789496344,0.925000049292922,0.021685715764761,-0.0109955742955208,-0.0134390350431204
0,0.343055565805897,0.193055558469529,0.919444481759906,0.0280998013913631,0.0131336031481624,-0.00885754637420177
0,0.351388892793493,0.197222234119292,0.915277806110144,-0.00671951752156019,0.0149661982432008,0.00519235478714108
0,0.354166676560001,0.193055558469529,0.908333346693873,-0.0235183127224445,-0.0106901414692402,0.0253509078174829
0,0.351388892793493,0.194444450352783,0.911111130460381,-0.0363464802503586,-0.0369573459029198,0.0259617734700441
0,0.354166676560001,0.195833342236038,0.913888914226889,-0.0021380283869803,-0.02382374368608,0.00916297826915979
0,0.354166676560001,0.195833342236038,0.913888914226889,0.0192422550171614,-0.0177150927484035,0.00641408516094089
0,0.354166676560001,0.195833342236038,0.913888914226889,0.0421497002243996,-0.00702495034784079,-0.00733038317412138
0,0.351388892793493,0.19166667874224,0.904166671044111,0.0171042270958424,-0.0259617734700441,-0.00183259579353034
0,0.351388892793493,0.19166667874224,0.904166671044111,0.00794124789535999,-0.0149661982432008,0.000305432622553781
0,0.356944460326509,0.194444450352783,0.911111130460381,-0.000610865245107561,-0.00733038317412138,0.00244346098043024
0,0.351388892793493,0.187500003092477,0.911111130460381,0.0201585534960032,-0.0164933614432812,0.00794124789535999
0,0.350000000910239,0.19166667874224,0.906944454810619,0.0122173046693206,-0.0186313893646002,0.0167987942695618
0,0.351388892793493,0.193055558469529,0.915277806110144,-0.0140499006956816,0.00366519158706069,0.02382374368608
0,0.354166676560001,0.193055558469529,0.909722238577127,-0.0250454749912024,-0.0186313893646002,0.00549778714776039
0,0.370833354847121,0.194444450352783,0.906944454810619,0.00916297826915979,-0.0033597587607801,0.000610865245107561
0,0.359722244093018,0.186111123365188,0.922222265526414,0.00977384392172098,0.0180205255746841,0.00671951752156019
0,0.348611133338914,0.180555567988136,0.89722221162784,-0.0122173046693206,-0.00366519158706069,0.01191187184304
0,0.354166676560001,0.184722231481934,0.911111130460381,-0.0369573459029198,0.00122173049021512,0.0164933614432812
0,0.354166676560001,0.184722231481934,0.911111130460381,-0.0213802829384804,0.00885754637420177,0.00366519158706069
0,0.341666673922643,0.188888894975731,0.913888914226889,0.0381790772080422,0.0219911485910416,-0.0045814891345799
0,0.340277782039389,0.190277786858986,0.906944454810619,0.0778853222727776,0.0256563406437635,-0.00488692196086049
0,0.361111135976272,0.197222234119292,0.906944454810619,0.0424551330506802,0.01191187184304,-0.00549778714776039
0,0.361111135976272,0.193055558469529,0.906944454810619,-0.0308486949652433,0.0235183127224445,-0.0045814891345799
0,0.361111135976272,0.193055558469529,0.906944454810619,-0.0678060427308083,0.011606439948082,0.0021380283869803
0,0.348611133338914,0.184722231481934,0.916666697993398,-0.0210748501121998,0.00977384392172098,0.00733038317412138
0,0.348611133338914,0.184722231481934,0.916666697993398,-0.00794124789535999,0.0149661982432008,0.00397062394768
0,0.351388892793493,0.187500003092477,0.916666697993398,-0.00916297826915979,0.01191187184304,0.00183259579353034
0,0.354166676560001,0.184722231481934,0.916666697993398,0.000916297896765172,0.00977384392172098,-0.00427605677396059
0,0.351388892793493,0.18333333959868,0.915277806110144,0.0494800843298435,-0.0033597587607801,-0.015577063895762
0,0.347222241455659,0.186111123365188,0.911111130460381,0.0934623852372169,0.011606439948082,-0.0164933614432812
0,0.348611133338914,0.187500003092477,0.912500022343635,0.0708603709936142,-0.00671951752156019,-0.00977384392172098
0,0.359722244093018,0.18333333959868,0.89722221162784,0.00549778714776039,-0.0033597587607801,0.00610865233466029
0,0.351388892793493,0.18333333959868,0.904166671044111,-0.015577063895762,0.0128281703218818,0.0189368221908808
0,0.348611133338914,0.190277786858986,0.899999995394348,0.0027488935738802,-0.0113010071218014,0.0265726372599602
0,0.341666673922643,0.197222234119292,0.899999995394348,0.0256563406437635,0.0219911485910416,0.0192422550171614
0,0.358333352209763,0.200000005729836,0.915277806110144,0.00488692196086049,0.0280998013913631,-0.0189368221908808
0,0.358333352209763,0.200000005729836,0.915277806110144,-0.0171042270958424,0.0229074470698834,-0.00794124789535999
0,0.345833349572405,0.184722231481934,0.908333346693873,-0.0226020142436027,0.0335975885391235,-0.013744467869401
0,0.345833349572405,0.184722231481934,0.908333346693873,-0.0262672062963247,0.0339030213654041,0.0265726372599602
0,0.355555568443255,0.18333333959868,0.908333346693873,0.0204639863222837,0.0412334054708481,0.037568211555481
0,0.355555568443255,0.18333333959868,0.908333346693873,0.00183259579353034,0.124311074614525,-0.0140499006956816
0,0.345833349572405,0.187500003092477,0.92083337364316,0.0113010071218014,0.0595593601465225,-0.00427605677396059
0,0.33750002258481,0.188888894975731,0.918055589876652,0.0308486949652433,-0.0201585534960032,0.00366519158706069
0,0.33750002258481,0.188888894975731,0.918055589876652,0.0351247526705265,-0.0461203269660473,0.015577063895762
0,0.334722238818301,0.187500003092477,0.906944454810619,0.0253509078174829,-0.0424551330506802,0.0455094613134861
0,0.341666673922643,0.190277786858986,0.905555562927365,0.0357356183230877,-0.0143553335219622,0.03176499158144
0,0.358333352209763,0.190277786858986,0.905555562927365,0.0256563406437635,0.0305432621389627,0.0180205255746841
0,0.356944460326509,0.18333333959868,0.923611157409668,0.0244346093386412,0.00671951752156019,0.019547687843442
0,0.341666673922643,0.190277786858986,0.918055589876652,0.0207694191485643,-0.0363464802503586,0.0323758572340012
0,0.333333346935047,0.188888894975731,0.922222265526414,0.0436768643558025,-0.00152716308366507,0.0421497002243996
0,0.340277782039389,0.187500003092477,0.913888914226889,0.0678060427308083,-0.0100792767480016,0.0494800843298435
0,0.351388892793493,0.19166667874224,0.906944454810619,0.0464257597923279,-0.0164933614432812,0.0452040284872055
0,0.370833354847121,0.187500003092477,0.901388887277602,0.000610865245107561,0.00641408516094089,0.0128281703218818
0,0.355555568443255,0.193055558469529,0.916666697993398,0.00671951752156019,0.0222965814173222,0.00580321997404099
0,0.341666673922643,0.200000005729836,0.92083337364316,0.0021380283869803,-0.0458148941397667,0.0500909499824047
0,0.361111135976272,0.19166667874224,0.916666697993398,0.0143553335219622,-0.0748309940099716,0.0412334054708481
0,0.363888895430851,0.190277786858986,0.929166724942685,0.00794124789535999,-0.0852157026529312,0.0186313893646002
0,0.347222241455659,0.190277786858986,0.923611157409668,0.0204639863222837,-0.0342084541916847,0.0351247526705265
0,0.315277801076602,0.202777789496344,0.904166671044111,0.0207694191485643,0.000610865245107561,0.0708603709936142
0,0.320833344297689,0.202777789496344,0.893055633225794,0.01191187184304,-0.0177150927484035,0.10598511993885
0,0.380555573717971,0.19166667874224,0.915277806110144,0.0806342139840126,0.0183259565383196,0.0390953756868839
0,0.404166687109433,0.187500003092477,0.94305554652751,0.090408056974411,-0.0103847095742822,-0.0403171069920063
0,0.348611133338914,0.195833342236038,0.938888968125464,0.0629191175103188,0.00488692196086049,-0.0247400421649218
0,0.315277801076602,0.205555561106887,0.927777833059431,0.0439822971820831,0.0186313893646002,0.0308486949652433
0,0.329166671285285,0.208333344873396,0.89722221162784,0.0427605658769607,-0.0565050356090069,0.0791070461273193
0,0.329166671285285,0.208333344873396,0.89722221162784,0.104457959532738,-0.0806342139840126,0.0299323964864016
0,0.390277792588821,0.193055558469529,0.898611103511094,0.0986547395586967,-0.0800233483314514,-0.0247400421649218
0,0.358333352209763,0.193055558469529,0.866666687443965,-0.0186313893646002,-0.058643065392971,-0.0503963828086853
0,0.369444462963867,0.193055558469529,0.89166674134254,-0.0775798857212067,0.0177150927484035,-0.0442877300083637
0,0.355555568443255,0.20138889761309,0.89722221162784,-0.102625362575054,0.00733038317412138,-0.00916297826915979
0,0.361111135976272,0.200000005729836,0.908333346693873,-0.0268780700862408,-0.03176499158144,0.0213802829384804
0,0.370833354847121,0.193055558469529,0.923611157409668,0.0219911485910416,-0.0791070461273193,0.0445931628346443
0,0.365277787314105,0.187500003092477,0.94305554652751,0.0433714315295219,-0.112704634666443,0.0433714315295219
0,0.373611114301701,0.186111123365188,0.940277860008718,-0.00763581553474069,-0.166460782289505,0.0345138870179653
0,0.409722230330521,0.179166676104882,0.93750007624221,-0.0726929605007172,-0.0864374339580536,-0.021685715764761
0,0.394444468238583,0.179166676104882,0.918055589876652,-0.103847093880177,0.0222965814173222,-0.0430659987032413
0,0.363888895430851,0.190277786858986,0.898611103511094,-0.0552833043038845,0.0436768643558025,-0.00671951752156019
0,0.363888895430851,0.188888894975731,0.880555606276507,0.000305432622553781,0.0131336031481624,0.00671951752156019
0,0.341666673922643,0.194444450352783,0.894444525109048,0.0320704244077206,-0.0549778714776039,0.0235183127224445
0,0.359722244093018,0.194444450352783,0.909722238577127,0.00824668072164059,-0.0491746515035629,0.0363464802503586
0,0.365277787314105,0.200000005729836,0.890277849459286,-0.0299323964864016,-0.0268780700862408,0.0262672062963247
0,0.354166676560001,0.195833342236038,0.895833319744586,0.0177150927484035,0.0302378293126821,0.00763581553474069
0,0.348611133338914,0.190277786858986,0.916666697993398,0.0821613743901253,0.000305432622553781,0.011606439948082
0,0.361111135976272,0.193055558469529,0.905555562927365,0.0665843114256859,-0.017409659922123,-0.0177150927484035
0,0.372222246730376,0.193055558469529,0.906944454810619,0.0534507073462009,-0.0339030213654041,-0.0308486949652433
0,0.365277787314105,0.200000005729836,0.883333390043015,0.027488935738802,-0.0400116741657257,-0.021685715764761
0,0.348611133338914,0.198611113846581,0.909722238577127,0.0467311926186085,0.0167987942695618,0.0241291765123606
0,0.368055571080613,0.193055558469529,0.899999995394348,0.0763581544160843,0.0146607663482428,-0.00794124789535999
0,0.363888895430851,0.197222234119292,0.890277849459286,0.0833831056952477,0.0540615729987621,-0.00488692196086049
0,0.365277787314105,0.208333344873396,0.894444525109048,0.0598647929728031,0.03176499158144,-0.01191187184304
0,0.366666679197359,0.208333344873396,0.894444525109048,0.0241291765123606,0.0143553335219622,-0.00366519158706069
0,0.369444462963867,0.202777789496344,0.906944454810619,0.0247400421649218,0.0830776765942574,-0.00763581553474069
0,0.369444462963867,0.202777789496344,0.909722238577127,0.0280998013913631,0.130114302039146,-0.0235183127224445
0,0.369444462963867,0.20138889761309,0.904166671044111,0.0229074470698834,0.149661988019943,-0.0342084541916847
0,0.361111135976272,0.193055558469529,0.904166671044111,0.0482583530247212,0.124616511166096,-0.0372627787292004
0,0.363888895430851,0.202777789496344,0.915277806110144,0.0571159012615681,0.108734011650086,-0.0177150927484035
0,0.363888895430851,0.200000005729836,0.908333346693873,0.0601702257990837,0.109039448201656,-0.0320704244077206
0,0.322222236180943,0.148611115453114,0.790277828360421,-0.234266817569733,-0.76052725315094,0.323453158140182
0,0.343055565805897,0.169444445078067,0.820833352544296,-0.259006857872009,-0.455705463886261,0.291993588209152
0,0.373611114301701,0.17361112072783,0.861111119910949,-0.22693644464016,-0.22754730284214,0.250760197639465
0,0.375000006184955,0.187500003092477,0.873611146860236,-0.277332812547684,-0.532369077205658,0.373238652944565
0,0.377777789951463,0.133333341205212,0.86805557932722,-0.277027398347855,-0.875064492225647,0.583376288414001
0,0.444444478788016,0.197222234119292,0.85138887672817,-0.293520748615265,-0.610865235328674,0.395840674638748
0,0.412500014097029,0.13750000469901,0.78333336894415,-0.366213709115982,-1.05862951278687,0.507629036903381
0,0.377777789951463,0.0819444448505077,0.673611153286365,-0.620639085769653,-1.24433255195618,0.777631461620331
0,0.434722235605237,0.116666675074056,0.712500028769764,-0.9056077003479,-1.19027090072632,0.886670887470245
0,0.541666667496514,0.111111119697004,0.78333336894415,-0.966083407402039,-1.4056009054184,1.04427409172058
0,0.61944446708717,0.118055554801345,0.861111119910949,-0.750142514705658,-1.81549155712128,1.22264683246613
0,0.663888910103586,0.0791666671619817,0.880555606276507,-0.734260022640228,-2.2101104259491,1.25288462638855
0,0.584722267253534,0.180555567988136,0.884722281926269,-0.0891863256692886,-1.25044119358063,1.05954575538635
0,0.781944477060896,0.208333344873396,0.697222266677827,-0.312152147293091,0.617279350757599,-0.121867619454861
0,0.84583340644287,-0.0416666683668809,0.744444493460751,-0.00366519158706069,0.334143280982971,-0.415999233722687
0,0.791666671619817,-0.0916666697993398,0.672222261403111,-0.434936046600342,-1.39368903636932,0.100181899964809
0,0.723611115211939,-0.0138888899621255,0.637500012945616,-0.961807310581207,-1.80083072185516,0.535728812217712
0,0.715277812536273,-0.03194444645704,0.613888899554154,-1.35001218318939,-1.99936199188232,0.867123186588287
0,0.78333336894415,-0.125000002061652,0.652777823661411,-1.28953647613525,-2.57418608665466,1.2046263217926
0,0.733333358394718,-0.250000004123303,0.695833374794573,-0.574213325977325,-3.53110647201538,1.79624927043915
0,1.02916674604155,-0.297222230906227,0.650000039894903,0.433714330196381,-3.44008755683899,1.13162791728973
0,1.24583339359061,-0.330555563168539,0.604166704995233,0.497244298458099,-2.92115759849548,0.386677712202072
0,1.06527783775844,-0.223611131277262,0.477777786738398,0.401338458061218,-2.28616309165955,-0.298102229833603
0,0.904166671044111,-0.180555567988136,0.449999997697174,0.29657506942749,-2.03998446464539,-0.287717521190643
0,0.84583340644287,-0.187500003092477,0.459722240879953,0.126449108123779,-2.53600716590881,-0.149661988019943
0,0.85138887672817,-0.193055558469529,0.440277803138253,0.309403240680695,-2.7513370513916,-0.0390953756868839
0,0.841666730793107,-0.306944449777077,0.437500019371745,1.19118726253509,-2.00760865211487,0.361021369695664
0,0.752777796136418,0.125000002061652,0.270833333748257,0.469755381345749,-1.19027090072632,0.914159834384918
0,0.797222239152834,0.0750000036681839,0.211111128639904,0.127976268529892,-1.3322970867157,0.757778346538544
0,0.786111152710659,-0.0458333348996699,0.206944452990142,0.836579978466034,-2.94284343719482,0.173485726118088
0,0.841666730793107,-0.0361111129898289,0.272222225631511,1.09711396694183,-2.6902506351471,0.107512280344963
0,0.870833363093728,0.0222222230277034,0.238888893369199,0.584598064422607,-2.23729395866394,0.325591176748276
0,0.87500003874349,0.0180555564949145,0.20972223675665,0.233350530266762,-3.10441708564758,-0.0452040284872055
0,0.869444471210474,-0.0722222259796579,0.269444466176932,0.31703907251358,-4.15235662460327,-1.09192156791687
0,0.918055589876652,-0.151388899219622,0.366666679197359,0.100181899964809,-3.62120914459229,-1.23028254508972
0,1.01527782720901,-0.126388893944906,0.377777789951463,-0.261450320482254,-1.61726570129395,-0.304821759462357
0,1.0361111082101,-0.136111112815755,0.323611128064198,-0.037568211555481,0.795957386493683,0.696080923080444
0,0.912500022343635,-0.115277783190802,0.144444451959316,0.25961771607399,1.70614659786224,1.23150432109833
0,1.04583335139288,-0.0805555590452358,0.0541666679652478,-0.144164204597473,0.496022582054138,1.20493173599243
0,1.13750002119222,-0.163888889701015,0.0763888894734557,-0.443793594837189,-1.17958080768585,0.290771842002869
0,1.08194444310977,-0.150000007336368,0.0875000002275597,-0.898582756519318,-2.18995189666748,-1.05496430397034
0,1.15416672379127,-0.108333335930496,0.0180555564949145,-1.26510190963745,-1.57145082950592,-0.857654809951782
0,1.15416672379127,-0.108333335930496,0.0180555564949145,-1.51036429405212,-1.17499935626984,-0.421802461147308
0,1.17500000479237,-0.00972222266958873,-0.0680555564078778,-1.41934537887573,-1.10566604137421,-0.0033597587607801
0,1.05000002704265,-0.033333335301303,-0.118055554801345,-0.37079519033432,-0.875675320625305,0.545502662658691
0,1.02222228662528,-0.0444444460554069,-0.0375000018340919,1.03114056587219,0.515264809131622,0.378125578165054
0,1.0125000434425,-0.029166668768514,-0.120833338567854,1.66277515888214,0.431576281785965,-0.0699440687894821
0,1.16111118320754,-0.0916666697993398,-0.175000000455119,1.31519281864166,-0.777020573616028,-0.92943149805069
0,1.45972225737317,-0.227777782615095,-0.0583333375370279,1.23516952991486,0.602923989295959,0.282525181770325
0,1.42777784130604,-0.158333334323963,-0.141666668192807,0.467006474733353,0.696386396884918,0.622777104377747
0,1.24583339359061,-0.243055569018962,-0.184722231481934,0.238848313689232,-0.226020142436027,0.785878121852875
0,0.984722303025134,-0.120833338567854,-0.184722231481934,0.297796815633774,-0.742812156677246,0.296880513429642
0,0.952777789710289,-0.0750000036681839,-0.17361112072783,0.236710280179977,-0.727845966815948,-0.129808858036995
0,0.919444481759906,-0.143055560076062,-0.16527778158427,0.070249505341053,-0.794430255889893,0.113315500319004
0,0.923611157409668,-0.18333333959868,-0.0791666671619817,0.405003666877747,0.319177091121674,0.540921151638031
0,0.909722238577127,-0.187500003092477,-0.033333335301303,0.607810914516449,0.510377883911133,0.593455612659454
0,0.834722271376837,-0.200000005729836,-0.030555557612777,0.213191971182823,0.10567969083786,0.03176499158144
0,0.818055568777787,0.0250000007162294,-0.150000007336368,-0.711963415145874,-0.616363048553467,-0.69272118806839
0,0.755555579902926,-0.00972222266958873,-0.0708333340964038,-0.518013715744019,-0.208610475063324,-1.40315747261047
0,0.87500003874349,-0.125000002061652,-0.311111125426839,-1.4001030921936,-1.71133899688721,-1.49845242500305
0,1.09861114570882,-0.0625000010308258,-0.229166674498349,-1.1823296546936,-0.488997638225555,0.335059583187103
0,1.35000009033924,-0.430555559955475,-0.206944452990142,0.156381502747536,-0.350025773048401,1.26143670082092
0,1.16666675074056,-0.055555559848502,-0.259722222994153,-0.0772744566202164,-0.17989981174469,0.924849987030029
0,1.13194445365921,-0.154166670830166,-0.237500001485945,0.0372627787292004,-0.240986332297325,0.564134061336517
0,1.04027778385987,-0.212499996211229,-0.222222239394008,0.204028993844986,-0.0268780700862408,0.536645114421844
0,1.00138890837647,-0.184722231481934,-0.256944463539574,0.0748309940099716,-0.325896620750427,0.355829000473023
0,1.08750001064279,-0.269444466176932,-0.268055574293678,-0.0821613743901253,-0.820697486400604,-0.161268427968025
0,1.10138892947533,-0.297222230906227,-0.169444445078067,-0.214719131588936,-0.261450320482254,-0.167377084493637
0,1.02777785415829,-0.175000000455119,-0.244444460902216,-0.346666038036346,-0.00641408516094089,-0.413555771112442
0,0.913888914226889,-0.00555555575692586,-0.184722231481934,-0.483499854803085,0.464257597923279,-1.16766893863678
0,0.918055589876652,-0.330555563168539,-0.238888893369199,-0.140499010682106,-0.273973047733307,-0.383623361587524
0,1.0902777944093,-0.223611131277262,-0.283333336385615,0.04764748737216,-0.295353353023529,-0.087659165263176
0,0.977777843608863,-0.163888889701015,-0.24583335278547,-0.0931569486856461,-0.389732033014297,-0.106901414692402
0,0.919444481759906,-0.12777778582816,-0.275000009398019,-0.0977384373545647,-0.0748309940099716,0.0751364231109619
0,0.972222276075846,-0.118055554801345,-0.308333341660331,-0.108428582549095,-0.106595985591412,0.140193566679955
0,0.925000049292922,-0.138888896582264,-0.305555557893823,-0.0525344125926495,-0.168598800897598,0.476780325174332
0,0.86805557932722,-0.102777780553444,-0.281944444502361,0.0384845100343227,0.0897971913218498,0.880562245845795
0,0.990277773310434,-0.125000002061652,-0.365277787314105,-0.224798411130905,0.464868456125259,-0.234572261571884
0,1.12777777800944,-0.290277795801886,-0.325000019947452,0.0131336031481624,0.674395203590393,-0.29596421122551
0,0.934722292475701,-0.202777789496344,-0.250000004123303,0.0647517144680023,0.112704634666443,-0.769079327583313
0,0.934722292475701,-0.241666677135707,-0.140277788465518,-0.107817716896534,0.313679307699203,-1.25716066360474
0,1.07777786470773,-0.180555567988136,-0.206944452990142,0.258395999670029,0.0351247526705265,-1.07359564304352
0,1.02222228662528,-0.134722233088466,-0.236111109602691,0.102014496922493,0.0335975885391235,-0.956614971160889
0,0.99583334084345,-0.00694444498106275,-0.301388906555989,-0.0409279726445675,0.00946841109544039,-0.631634652614594
0,0.990277773310434,-0.029166668768514,-0.298611122789481,-0.134695783257484,0.141720741987228,-0.500909507274628
0,0.933333400592447,-0.0458333348996699,-0.263888898643915,-0.21135938167572,0.165239050984383,-0.53481251001358
0,0.959722249126559,-0.0902777839940679,-0.233333350148112,-0.235183119773865,0.310319542884827,-0.655458390712738
0,1.01111115155925,-0.0694444482911319,-0.24583335278547,-0.0427605658769607,0.482583552598953,-0.406836241483688
0,0.976388951725609,-0.0222222230277034,-0.234722242031366,0.000305432622553781,0.559858024120331,0.0363464802503586
0,0.705555569353494,0.0708333340964038,-0.163888889701015,0.300240278244019,0.363159388303757,1.70034337043762
0,0.93750007624221,-0.0500000014324589,-0.247222220356795,0.138360977172852,0.101709060370922,1.75959730148315
0,1.25277785300688,-0.13750000469901,-0.215277779977737,0.0192422550171614,0.0256563406437635,1.08184230327606
0,1.25555563677339,-0.180555567988136,-0.248611112240049,0.0812450796365738,0.294131606817245,0.401949346065521
0,1.10138892947533,-0.13750000469901,-0.186111123365188,0.0259617734700441,0.136528387665749,0.387288570404053
0,1.14861115625826,-0.17361112072783,-0.211111128639904,0.0739146918058395,0.224187538027763,-0.027488935738802
0,1.04583335139288,-0.154166670830166,-0.286111120152123,0.292909890413284,0.868039488792419,-0.0598647929728031
0,1.03888889197661,-0.123611110178398,-0.17361112072783,0.314290165901184,1.0833694934845,-0.0552833043038845
0,1.00138890837647,-0.134722233088466,-0.141666668192807,0.037568211555481,1.25807702541351,0.0366519130766392
0,0.979166735492117,-0.154166670830166,-0.00972222266958873,0.252898216247559,0.194560587406159,-0.0189368221908808
0,1.0125000434425,-0.116666675074056,-0.14722222356986,0.0400116741657257,0.0485637858510017,0.00549778714776039
0,1.00972225967599,-0.111111119697004,-0.14722222356986,-0.146302223205566,0.0513126812875271,0.0604756586253643
0,1.02083339474202,-0.134722233088466,-0.0986111170596459,0.0183259565383196,0.0616973899304867,0.0045814891345799
0,0.987499989543926,-0.120833338567854,-0.118055554801345,0.0510072484612465,0.139888137578964,0.0479529201984406
0,1.05972227022542,-0.154166670830166,-0.0833333367337618,0.19058994948864,-0.0400116741657257,-0.0219911485910416
0,0.94305554652751,-0.158333334323963,-0.14722222356986,0.0983493030071259,0.0180205255746841,-0.0580321997404099
0,1.02222228662528,-0.131944449321958,-0.14722222356986,-0.148440256714821,-0.29107728600502,-0.32192599773407
0,0.959722249126559,-0.10972222781375,-0.177777784221628,-0.129197999835014,-0.213802829384804,-0.390342891216278
0,0.959722249126559,-0.10972222781375,-0.177777784221628,-0.149967417120934,0.0974330082535744,-0.291688144207001
0,0.994444448960196,-0.111111119697004,-0.148611115453114,-0.128892570734024,0.0372627787292004,-0.583987176418304
0,0.954166681593543,-0.0833333367337618,-0.0680555564078778,0.0247400421649218,-0.317649930715561,-0.40714168548584
0,0.954166681593543,-0.0833333367337618,-0.0680555564078778,0.0253509078174829,-0.451123982667923,-0.352774679660797
0,0.983333411141879,-0.118055554801345,-0.13750000469901,-0.0598647929728031,-0.230907067656517,-0.283746898174286
0,1.12499999424293,-0.0916666697993398,-0.184722231481934,0.0522289797663689,-0.0965167060494423,-0.408363401889801
0,1.22222223157529,-0.0652777787193518,-0.198611113846581,0.0659734457731247,0.087659165263176,-0.277638256549835
0,1.07638897282447,-0.0416666683668809,-0.262500006760661,-0.125838235020638,0.456927210092545,-0.0861319974064827
0,1.00833336779274,-0.104166672436698,-0.0819444448505077,-0.0552833043038845,0.160657554864883,-0.263588339090347
0,0.952777789710289,-0.0986111170596459,-0.0763888894734557,-0.0971275717020035,0.0400116741657257,-0.239764615893364
0,1.01944450285877,-0.052777782159976,-0.133333341205212,-0.0742201283574104,0.0922406539320946,-0.176234617829323
0,1.03888889197661,-0.0513888902767219,-0.144444451959316,0.0363464802503586,0.0268780700862408,-0.113620936870575
0,1.02500007039179,-0.0361111129898289,-0.10972222781375,-0.011606439948082,-0.0033597587607801,-0.0516181141138077
0,1.04444445950963,-0.0402777795226179,-0.206944452990142,-0.314595609903336,-0.0485637858510017,-0.0229074470698834
0,0.997222232726705,-0.0597222233422998,-0.138888896582264,-0.182037845253944,-0.361326783895493,0.151800006628036
0,0.819444460661041,-0.052777782159976,-0.0680555564078778,-0.178678080439568,-0.545197248458862,0.462424993515015
0,0.737500034044481,-0.029166668768514,-0.0972222251763917,-0.119118720293045,-0.362243086099625,0.960891008377075
0,1.16944453450707,-0.0416666683668809,-0.143055560076062,0.470366239547729,-0.177456349134445,0.141415297985077
0,1.24583339359061,-0.0986111170596459,-0.12916666555545,0.426994800567627,-0.11606439948082,0.0351247526705265
0,1.06250005399193,-0.0986111170596459,-0.252777787889811,0.107512280344963,0.340862810611725,0.0360410511493683
0,1.10000003759208,-0.0472222237439329,-0.326388911830706,-0.0497855171561241,0.718682944774628,0.0201585534960032
0,1.08472222687628,-0.0500000014324589,-0.14722222356986,0.0335975885391235,0.648738861083984,-0.0241291765123606
0,1.02777785415829,-0.0791666671619817,-0.12916666555545,0.0229074470698834,0.498160600662232,0.0210748501121998
0,0.981944519258625,-0.0819444448505077,-0.111111119697004,-0.000916297896765172,0.24862214922905,-0.00183259579353034
0,1.01944450285877,-0.0847222225390337,-0.118055554801345,0.019547687843442,0.274889349937439,-0.0470366254448891
0,1.0361111082101,-0.0680555564078778,-0.130555557438704,0.01588249579072,0.315511912107468,-0.0271835029125214
0,1.01805561097552,-0.0708333340964038,-0.100000002864918,-0.0183259565383196,0.172874867916107,-0.0171042270958424
0,1.01944450285877,-0.0791666671619817,-0.0930555616825939,-0.0613919571042061,0.141720741987228,-0.0372627787292004
0,1.02777785415829,-0.0805555590452358,-0.0944444474878658,-0.186924770474434,0.021685715764761,-0.0803287774324417
0,0.983333411141879,-0.0666666706026059,-0.144444451959316,-0.331088960170746,-0.0571159012615681,-0.0436768643558025
0,1.01388893532575,-0.0708333340964038,-0.0750000036681839,-0.183870434761047,-0.0534507073462009,-0.0381790772080422
0,1.02500007039179,-0.0722222259796579,-0.0722222259796579,-0.0949895456433296,-0.0131336031481624,-0.0442877300083637
0,0.993055557076942,-0.0722222259796579,-0.055555559848502,0.0335975885391235,0.015577063895762,0.0555887371301651
0,0.986111194908388,-0.0805555590452358,-0.03194444645704,0.246789559721947,-0.0946841165423393,0.103541657328606
0,1.04444445950963,-0.0763888894734557,-0.0819444448505077,0.318260788917542,-0.179288953542709,0.0757472887635231
0,1.01388893532575,-0.0375000018340919,-0.144444451959316,0.0357356183230877,-0.186313897371292,0.0390953756868839
0,1.04861113515939,-0.0819444448505077,-0.161111118090472,-0.0198531206697226,-0.0268780700862408,0.04764748737216
0,1.07222229717471,-0.100000002864918,-0.123611110178398,-0.013744467869401,-0.0229074470698834,-0.087659165263176
0,1.01944450285877,-0.0930555616825939,-0.115277783190802,0.0464257597923279,0.0207694191485643,-0.116675265133381
0,1.01805561097552,-0.0763888894734557,-0.161111118090472,0.0113010071218014,0.155159771442413,-0.0833831056952477
0,1.00694447590948,-0.0680555564078778,-0.12777778582816,0.0287106670439243,0.134084925055504,-0.0781907513737679
0,1.03472221632685,-0.0750000036681839,-0.0861111144222878,0.0345138870179653,0.224798411130905,-0.064446285367012
0,1.0361111082101,-0.0625000010308258,-0.101388894748172,0.0852157026529312,0.368046313524246,-0.0659734457731247
0,1.01527782720901,-0.0597222233422998,-0.0805555590452358,0.0781907513737679,0.188757359981537,-0.0965167060494423
0,1.00416669214298,-0.0416666683668809,-0.105555564319952,0.107206851243973,0.112093769013882,-0.0546724386513233
0,1.01944450285877,-0.0513888902767219,-0.102777780553444,0.0919352173805237,-0.0308486949652433,-0.0201585534960032
0,1.01666671909226,-0.0513888902767219,-0.0847222225390337,0.0610865242779255,-0.11606439948082,-0.0244346093386412
0,1.00277780025972,-0.0625000010308258,-0.0986111170596459,0.0433714315295219,-0.111788339912891,0.000610865245107561
0,1.01527782720901,-0.0750000036681839,-0.105555564319952,-0.0320704244077206,-0.03176499158144,0.027488935738802
0,1.03194452980806,-0.0680555564078778,-0.118055554801345,-0.0806342139840126,0.081855945289135,0.0381790772080422
0,1.00416669214298,-0.055555559848502,-0.13750000469901,-0.145080491900444,0.225714713335037,0.140193566679955
0,1.01944450285877,-0.0500000014324589,-0.105555564319952,-0.220522359013557,0.148134827613831,0.251676470041275
0,1.01944450285877,-0.0500000014324589,-0.105555564319952,-0.0812450796365738,-0.198836639523506,0.16920967400074
0,1.02638896227504,-0.0847222225390337,-0.0347222241455659,0.037568211555481,-0.228769034147263,0.101709060370922
0,1.02638896227504,-0.0847222225390337,-0.0347222241455659,0.0769690200686455,-0.184175878763199,0.0925460830330849
0,1.01111115155925,-0.055555559848502,-0.0722222259796579,0.183565005660057,-0.525954961776733,0.0131336031481624
0,1.07500008094122,-0.0625000010308258,-0.0736111117849297,-0.105068825185299,-0.852462470531464,0.122173048555851
0,1.05694448645892,-0.0652777787193518,-0.12777778582816,-0.0326812900602817,-0.615446746349335,0.00519235478714108
0,1.0125000434425,-0.0958333393711199,-0.229166674498349,0.199447497725487,1.20859694480896,-0.00183259579353034
0,1.00833336779274,-0.0694444482911319,-0.169444445078067,-0.300851136445999,0.639881372451782,0.0360410511493683
0,0.970833384192592,-0.0680555564078778,-0.122222230451108,-0.037568211555481,0.240375474095344,0.0033597587607801
0,0.983333411141879,-0.0763888894734557,-0.03194444645704,-0.0378736443817616,-0.121256753802299,-0.00366519158706069
0,1.01805561097552,-0.0833333367337618,-0.105555564319952,-0.0345138870179653,0.0320704244077206,-0.00580321997404099
0,1.04444445950963,-0.0875000002275597,-0.125000002061652,-0.0583376325666905,0.149356558918953,-0.0259617734700441
0,1.04166667574312,-0.0888888921108138,-0.104166672436698,-0.0733038261532784,0.15851953625679,-0.0308486949652433
0,1.0361111082101,-0.0902777839940679,-0.104166672436698,-0.0302378293126821,0.128281697630882,-0.0204639863222837
0,1.00972225967599,-0.0916666697993398,-0.0777777813567098,0.0916297882795334,-0.0726929605007172,0.00916297826915979
0,1.00000001649321,-0.0930555616825939,-0.0777777813567098,0.102014496922493,-0.167377084493637,0.00122173049021512
0,1.00833336779274,-0.101388894748172,-0.0958333393711199,0.129808858036995,-0.157603234052658,-0.00794124789535999
0,1.01944450285877,-0.106944444047242,-0.101388894748172,0.159741267561913,-0.15332718193531,-0.0284052342176437
0,1.02500007039179,-0.0958333393711199,-0.0930555616825939,0.162490159273148,-0.16371189057827,-0.0183259565383196
0,1.01944450285877,-0.0694444482911319,-0.0861111144222878,0.177761793136597,-0.117286130785942,0.0693332031369209
0,1.00416669214298,-0.0194444453391775,-0.12916666555545,0.0754418596625328,-0.0693332031369209,0.0421497002243996
0,1.02222228662528,-0.0347222241455659,-0.126388893944906,-0.0253509078174829,0.112704634666443,0.0775798857212067
0,1.04583335139288,-0.052777782159976,-0.126388893944906,0.0360410511493683,-0.150883719325066,-0.154854342341423
0,1.07638897282447,-0.112499999424294,-0.0888888921108138,-0.0806342139840126,-0.00152716308366507,-0.0418442711234093
0,1.00833336779274,-0.0458333348996699,-0.140277788465518,0.00702495034784079,-0.0235183127224445,0.0164933614432812
0,0.990277773310434,-0.0388888906783549,-0.0916666697993398,-0.0742201283574104,-0.305432617664337,0.0427605658769607
0,1.00972225967599,-0.0430555572111439,-0.0944444474878658,-0.0830776765942574,-0.340557366609573,0.0815505087375641
0,1.02083339474202,-0.0722222259796579,-0.0986111170596459,-0.0705549344420433,-0.412028610706329,0.0397062413394451
0,1.02916674604155,-0.0847222225390337,-0.134722233088466,-0.0659734457731247,-0.317344486713409,0.0345138870179653
0,1.03472221632685,-0.0875000002275597,-0.130555557438704,-0.0403171069920063,-0.182954147458077,0.0284052342176437
0,1.04166667574312,-0.0888888921108138,-0.13750000469901,0.0033597587607801,-0.0204639863222837,0.0207694191485643
0,1.00555558402623,-0.0944444474878658,-0.101388894748172,0.165849909186363,-0.504880130290985,0.0189368221908808
0,0.998611124609959,-0.104166672436698,-0.125000002061652,0.0363464802503586,-0.297185927629471,0.0577267669141293
0,1.01944450285877,-0.0777777813567098,-0.177777784221628,0.0210748501121998,-0.0858265683054924,0.0668897479772568
0,1.0305556379248,-0.0847222225390337,-0.179166676104882,-0.00824668072164059,-0.00824668072164059,0.0500909499824047
0,1.01527782720901,-0.0875000002275597,-0.156944454596674,-0.0439822971820831,-0.0940732508897781,0.0348193198442459
0,0.979166735492117,-0.0750000036681839,-0.1194444466846,-0.121256753802299,-0.396451532840729,0.0473420582711697
0,1.00277780025972,-0.0736111117849297,-0.138888896582264,-0.0662788823246956,-0.419664412736893,0.0711658000946045
0,1.03888889197661,-0.0944444474878658,-0.187500003092477,0.0629191175103188,-0.210748508572578,0.0488692186772823
0,1.07638897282447,-0.108333335930496,-0.243055569018962,0.078801617026329,0.464868456125259,0.0152716310694814
0,1.0513889189259,-0.118055554801345,-0.280555576931036,-0.0986547395586967,0.89949905872345,0.0219911485910416
0,1.01666671909226,-0.112499999424294,-0.170833336961321,-0.21135938167572,0.704633057117462,-0.00519235478714108
0,1.02638896227504,-0.120833338567854,-0.163888889701015,-0.144469633698463,0.561385154724121,-0.0171042270958424
0,0.99583334084345,-0.102777780553444,-0.0513888902767219,-0.0897971913218498,0.152716308832169,0.0311541277915239
0,1.0125000434425,-0.0875000002275597,-0.122222230451108,-0.156992360949516,-0.0213802829384804,0.0445931628346443
0,1.0125000434425,-0.0888888921108138,-0.133333341205212,-0.18020524084568,0.0109955742955208,0.0739146918058395
0,1.02222228662528,-0.0847222225390337,-0.0152777788063885,0.0335975885391235,-0.310930401086807,0.0311541277915239
0,1.00555558402623,-0.104166672436698,-0.029166668768514,0.129808858036995,-0.404087364673615,-0.0299323964864016
0,1.0305556379248,-0.101388894748172,-0.206944452990142,-0.0152716310694814,-0.0180205255746841,-0.0299323964864016
0,1.00277780025972,-0.055555559848502,-0.200000005729836,-0.207083314657211,0.00580321997404099,0.0403171069920063
0,1.02500007039179,-0.0652777787193518,-0.188888894975731,-0.115453533828259,0.22204951941967,0.0189368221908808
0,1.07916665934326,-0.0944444474878658,-0.120833338567854,-0.0415388382971287,0.329867243766785,-0.0809396430850029
0,1.02222228662528,-0.148611115453114,-0.0444444460554069,0.193949714303017,0.232128798961639,-0.0675006061792374
0,0.947222222177272,-0.0652777787193518,-0.166666673467524,-0.417526394128799,-0.17989981174469,0.0623082555830479
0,1.05833337834217,-0.0847222225390337,-0.144444451959316,-0.0473420582711697,0.0549778714776039,0.0360410511493683
0,1.04583335139288,-0.118055554801345,-0.134722233088466,-0.0980438739061356,0.160657554864883,-0.00549778714776039
0,1.03750000009336,-0.118055554801345,-0.125000002061652,0.149967417120934,0.222965821623802,-0.021685715764761
0,1.03750000009336,-0.118055554801345,-0.125000002061652,0.149967417120934,0.222965821623802,-0.021685715764761
0,0.973611167959101,-0.0930555616825939,-0.1194444466846,0.0381790772080422,-0.0424551330506802,0.015577063895762
0,1.01388893532575,-0.104166672436698,-0.112499999424294,0.11606439948082,-0.0849102661013603,0.000916297896765172
0,1.03750000009336,-0.10972222781375,-0.131944449321958,0.167377084493637,0.138666406273842,-0.0204639863222837
0,1.01111115155925,-0.152777778946911,0.0194444453391775,0.577267646789551,-0.568104684352875,0.0436768643558025
0,1.00555558402623,-0.120833338567854,-0.18333333959868,0.0934623852372169,-1.14445602893829,-0.0397062413394451
0,1.08333333499303,-0.0708333340964038,-0.269444466176932,0.144164204597473,-0.371406078338623,0.0516181141138077
0,1.08472222687628,-0.0819444448505077,-0.205555561106887,0.200363799929619,0.0580321997404099,0.0366519130766392
0,1.07500008094122,-0.134722233088466,-0.16527778158427,0.130419731140137,0.385150551795959,-0.0589484944939613
0,1.06527783775844,-0.150000007336368,-0.12777778582816,0.180816113948822,0.573907911777496,-0.157297804951668
0,1.01944450285877,-0.112499999424294,-0.120833338567854,0.0806342139840126,0.383928805589676,-0.182037845253944
0,0.951388897827035,-0.052777782159976,-0.0875000002275597,-0.00916297826915979,0.0256563406437635,-0.0323758572340012
0,1.04166667574312,-0.03194444645704,-0.120833338567854,-0.0400116741657257,-0.143553331494331,0.0436768643558025
0,1.08194444310977,-0.0250000007162294,-0.133333341205212,0.15332718193531,0.0479529201984406,0.0464257597923279
0,1.03194452980806,-0.0486111125881959,-0.0722222259796579,0.259006857872009,0.019547687843442,0.0659734457731247
0,1.02777785415829,-0.055555559848502,-0.0944444474878658,0.220522359013557,-0.0134390350431204,0.0513126812875271
0,1.02222228662528,-0.0875000002275597,-0.111111119697004,0.116675265133381,0.142331600189209,-0.0265726372599602
0,0.984722303025134,-0.0750000036681839,-0.0847222225390337,-0.0907134860754013,0.0473420582711697,-0.00122173049021512
0,0.998611124609959,-0.0750000036681839,-0.0777777813567098,-0.0540615729987621,-0.0632245540618896,-0.013744467869401
0,1.02500007039179,-0.0777777813567098,-0.116666675074056,-0.0415388382971287,-0.0400116741657257,-0.00397062394768
0,1.03472221632685,-0.0694444482911319,-0.13750000469901,-0.0360410511493683,-0.00152716308366507,-0.0021380283869803
0,1.02916674604155,-0.0722222259796579,-0.12777778582816,-0.0513126812875271,0.00122173049021512,0.00244346098043024
0,1.02916674604155,-0.0722222259796579,-0.108333335930496,-0.0473420582711697,-0.00397062394768,-0.00305432616733015
0,1.01944450285877,-0.0722222259796579,-0.125000002061652,-0.0589484944939613,-0.0366519130766392,0.0213802829384804
0,1.01944450285877,-0.0722222259796579,-0.125000002061652,-0.0681114718317986,-0.037568211555481,0.0363464802503586
0,1.01527782720901,-0.0791666671619817,-0.136111112815755,-0.0934623852372169,-0.0381790772080422,0.0409279726445675
0,1.0125000434425,-0.0763888894734557,-0.12777778582816,-0.119118720293045,-0.0583376325666905,0.0311541277915239
0,1.0125000434425,-0.0763888894734557,-0.12777778582816,-0.0769690200686455,-0.090408056974411,0.0503963828086853
0,0.793055563503071,-0.102777780553444,-0.344444457689151,1.19301986694336,2.16948795318604,0.453872889280319
0,1.23055558287482,-0.0250000007162294,-0.363888895430851,-0.485943287611008,0.879340529441833,-0.0192422550171614
0,0.962500032893068,-0.125000002061652,-0.0194444453391775,-0.459676086902618,-1.83229029178619,-0.0427605658769607
0,0.877777822509998,-0.0819444448505077,0.0513888902767219,0.0442877300083637,-1.64322745800018,0.0519235469400883
0,1.11111117265811,-0.113888891307548,-0.25555557165632,0.124311074614525,0.0494800843298435,0.0268780700862408
0,1.08472222687628,-0.113888891307548,-0.259722222994153,0.0497855171561241,0.370489776134491,0.00610865233466029
0,0.991666665193688,-0.104166672436698,-0.125000002061652,0.0381790772080422,-0.0470366254448891,0.00305432616733015
0,0.99583334084345,-0.102777780553444,-0.0930555616825939,0.108734011650086,-0.167377084493637,0.000610865245107561
0,1.02222228662528,-0.100000002864918,-0.134722233088466,0.157297804951668,-0.0946841165423393,0.01191187184304
0,1.02222228662528,-0.101388894748172,-0.148611115453114,0.164933621883392,-0.04764748737216,0.0198531206697226
0,1.01666671909226,-0.108333335930496,-0.143055560076062,0.138055548071861,-0.0827722400426865,0.0302378293126821
0,1.01944450285877,-0.105555564319952,-0.126388893944906,0.143553331494331,-0.131946891546249,0.0277943685650826
0,1.0125000434425,-0.108333335930496,-0.12777778582816,0.162184715270996,-0.1750128865242,0.0409279726445675
0,1.00972225967599,-0.101388894748172,-0.140277788465518,0.138666406273842,-0.193033412098885,0.04764748737216
0,1.01388893532575,-0.108333335930496,-0.152777778946911,0.12156218290329,-0.172263994812965,0.0403171069920063
0,1.01805561097552,-0.116666675074056,-0.144444451959316,0.130114302039146,-0.171042263507843,0.0302378293126821
0,1.01805561097552,-0.130555557438704,-0.140277788465518,0.165849909186363,-0.183259576559067,0.0250454749912024
0,1.01111115155925,-0.13750000469901,-0.130555557438704,0.203112691640854,-0.178372651338577,0.00916297826915979
0,1.00972225967599,-0.134722233088466,-0.12777778582816,0.22204951941967,-0.197614908218384,-0.0045814891345799
0,1.01527782720901,-0.12916666555545,-0.130555557438704,0.256257981061935,-0.214413702487946,0.00122173049021512
0,1.02916674604155,-0.12777778582816,-0.130555557438704,0.292604446411133,-0.231212496757507,-0.0131336031481624
0,1.03194452980806,-0.123611110178398,-0.144444451959316,0.322231411933899,-0.239764615893364,-0.0256563406437635
0,1.01944450285877,-0.122222230451108,-0.176388892338373,0.34941491484642,-0.226020142436027,-0.0305432621389627
0,1.00833336779274,-0.120833338567854,-0.180555567988136,0.357661604881287,-0.19028452038765,-0.0348193198442459
0,1.00416669214298,-0.108333335930496,-0.18333333959868,0.329256355762482,-0.120035022497177,-0.00671951752156019
0,1.02083339474202,-0.101388894748172,-0.156944454596674,0.277027398347855,-0.0675006061792374,0.00397062394768
0,1.02083339474202,-0.101388894748172,-0.156944454596674,0.221133217215538,-0.116675265133381,-0.00549778714776039
0,1.02222228662528,-0.0847222225390337,-0.111111119697004,0.149967417120934,-0.307876080274582,-0.0100792767480016
0,1.02222228662528,-0.0902777839940679,-0.116666675074056,0.112093769013882,-0.409585148096085,-0.0033597587607801
0,1.02222228662528,-0.108333335930496,-0.150000007336368,0.0610865242779255,-0.412028610706329,0.00427605677396059
0,1.02083339474202,-0.12777778582816,-0.177777784221628,0.00641408516094089,-0.320704251527786,-0.00977384392172098
0,1.02083339474202,-0.12777778582816,-0.177777784221628,-0.0626136884093285,-0.206777885556221,-0.0280998013913631
0,1.00277780025972,-0.134722233088466,-0.168055565350778,-0.0934623852372169,-0.164628177881241,-0.0418442711234093
0,1.00555558402623,-0.125000002061652,-0.194444450352783,-0.110261179506779,-0.0690277740359306,-0.0311541277915239
0,1.01944450285877,-0.118055554801345,-0.215277779977737,-0.148745685815811,0.108428582549095,-0.0106901414692402
0,1.02916674604155,-0.122222230451108,-0.208333344873396,-0.170125976204872,0.172263994812965,-0.01588249579072
0,1.02222228662528,-0.125000002061652,-0.198611113846581,-0.193949714303017,0.162184715270996,-0.0109955742955208
0,1.0125000434425,-0.122222230451108,-0.200000005729836,-0.196698606014252,0.153632611036301,-0.0171042270958424
0,1.01805561097552,-0.113888891307548,-0.202777789496344,-0.202501833438873,0.17409659922123,-0.0519235469400883
0,1.01527782720901,-0.108333335930496,-0.2194444556275,-0.237015709280968,0.192727982997894,-0.0772744566202164
0,1.00277780025972,-0.104166672436698,-0.204166669223633,-0.267253547906876,0.207999616861343,-0.0675006061792374
0,1.00277780025972,-0.104166672436698,-0.204166669223633,-0.274278491735458,0.201280102133751,-0.0720821022987366
0,0.99583334084345,-0.101388894748172,-0.20138889761309,-0.256868839263916,0.137139245867729,-0.0507018156349659
0,1.01388893532575,-0.0861111144222878,-0.20972223675665,-0.218689754605293,0.157297804951668,-0.0311541277915239
0,1.01527782720901,-0.0791666671619817,-0.25555557165632,-0.178372651338577,0.180816113948822,-0.0262672062963247
0,1.02083339474202,-0.0902777839940679,-0.273611117514765,-0.224492982029915,0.213802829384804,-0.013744467869401
0,1.02083339474202,-0.100000002864918,-0.244444460902216,-0.277332812547684,0.232128798961639,-0.0161879286170006
0,1.0125000434425,-0.0944444474878658,-0.179166676104882,-0.274278491735458,0.147218525409698,-0.000610865245107561
0,0.997222232726705,-0.0944444474878658,-0.134722233088466,-0.225409269332886,-0.0439822971820831,0.0213802829384804
0,0.99583334084345,-0.0916666697993398,-0.134722233088466,-0.156686931848526,-0.121256753802299,0.0134390350431204
0,0.997222232726705,-0.0986111170596459,-0.169444445078067,-0.0968221426010132,-0.125532805919647,0.0106901414692402
0,0.994444448960196,-0.101388894748172,-0.18333333959868,-0.0235183127224445,-0.0849102661013603,0.00641408516094089
0,0.983333411141879,-0.108333335930496,-0.190277786858986,0.0213802829384804,-0.0598647929728031,-0.0134390350431204
0,0.977777843608863,-0.101388894748172,-0.200000005729836,0.0565050356090069,-0.0491746515035629,-0.0314595587551594
0,0.991666665193688,-0.101388894748172,-0.200000005729836,0.103541657328606,-0.0479529201984406,-0.0458148941397667
0,1.01527782720901,-0.105555564319952,-0.212499996211229,0.150272846221924,-0.00641408516094089,-0.04764748737216
0,1.03472221632685,-0.100000002864918,-0.211111128639904,0.1795943826437,0.0259617734700441,-0.0436768643558025
0,1.04305556762637,-0.0944444474878658,-0.211111128639904,0.187841057777405,0.0293215326964855,-0.0580321997404099
0,1.02361117850853,-0.0888888921108138,-0.202777789496344,0.189979091286659,0.0271835029125214,-0.0507018156349659
0,1.00833336779274,-0.0875000002275597,-0.202777789496344,0.204028993844986,0.0134390350431204,-0.0470366254448891
0,1.00694447590948,-0.0875000002275597,-0.193055558469529,0.207694187760353,0.0219911485910416,-0.0320704244077206
0,1.00555558402623,-0.0763888894734557,-0.190277786858986,0.192117124795914,0.0186313893646002,-0.0329867228865623
0,1.00277780025972,-0.0694444482911319,-0.179166676104882,0.17470745742321,-0.0180205255746841,-0.0167987942695618
0,0.99583334084345,-0.055555559848502,-0.176388892338373,0.167987942695618,-0.0681114718317986,0.00733038317412138
0,0.991666665193688,-0.0458333348996699,-0.17361112072783,0.155465200543404,-0.120340451598167,0.0210748501121998
0,1.00277780025972,-0.0486111125881959,-0.170833336961321,0.175318330526352,-0.133168622851372,0.0445931628346443
0,1.02222228662528,-0.0680555564078778,-0.197222234119292,0.211053937673569,-0.0992656052112579,0.0693332031369209
0,1.02638896227504,-0.0916666697993398,-0.202777789496344,0.239153742790222,-0.0479529201984406,0.0540615729987621
0,1.02222228662528,-0.0986111170596459,-0.200000005729836,0.262977480888367,-0.0387899428606033,0.0207694191485643
0,1.02083339474202,-0.0986111170596459,-0.187500003092477,0.313068449497223,-0.0540615729987621,-0.00977384392172098
0,1.01527782720901,-0.101388894748172,-0.206944452990142,0.374765813350677,-0.0775798857212067,-0.00702495034784079
0,1.01527782720901,-0.0944444474878658,-0.216666671860991,0.428827404975891,-0.0415388382971287,0.00397062394768
0,1.02222228662528,-0.0944444474878658,-0.229166674498349,0.453567445278168,-0.0125227374956012,-0.01191187184304
0,1.02083339474202,-0.0847222225390337,-0.216666671860991,0.493579119443893,-0.0222965814173222,-0.0131336031481624
0,1.01944450285877,-0.0833333367337618,-0.216666671860991,0.523206055164337,-0.058643065392971,0.0021380283869803
0,1.00972225967599,-0.0750000036681839,-0.211111128639904,0.556192815303802,-0.0794124826788902,-0.00366519158706069
0,1.00555558402623,-0.0819444448505077,-0.206944452990142,0.613003253936768,-0.141415297985077,0.00183259579353034
0,1.01388893532575,-0.0958333393711199,-0.222222239394008,0.666453957557678,-0.17409659922123,-0.00916297826915979
0,1.01388893532575,-0.0958333393711199,-0.222222239394008,0.70829826593399,-0.161268427968025,-0.0204639863222837
0,0.991666665193688,-0.116666675074056,-0.216666671860991,0.745255589485168,-0.142026171088219,-0.0384845100343227
0,0.976388951725609,-0.120833338567854,-0.202777789496344,0.811839938163757,-0.185703039169311,-0.04764748737216
0,0.976388951725609,-0.120833338567854,-0.202777789496344,0.869261264801025,-0.260839462280273,-0.0397062413394451
0,0.970833384192592,-0.134722233088466,-0.16527778158427,0.940732479095459,-0.31245756149292,-0.0452040284872055
0,0.970833384192592,-0.134722233088466,-0.16527778158427,1.03114056587219,-0.402560204267502,-0.0503963828086853
0,0.973611167959101,-0.138888896582264,-0.161111118090472,1.05771315097809,-0.474947720766068,-0.0794124826788902
0,0.983333411141879,-0.14722222356986,-0.169444445078067,1.05038273334503,-0.474336862564087,-0.109344877302647
0,0.993055557076942,-0.143055560076062,-0.200000005729836,1.0100656747818,-0.428216546773911,-0.118813291192055
0,1.00000001649321,-0.12916666555545,-0.200000005729836,0.986852824687958,-0.399200439453125,-0.145080491900444
0,1.01944450285877,-0.113888891307548,-0.206944452990142,0.93554013967514,-0.389426589012146,-0.142026171088219
0,1.0361111082101,-0.113888891307548,-0.231944458264858,0.892168700695038,-0.355218142271042,-0.140499010682106
0,1.04166667574312,-0.120833338567854,-0.224999998848587,0.797789990901947,-0.240680903196335,-0.132557764649391
0,1.04166667574312,-0.12777778582816,-0.226388890731841,0.704327642917633,-0.136833816766739,-0.133168622851372
0,1.03888889197661,-0.134722233088466,-0.213888888094483,0.6294966340065,-0.102014496922493,-0.132557764649391
0,1.03194452980806,-0.13750000469901,-0.188888894975731,0.554665625095367,-0.100181899964809,-0.130419731140137
0,1.02500007039179,-0.13750000469901,-0.190277786858986,0.445931643247604,-0.0470366254448891,-0.108123145997524
0,1.02083339474202,-0.12916666555545,-0.19166667874224,0.345444291830063,0.01588249579072,-0.098960168659687
0,1.02777785415829,-0.118055554801345,-0.202777789496344,0.235488548874855,0.0635299831628799,-0.0916297882795334
0,1.04166667574312,-0.108333335930496,-0.20138889761309,0.133779495954514,0.11636982858181,-0.0839939713478088
0,1.03888889197661,-0.104166672436698,-0.20972223675665,-0.00916297826915979,0.204334422945976,-0.0742201283574104
0,1.02916674604155,-0.10972222781375,-0.202777789496344,-0.112399205565453,0.261755764484406,-0.0555887371301651
0,1.0125000434425,-0.118055554801345,-0.18333333959868,-0.212581098079681,0.267864406108856,-0.0540615729987621
0,0.997222232726705,-0.116666675074056,-0.177777784221628,-0.315511912107468,0.249233022332191,-0.0387899428606033
0,0.99583334084345,-0.118055554801345,-0.176388892338373,-0.408668845891953,0.254730820655823,-0.0335975885391235
0,0.990277773310434,-0.111111119697004,-0.188888894975731,-0.478002041578293,0.309097826480865,-0.00946841109544039
0,0.981944519258625,-0.10972222781375,-0.190277786858986,-0.552833020687103,0.314595609903336,0.021685715764761
0,0.970833384192592,-0.100000002864918,-0.18333333959868,-0.645990014076233,0.225409269332886,0.0479529201984406
0,0.968055600426084,-0.104166672436698,-0.190277786858986,-0.710436284542084,0.160046696662903,0.0607810914516449
0,0.963888924776322,-0.10972222781375,-0.194444450352783,-0.766330420970917,0.145385921001434,0.0513126812875271
5,0.947222222177272,-0.120833338567854,-0.212499996211229,-0.856127619743347,0.139888137578964,0.0675006061792374
5,0.956944465360051,-0.1194444466846,-0.198611113846581,-0.876286208629608,0.100792765617371,0.0888808965682983
5,1.00000001649321,-0.108333335930496,-0.212499996211229,-0.868039488792419,0.0329867228865623,0.12156218290329
5,1.04166667574312,-0.0944444474878658,-0.24583335278547,-0.834136486053467,0.0485637858510017,0.150578290224075
5,1.05000002704265,-0.113888891307548,-0.272222225631511,-0.82375180721283,0.170431405305862,0.138666406273842
5,1.02361117850853,-0.130555557438704,-0.265277790527169,-0.831387579441071,0.178678080439568,0.112399205565453
5,0.98888888142718,-0.136111112815755,-0.231944458264858,-0.828638732433319,0.0791070461273193,0.117896988987923
5,0.979166735492117,-0.130555557438704,-0.215277779977737,-0.755029439926147,-0.03176499158144,0.143553331494331
5,0.991666665193688,-0.125000002061652,-0.240277785252453,-0.727845966815948,-0.021685715764761,0.144775062799454
5,0.994444448960196,-0.118055554801345,-0.250000004123303,-0.685696244239807,0.0690277740359306,0.121256753802299
5,0.991666665193688,-0.108333335930496,-0.233333350148112,-0.678060412406921,0.0531452745199203,0.0980438739061356
5,1.00277780025972,-0.105555564319952,-0.234722242031366,-0.645684540271759,0.0100792767480016,0.0754418596625328
5,1.02916674604155,-0.105555564319952,-0.238888893369199,-0.594677329063416,0.00702495034784079,0.0675006061792374
5,1.02361117850853,-0.10972222781375,-0.24583335278547,-0.550389587879181,0.0387899428606033,0.0806342139840126
5,1.00277780025972,-0.105555564319952,-0.248611112240049,-0.499382346868515,0.0742201283574104,0.0772744566202164
5,1.00138890837647,-0.108333335930496,-0.226388890731841,-0.463646709918976,0.064446285367012,0.0552833043038845
5,1.00555558402623,-0.102777780553444,-0.218055563744246,-0.416915535926819,0.058643065392971,0.0394008085131645
5,1.01527782720901,-0.101388894748172,-0.205555561106887,-0.349720358848572,0.0650571510195732,0.037568211555481
5,1.03750000009336,-0.102777780553444,-0.195833342236038,-0.284052342176437,0.0546724386513233,0.0290160998702049
5,1.03750000009336,-0.102777780553444,-0.195833342236038,-0.26419922709465,0.0708603709936142,0.0287106670439243
5,1.01666671909226,-0.0847222225390337,-0.187500003092477,-0.252592772245407,0.0751364231109619,0.0546724386513233
5,0.998611124609959,-0.0708333340964038,-0.186111123365188,-0.279165416955948,0.0232128798961639,0.0525344125926495
5,0.998611124609959,-0.0708333340964038,-0.186111123365188,-0.31245756149292,-0.00916297826915979,0.0546724386513233
5,0.987499989543926,-0.0611111152255539,-0.186111123365188,-0.358272463083267,-0.0293215326964855,0.0620028227567673
5,0.994444448960196,-0.0625000010308258,-0.19166667874224,-0.39125919342041,-0.0500909499824047,0.0897971913218498
5,0.994444448960196,-0.0625000010308258,-0.19166667874224,-0.394924372434616,-0.0277943685650826,0.0937678143382072
5,1.00833336779274,-0.0625000010308258,-0.193055558469529,-0.383623361587524,-0.0125227374956012,0.0839939713478088
5,1.02361117850853,-0.0875000002275597,-0.194444450352783,-0.376293003559113,-0.0222965814173222,0.0693332031369209
5,1.02361117850853,-0.0875000002275597,-0.194444450352783,-0.358577907085419,-0.0320704244077206,0.0736092627048492
5,1.01666671909226,-0.100000002864918,-0.190277786858986,-0.345749735832214,-0.0430659987032413,0.0888808965682983
5,1.00138890837647,-0.0986111170596459,-0.197222234119292,-0.32742378115654,-0.0565050356090069,0.0925460830330849
5,1.0125000434425,-0.0944444474878658,-0.212499996211229,-0.304821759462357,-0.0781907513737679,0.0873537287116051
5,1.0125000434425,-0.0944444474878658,-0.212499996211229,-0.29657506942749,-0.0757472887635231,0.0864374339580536
5,1.01805561097552,-0.0916666697993398,-0.226388890731841,-0.27000242471695,-0.0555887371301651,0.0943786799907684
5,1.0125000434425,-0.0972222251763917,-0.233333350148112,-0.250760197639465,-0.00427605677396059,0.0983493030071259
5,1.00833336779274,-0.100000002864918,-0.233333350148112,-0.247705861926079,0.0299323964864016,0.0833831056952477
5,0.993055557076942,-0.111111119697004,-0.233333350148112,-0.249233022332191,0.029626963660121,0.0812450796365738
5,1.00277780025972,-0.125000002061652,-0.211111128639904,-0.203418120741844,0.00580321997404099,0.0583376325666905
5,1.00972225967599,-0.130555557438704,-0.213888888094483,-0.167682513594627,0.0161879286170006,0.0311541277915239
5,1.02222228662528,-0.126388893944906,-0.218055563744246,-0.0986547395586967,0.0519235469400883,-0.000916297896765172
5,1.01805561097552,-0.118055554801345,-0.238888893369199,-0.0650571510195732,0.0647517144680023,-0.0262672062963247
5,1.00555558402623,-0.126388893944906,-0.233333350148112,-0.00427605677396059,0.104763388633728,-0.00977384392172098
5,1.00000001649321,-0.12916666555545,-0.229166674498349,0.00488692196086049,0.106290549039841,-0.0180205255746841
5,0.993055557076942,-0.1194444466846,-0.212499996211229,0.0522289797663689,0.0253509078174829,-0.0326812900602817
5,0.99583334084345,-0.115277783190802,-0.218055563744246,0.0864374339580536,0.0219911485910416,-0.0323758572340012
5,1.00833336779274,-0.112499999424294,-0.226388890731841,0.101098194718361,0.0549778714776039,-0.0335975885391235
5,1.00972225967599,-0.104166672436698,-0.227777782615095,0.104763388633728,0.0824668109416962,-0.0369573459029198
5,1.00277780025972,-0.101388894748172,-0.218055563744246,0.0882700309157372,0.0690277740359306,-0.0329867228865623
5,0.986111194908388,-0.101388894748172,-0.206944452990142,0.0855211317539215,0.0183259565383196,-0.021685715764761
5,0.99583334084345,-0.112499999424294,-0.20972223675665,0.109650313854218,-0.0213802829384804,-0.0247400421649218
5,1.00833336779274,-0.113888891307548,-0.20972223675665,0.142942473292351,-0.011606439948082,-0.0439822971820831
5,1.02222228662528,-0.113888891307548,-0.213888888094483,0.157603234052658,0.00977384392172098,-0.0406225398182869
5,1.01527782720901,-0.108333335930496,-0.2194444556275,0.148745685815811,0.0192422550171614,-0.0378736443817616
5,1.00972225967599,-0.0958333393711199,-0.213888888094483,0.135612085461616,0.00855211354792118,-0.0351247526705265
5,1.00694447590948,-0.0902777839940679,-0.216666671860991,0.121867619454861,-0.00122173049021512,-0.037568211555481
5,1.00555558402623,-0.0805555590452358,-0.206944452990142,0.0922406539320946,-0.00733038317412138,-0.0442877300083637
5,1.01111115155925,-0.0750000036681839,-0.206944452990142,0.0491746515035629,0.00580321997404099,-0.0400116741657257
5,1.01944450285877,-0.0777777813567098,-0.216666671860991,0.0348193198442459,0.0244346093386412,-0.0299323964864016
5,1.01527782720901,-0.0833333367337618,-0.212499996211229,0.0256563406437635,0.0308486949652433,-0.0226020142436027
5,1.01388893532575,-0.0847222225390337,-0.202777789496344,0.013744467869401,0.0192422550171614,-0.0204639863222837
5,1.00833336779274,-0.0902777839940679,-0.212499996211229,-0.0128281703218818,0.0253509078174829,-0.0125227374956012
5,1.0125000434425,-0.0944444474878658,-0.211111128639904,-0.0113010071218014,0.0256563406437635,-0.00855211354792118
5,1.00277780025972,-0.0930555616825939,-0.213888888094483,-0.0033597587607801,0.0329867228865623,-0.011606439948082
5,0.993055557076942,-0.0930555616825939,-0.211111128639904,-0.0106901414692402,0.027488935738802,-0.00977384392172098
5,0.994444448960196,-0.0902777839940679,-0.206944452990142,-0.0125227374956012,0.0219911485910416,-0.00885754637420177
5,0.997222232726705,-0.0916666697993398,-0.208333344873396,-0.0033597587607801,0.0329867228865623,-0.00519235478714108
5,0.997222232726705,-0.0902777839940679,-0.206944452990142,0.000916297896765172,0.0543670058250427,-0.00305432616733015
5,1.00277780025972,-0.0875000002275597,-0.206944452990142,0.00549778714776039,0.0531452745199203,0.000916297896765172
5,1.00000001649321,-0.0944444474878658,-0.202777789496344,0.00671951752156019,0.0561996027827263,-0.000610865245107561
5,0.993055557076942,-0.100000002864918,-0.198611113846581,0.015577063895762,0.0345138870179653,0.0021380283869803
5,1.00138890837647,-0.101388894748172,-0.202777789496344,0.0219911485910416,0.00946841109544039,0.00580321997404099
5,1.00000001649321,-0.0958333393711199,-0.206944452990142,0.0302378293126821,-0.00610865233466029,0.0146607663482428
5,1.00277780025972,-0.0916666697993398,-0.20138889761309,0.0250454749912024,-0.0277943685650826,0.0113010071218014
5,1.00277780025972,-0.0972222251763917,-0.193055558469529,0.0280998013913631,-0.0406225398182869,0.00763581553474069
5,0.99583334084345,-0.0861111144222878,-0.190277786858986,0.00824668072164059,-0.0577267669141293,0.00519235478714108
5,1.00555558402623,-0.0833333367337618,-0.18333333959868,-0.0033597587607801,-0.0815505087375641,0.019547687843442
5,1.02777785415829,-0.0736111117849297,-0.195833342236038,-0.0033597587607801,-0.0815505087375641,0.0265726372599602
5,1.02916674604155,-0.0819444448505077,-0.212499996211229,-0.00397062394768,-0.0235183127224445,0.0277943685650826
5,1.02361117850853,-0.0916666697993398,-0.212499996211229,-0.013744467869401,0.0143553335219622,0.015577063895762
5,1.02222228662528,-0.101388894748172,-0.206944452990142,-0.0271835029125214,0.0122173046693206,0.00855211354792118
5,1.03194452980806,-0.100000002864918,-0.206944452990142,-0.0354301854968071,0.037568211555481,-0.00122173049021512
5,1.02777785415829,-0.0916666697993398,-0.212499996211229,-0.0277943685650826,0.0742201283574104,-0.011606439948082
5,1.01944450285877,-0.0916666697993398,-0.206944452990142,-0.0439822971820831,0.105068825185299,-0.0100792767480016
5,1.01527782720901,-0.0847222225390337,-0.198611113846581,-0.0641408488154411,0.0977384373545647,-0.021685715764761
5,1.01111115155925,-0.0861111144222878,-0.193055558469529,-0.0555887371301651,0.0864374339580536,-0.027488935738802
5,1.00972225967599,-0.0916666697993398,-0.194444450352783,-0.0421497002243996,0.0803287774324417,-0.0293215326964855
5,1.00277780025972,-0.101388894748172,-0.195833342236038,-0.0387899428606033,0.0800233483314514,-0.0109955742955208
5,1.00555558402623,-0.0930555616825939,-0.20138889761309,-0.029626963660121,0.0794124826788902,-0.0177150927484035
5,1.01111115155925,-0.0916666697993398,-0.198611113846581,-0.0210748501121998,0.070249505341053,-0.0033597587607801
5,1.01111115155925,-0.0916666697993398,-0.198611113846581,-0.0247400421649218,0.0497855171561241,-0.0103847095742822
5,0.994444448960196,-0.0819444448505077,-0.200000005729836,-0.0394008085131645,0.0113010071218014,0.00733038317412138
5,1.00277780025972,-0.0819444448505077,-0.19166667874224,-0.0357356183230877,-0.0284052342176437,0.015577063895762
5,1.00277780025972,-0.0819444448505077,-0.19166667874224,-0.037568211555481,-0.04764748737216,0.0143553335219622
5,1.00000001649321,-0.0902777839940679,-0.18333333959868,-0.01588249579072,-0.0555887371301651,0.00733038317412138
5,1.00555558402623,-0.0875000002275597,-0.190277786858986,0.00855211354792118,-0.0500909499824047,0.00152716308366507
5,1.00972225967599,-0.0888888921108138,-0.198611113846581,0.0198531206697226,-0.0268780700862408,-0.00580321997404099
5,1.00972225967599,-0.0847222225390337,-0.195833342236038,0.027488935738802,-0.0250454749912024,0.00794124789535999
5,1.01111115155925,-0.0833333367337618,-0.184722231481934,0.0299323964864016,-0.0262672062963247,-0.00580321997404099
5,1.01666671909226,-0.0888888921108138,-0.187500003092477,0.0436768643558025,-0.00641408516094089,-0.00946841109544039
5,1.01944450285877,-0.0833333367337618,-0.181944447715425,0.0467311926186085,0.000610865245107561,-0.00702495034784079
5,1.01388893532575,-0.0958333393711199,-0.193055558469529,0.0442877300083637,-0.0021380283869803,-0.00641408516094089
5,1.0125000434425,-0.0875000002275597,-0.190277786858986,0.0329867228865623,-0.0125227374956012,-0.00641408516094089
5,1.01944450285877,-0.0777777813567098,-0.204166669223633,0.0271835029125214,-0.00305432616733015,-0.00671951752156019
5,1.01527782720901,-0.0819444448505077,-0.200000005729836,0.0290160998702049,0.01588249579072,-0.00916297826915979
5,1.01944450285877,-0.0847222225390337,-0.197222234119292,0.0329867228865623,0.0164933614432812,-0.0100792767480016
5,1.00694447590948,-0.0736111117849297,-0.188888894975731,0.0366519130766392,0.0167987942695618,-0.00397062394768
5,1.00972225967599,-0.0805555590452358,-0.190277786858986,0.0308486949652433,0.0259617734700441,-0.00733038317412138
5,1.00833336779274,-0.0819444448505077,-0.18333333959868,0.0222965814173222,0.0241291765123606,-0.00580321997404099
5,1.01111115155925,-0.0750000036681839,-0.186111123365188,0.0192422550171614,0.0045814891345799,-0.00305432616733015
5,1.00555558402623,-0.0791666671619817,-0.194444450352783,0.0207694191485643,0.00763581553474069,-0.0109955742955208
5,1.00694447590948,-0.0819444448505077,-0.193055558469529,0.0164933614432812,0.00733038317412138,-0.0113010071218014
5,1.00833336779274,-0.0777777813567098,-0.188888894975731,0.0259617734700441,-0.000305432622553781,-0.000305432622553781
5,1.00972225967599,-0.0777777813567098,-0.193055558469529,0.0287106670439243,-0.00244346098043024,0.00702495034784079
5,1.01111115155925,-0.0777777813567098,-0.197222234119292,0.021685715764761,0.0109955742955208,0.00885754637420177
5,1.01111115155925,-0.0819444448505077,-0.200000005729836,0.013744467869401,0.021685715764761,0.0045814891345799
5,1.00972225967599,-0.0833333367337618,-0.200000005729836,0.0167987942695618,0.0143553335219622,-0.000610865245107561
5,1.0125000434425,-0.0847222225390337,-0.19166667874224,0.00671951752156019,0.0122173046693206,0.00427605677396059
5,1.00972225967599,-0.0777777813567098,-0.190277786858986,-0.00671951752156019,0.00488692196086049,0.00122173049021512
5,1.00555558402623,-0.0763888894734557,-0.194444450352783,-0.0140499006956816,0.0027488935738802,0.00122173049021512
5,1.00694447590948,-0.0819444448505077,-0.188888894975731,-0.0161879286170006,-0.000305432622553781,0.00977384392172098
5,1.00416669214298,-0.0777777813567098,-0.187500003092477,-0.015577063895762,-0.00946841109544039,0.00427605677396059
5,1.00694447590948,-0.0791666671619817,-0.190277786858986,-0.00794124789535999,0.00671951752156019,0.00671951752156019
5,1.01527782720901,-0.0777777813567098,-0.197222234119292,-0.01588249579072,0.0171042270958424,0.00641408516094089
5,1.01944450285877,-0.0777777813567098,-0.197222234119292,-0.00946841109544039,0.00885754637420177,0.00427605677396059
5,1.01666671909226,-0.0819444448505077,-0.193055558469529,-0.0106901414692402,0.0113010071218014,0.0045814891345799
5,1.01666671909226,-0.0819444448505077,-0.19166667874224,-0.00122173049021512,0.00366519158706069,0.00397062394768
5,1.01944450285877,-0.0847222225390337,-0.200000005729836,0.00977384392172098,0.0244346093386412,-0.000610865245107561
5,1.01666671909226,-0.0791666671619817,-0.198611113846581,0.00824668072164059,0.0427605658769607,0.000610865245107561
5,1.0125000434425,-0.0777777813567098,-0.193055558469529,0.00641408516094089,0.0265726372599602,0.00916297826915979
5,1.00694447590948,-0.0777777813567098,-0.197222234119292,0.00397062394768,0.0229074470698834,0.00183259579353034
5,1.00972225967599,-0.0819444448505077,-0.193055558469529,0.00824668072164059,0.0210748501121998,-0.00183259579353034
5,1.01527782720901,-0.0861111144222878,-0.188888894975731,0.00946841109544039,0.0241291765123606,0.00305432616733015
5,1.01666671909226,-0.0888888921108138,-0.190277786858986,0.0232128798961639,0.0149661982432008,-0.00427605677396059
5,1.00972225967599,-0.0875000002275597,-0.198611113846581,0.0164933614432812,0.0140499006956816,-0.000916297896765172
5,1.01111115155925,-0.0916666697993398,-0.195833342236038,0.0308486949652433,0.0235183127224445,-0.0106901414692402
5,1.01666671909226,-0.0875000002275597,-0.194444450352783,0.0241291765123606,0.0256563406437635,-0.000610865245107561
5,1.00833336779274,-0.0902777839940679,-0.184722231481934,0.0323758572340012,0.0329867228865623,0.000916297896765172
5,0.99583334084345,-0.0875000002275597,-0.180555567988136,0.0293215326964855,0.0219911485910416,0.00305432616733015
5,0.98888888142718,-0.0875000002275597,-0.17361112072783,0.0342084541916847,0.00733038317412138,0.0146607663482428
5,0.99583334084345,-0.0875000002275597,-0.180555567988136,0.0323758572340012,0.0033597587607801,0.0106901414692402
5,1.00000001649321,-0.0805555590452358,-0.18333333959868,0.0348193198442459,-0.00244346098043024,0.00885754637420177
5,1.00972225967599,-0.0861111144222878,-0.18333333959868,0.0262672062963247,-0.0149661982432008,0.0128281703218818
5,1.01527782720901,-0.0902777839940679,-0.186111123365188,0.029626963660121,-0.00916297826915979,0.00946841109544039
5,1.01527782720901,-0.0902777839940679,-0.194444450352783,0.0268780700862408,-0.000305432622553781,0.0131336031481624
5,1.01527782720901,-0.0847222225390337,-0.194444450352783,0.0219911485910416,0.00702495034784079,0.0027488935738802
5,1.0125000434425,-0.0791666671619817,-0.190277786858986,0.0229074470698834,0.0271835029125214,0.00244346098043024
5,1.01111115155925,-0.0763888894734557,-0.181944447715425,-0.00366519158706069,0.0311541277915239,0.00549778714776039
5,1.00277780025972,-0.0777777813567098,-0.170833336961321,-0.00763581553474069,0.00702495034784079,0.00885754637420177
5,1.00000001649321,-0.0791666671619817,-0.159722226207217,-0.00671951752156019,-0.021685715764761,0.0186313893646002
5,1.00000001649321,-0.0791666671619817,-0.159722226207217,-0.000610865245107561,-0.0207694191485643,0.0177150927484035
5,1.01388893532575,-0.0847222225390337,-0.187500003092477,0.000610865245107561,-0.00610865233466029,0.011606439948082
5,1.0125000434425,-0.0847222225390337,-0.18333333959868,-0.00152716308366507,0.0103847095742822,0.013744467869401
5,1.01805561097552,-0.0833333367337618,-0.181944447715425,-0.0106901414692402,0.00305432616733015,0.0021380283869803
5,1.01805561097552,-0.0819444448505077,-0.187500003092477,-0.0128281703218818,0.0177150927484035,0.00946841109544039
5,1.02083339474202,-0.0819444448505077,-0.187500003092477,-0.0213802829384804,0.0232128798961639,0.00763581553474069
5,1.02083339474202,-0.0819444448505077,-0.187500003092477,-0.0232128798961639,0.0265726372599602,0.0113010071218014
5,1.0125000434425,-0.0819444448505077,-0.176388892338373,-0.021685715764761,0.0235183127224445,0.0198531206697226
5,1.00972225967599,-0.0875000002275597,-0.161111118090472,-0.0186313893646002,-0.0045814891345799,0.00702495034784079
5,1.0125000434425,-0.0916666697993398,-0.17361112072783,-0.0103847095742822,-0.0198531206697226,0.0033597587607801
5,1.02500007039179,-0.0916666697993398,-0.188888894975731,-0.0113010071218014,0.00152716308366507,0.0027488935738802
5,1.02222228662528,-0.0833333367337618,-0.186111123365188,-0.00549778714776039,0.027488935738802,-0.00946841109544039
5,1.01388893532575,-0.0819444448505077,-0.190277786858986,-0.01191187184304,0.0192422550171614,0.000610865245107561
5,1.01388893532575,-0.0819444448505077,-0.190277786858986,-0.0250454749912024,0.0186313893646002,0.00946841109544039
5,1.01388893532575,-0.0875000002275597,-0.179166676104882,-0.0189368221908808,0.0149661982432008,0.00580321997404099
5,1.01805561097552,-0.0847222225390337,-0.177777784221628,-0.013744467869401,0.011606439948082,0.00519235478714108
5,1.01805561097552,-0.0847222225390337,-0.177777784221628,-0.01191187184304,0.0149661982432008,0.00397062394768
5,1.00555558402623,-0.0930555616825939,-0.172222228844576,-0.000305432622553781,0.00794124789535999,0.00427605677396059
5,1.0125000434425,-0.0888888921108138,-0.170833336961321,-0.00244346098043024,0.00641408516094089,0.00244346098043024
5,1.0125000434425,-0.0888888921108138,-0.170833336961321,0.00305432616733015,0.000305432622553781,0.00702495034784079
5,1.0125000434425,-0.0777777813567098,-0.18333333959868,0.00763581553474069,0.00794124789535999,-0.000916297896765172
5,1.0125000434425,-0.0875000002275597,-0.18333333959868,0.00610865233466029,0.00580321997404099,0.00794124789535999
5,1.00555558402623,-0.0819444448505077,-0.187500003092477,0.00366519158706069,-0.0033597587607801,0.0027488935738802
5,1.01388893532575,-0.0847222225390337,-0.176388892338373,0.0113010071218014,-0.000305432622553781,-0.000305432622553781
5,1.02638896227504,-0.0916666697993398,-0.175000000455119,0.0247400421649218,0.01588249579072,0.000916297896765172
5,1.02638896227504,-0.0861111144222878,-0.193055558469529,0.00794124789535999,0.0201585534960032,-0.00244346098043024
5,1.01527782720901,-0.0861111144222878,-0.187500003092477,-0.00488692196086049,0.00733038317412138,0.00488692196086049
5,1.00555558402623,-0.0833333367337618,-0.18333333959868,0.00183259579353034,0.00824668072164059,0.00427605677396059
5,1.00555558402623,-0.0861111144222878,-0.17361112072783,-0.00183259579353034,0.0171042270958424,0.000610865245107561
5,1.01111115155925,-0.0847222225390337,-0.172222228844576,0.011606439948082,0.0287106670439243,0.00519235478714108
5,1.0125000434425,-0.0847222225390337,-0.170833336961321,0.00549778714776039,0.0250454749912024,-0.00671951752156019
5,1.01666671909226,-0.0875000002275597,-0.166666673467524,0.00763581553474069,0.0213802829384804,-0.00488692196086049
5,1.01805561097552,-0.0916666697993398,-0.16527778158427,0.0192422550171614,0.0140499006956816,-0.00641408516094089
5,1.01527782720901,-0.0916666697993398,-0.172222228844576,0.0167987942695618,-0.000610865245107561,-0.00946841109544039
5,1.01805561097552,-0.0902777839940679,-0.190277786858986,0.0146607663482428,-0.0027488935738802,-0.00244346098043024
5,1.02638896227504,-0.0875000002275597,-0.18333333959868,0.0293215326964855,0.00641408516094089,-0.00122173049021512
5,1.03194452980806,-0.0847222225390337,-0.19166667874224,0.0329867228865623,0.021685715764761,-0.000610865245107561
5,1.02916674604155,-0.0875000002275597,-0.20138889761309,0.0241291765123606,0.0167987942695618,-0.00519235478714108
5,1.00972225967599,-0.0819444448505077,-0.190277786858986,0.0134390350431204,0.0131336031481624,-0.00946841109544039
5,1.00416669214298,-0.0888888921108138,-0.186111123365188,0.0161879286170006,0.00305432616733015,-0.00152716308366507
5,1.00555558402623,-0.0875000002275597,-0.181944447715425,0.0164933614432812,0.00824668072164059,-0.00610865233466029
5,1.00277780025972,-0.0847222225390337,-0.170833336961321,0.0134390350431204,0.01588249579072,-0.0100792767480016
5,1.00416669214298,-0.0819444448505077,-0.176388892338373,0.0164933614432812,0.0125227374956012,0.000916297896765172
5,1.00694447590948,-0.0819444448505077,-0.176388892338373,0.00855211354792118,0.0021380283869803,-0.00183259579353034
5,1.0125000434425,-0.0833333367337618,-0.193055558469529,0.00916297826915979,0.013744467869401,-0.00519235478714108
5,1.01527782720901,-0.0833333367337618,-0.18333333959868,0.013744467869401,-0.00183259579353034,-0.01191187184304
5,1.02083339474202,-0.0791666671619817,-0.170833336961321,0.0125227374956012,-0.0189368221908808,-0.00549778714776039
5,1.01805561097552,-0.0805555590452358,-0.181944447715425,0.013744467869401,-0.00580321997404099,-0.000916297896765172
5,1.01805561097552,-0.0847222225390337,-0.188888894975731,0.00641408516094089,0.00549778714776039,-0.0125227374956012
5,1.01666671909226,-0.0819444448505077,-0.180555567988136,0.00671951752156019,0.00702495034784079,-0.00916297826915979
5,1.00972225967599,-0.0819444448505077,-0.177777784221628,0.0045814891345799,0.0167987942695618,-0.0021380283869803
5,1.00000001649321,-0.0791666671619817,-0.176388892338373,0.00183259579353034,0.0143553335219622,0.0027488935738802
5,0.99583334084345,-0.0791666671619817,-0.156944454596674,0.0149661982432008,-0.01191187184304,-0.00366519158706069
5,1.00277780025972,-0.0833333367337618,-0.168055565350778,0.01588249579072,-0.0113010071218014,-0.00794124789535999
5,1.00555558402623,-0.0805555590452358,-0.16527778158427,0.000610865245107561,-0.0134390350431204,-0.00855211354792118
5,1.00555558402623,-0.0819444448505077,-0.175000000455119,0.0021380283869803,-0.00488692196086049,-0.011606439948082
5,1.00833336779274,-0.0805555590452358,-0.163888889701015,0.0109955742955208,-0.0198531206697226,-0.00671951752156019
5,1.01527782720901,-0.0819444448505077,-0.179166676104882,0.013744467869401,-0.0180205255746841,-0.00305432616733015
5,1.02500007039179,-0.0875000002275597,-0.190277786858986,-0.00366519158706069,-0.00580321997404099,-0.00366519158706069
5,1.01944450285877,-0.0819444448505077,-0.188888894975731,-0.00977384392172098,0.00519235478714108,-0.00977384392172098
5,1.01805561097552,-0.0833333367337618,-0.188888894975731,-0.0131336031481624,0.0100792767480016,-0.0177150927484035
5,1.01666671909226,-0.0777777813567098,-0.172222228844576,-0.017409659922123,-0.00305432616733015,-0.00702495034784079
5,1.01527782720901,-0.0819444448505077,-0.176388892338373,-0.00641408516094089,0.0100792767480016,-0.00519235478714108
5,1.0125000434425,-0.0819444448505077,-0.181944447715425,-0.00488692196086049,0.0113010071218014,0.000610865245107561
5,1.0125000434425,-0.0750000036681839,-0.163888889701015,-0.00977384392172098,0.0100792767480016,-0.00824668072164059
5,1.00972225967599,-0.0791666671619817,-0.166666673467524,-0.01191187184304,0.000916297896765172,-0.0027488935738802
5,1.00972225967599,-0.0777777813567098,-0.17361112072783,-0.00824668072164059,0.00763581553474069,-0.00366519158706069
5,1.00833336779274,-0.0819444448505077,-0.17361112072783,-0.0134390350431204,-0.00671951752156019,-0.00549778714776039
5,1.01111115155925,-0.0777777813567098,-0.177777784221628,-0.0045814891345799,-0.0146607663482428,-0.00641408516094089
5,1.01388893532575,-0.0750000036681839,-0.181944447715425,-0.000610865245107561,-0.000610865245107561,-0.0103847095742822
5,1.0125000434425,-0.0777777813567098,-0.176388892338373,-0.0164933614432812,-0.000305432622553781,-0.00794124789535999
5,1.01111115155925,-0.0819444448505077,-0.176388892338373,-0.00641408516094089,0.00427605677396059,-0.00549778714776039
5,1.01527782720901,-0.0819444448505077,-0.176388892338373,0.000305432622553781,-0.00641408516094089,-0.0125227374956012
5,1.01944450285877,-0.0805555590452358,-0.176388892338373,-0.00549778714776039,0.0167987942695618,-0.000610865245107561
5,1.01666671909226,-0.0750000036681839,-0.176388892338373,-0.01191187184304,0.0164933614432812,-0.00244346098043024
5,1.0125000434425,-0.0722222259796579,-0.181944447715425,-0.0113010071218014,0.00946841109544039,-0.00519235478714108
5,1.01805561097552,-0.0763888894734557,-0.179166676104882,-0.0134390350431204,0.0204639863222837,-0.00183259579353034
5,1.01527782720901,-0.0777777813567098,-0.187500003092477,-0.0146607663482428,0.01191187184304,-0.00427605677396059
5,1.01527782720901,-0.0777777813567098,-0.176388892338373,-0.0171042270958424,0.00794124789535999,-0.00946841109544039
5,1.01388893532575,-0.0805555590452358,-0.175000000455119,-0.0021380283869803,-0.00427605677396059,-0.0106901414692402
5,1.00833336779274,-0.0777777813567098,-0.181944447715425,-0.00824668072164059,0.0045814891345799,-0.00397062394768
5,1.0125000434425,-0.0777777813567098,-0.177777784221628,-0.0189368221908808,0.00580321997404099,-0.00152716308366507
5,1.00972225967599,-0.0750000036681839,-0.172222228844576,-0.0140499006956816,0.00519235478714108,-0.00763581553474069
5,1.01111115155925,-0.0722222259796579,-0.172222228844576,-0.0027488935738802,0.00152716308366507,-0.0033597587607801
5,1.01111115155925,-0.0750000036681839,-0.175000000455119,0.00427605677396059,-0.000610865245107561,-0.00702495034784079
5,1.0125000434425,-0.0750000036681839,-0.170833336961321,-0.00122173049021512,0.00549778714776039,-0.00488692196086049
5,1.01944450285877,-0.0722222259796579,-0.17361112072783,-0.00397062394768,0.01191187184304,-0.00122173049021512
5,1.01527782720901,-0.0750000036681839,-0.18333333959868,0.00580321997404099,0.0152716310694814,-0.00519235478714108
5,1.01805561097552,-0.0777777813567098,-0.18333333959868,0.00641408516094089,0.0131336031481624,-0.00610865233466029
5,1.01944450285877,-0.0805555590452358,-0.187500003092477,0.00580321997404099,0.00427605677396059,-0.00916297826915979
5,1.01944450285877,-0.0750000036681839,-0.186111123365188,0.0177150927484035,0.013744467869401,-0.0027488935738802
5,1.02222228662528,-0.0722222259796579,-0.172222228844576,0.0180205255746841,0.0210748501121998,-0.00885754637420177
5,1.01527782720901,-0.0722222259796579,-0.187500003092477,0.0122173046693206,0.0177150927484035,-0.00702495034784079
5,1.01388893532575,-0.0694444482911319,-0.180555567988136,0.0103847095742822,0.00763581553474069,-0.0113010071218014
5,1.01111115155925,-0.0694444482911319,-0.18333333959868,0.0103847095742822,0.0100792767480016,-0.00671951752156019
5,1.01388893532575,-0.0722222259796579,-0.180555567988136,0.000916297896765172,0.00763581553474069,-0.01588249579072
5,1.00972225967599,-0.0750000036681839,-0.176388892338373,0.0109955742955208,0.0106901414692402,-0.0146607663482428
5,1.00972225967599,-0.0722222259796579,-0.170833336961321,0.015577063895762,0.0161879286170006,-0.0134390350431204
5,1.00972225967599,-0.0722222259796579,-0.170833336961321,0.015577063895762,0.00763581553474069,-0.00885754637420177
5,1.01111115155925,-0.0666666706026059,-0.163888889701015,0.0103847095742822,0.0100792767480016,-0.00916297826915979
5,1.01388893532575,-0.0666666706026059,-0.187500003092477,0.00671951752156019,0.00641408516094089,-0.0161879286170006
5,1.01388893532575,-0.0666666706026059,-0.187500003092477,0.00152716308366507,0.0125227374956012,-0.00397062394768
5,1.0125000434425,-0.0694444482911319,-0.181944447715425,0.00427605677396059,0.0143553335219622,-0.00488692196086049
5,1.01527782720901,-0.0708333340964038,-0.176388892338373,0.00733038317412138,0.0253509078174829,-0.00183259579353034
5,1.01527782720901,-0.0708333340964038,-0.176388892338373,0.00305432616733015,0.0268780700862408,-0.00885754637420177
5,1.01527782720901,-0.0763888894734557,-0.158333334323963,-0.00122173049021512,0.0259617734700441,-0.00763581553474069
5,1.01944450285877,-0.0680555564078778,-0.16527778158427,0.0100792767480016,0.0335975885391235,-0.0183259565383196
5,1.01944450285877,-0.0680555564078778,-0.16527778158427,0.00122173049021512,0.0452040284872055,-0.013744467869401
5,1.01666671909226,-0.0611111152255539,-0.166666673467524,-0.015577063895762,0.0430659987032413,-0.00885754637420177
5,1.01388893532575,-0.0597222233422998,-0.169444445078067,-0.00916297826915979,0.0171042270958424,-0.00885754637420177
5,1.01388893532575,-0.0597222233422998,-0.169444445078067,-0.00885754637420177,0.00305432616733015,-0.000916297896765172
5,1.01666671909226,-0.0708333340964038,-0.161111118090472,-0.00397062394768,0.0027488935738802,-0.0045814891345799
5,1.01388893532575,-0.0722222259796579,-0.168055565350778,0.00671951752156019,0.00794124789535999,-0.00488692196086049
5,1.01944450285877,-0.0694444482911319,-0.17361112072783,0.0033597587607801,0.0140499006956816,0.00855211354792118
5,1.02222228662528,-0.0680555564078778,-0.163888889701015,0.0128281703218818,0.0131336031481624,0.0033597587607801
5,1.01805561097552,-0.0638888929140799,-0.170833336961321,0.00733038317412138,0.00977384392172098,-0.00305432616733015
5,1.0125000434425,-0.0680555564078778,-0.166666673467524,0.0128281703218818,-0.00122173049021512,-0.0027488935738802
5,1.0125000434425,-0.0722222259796579,-0.168055565350778,0.00916297826915979,0.00305432616733015,0.00549778714776039
5,1.01666671909226,-0.0736111117849297,-0.161111118090472,0.0125227374956012,0.00824668072164059,-0.00855211354792118
5,1.01527782720901,-0.0680555564078778,-0.166666673467524,0.011606439948082,0.0146607663482428,-0.00549778714776039
5,1.01527782720901,-0.0708333340964038,-0.170833336961321,0.00885754637420177,0.00733038317412138,0.00244346098043024
5,1.01805561097552,-0.0652777787193518,-0.170833336961321,0.0140499006956816,0.02382374368608,0.0033597587607801
5,1.00972225967599,-0.0638888929140799,-0.17361112072783,0.00397062394768,-0.00305432616733015,0.000305432622553781
5,1.0125000434425,-0.0625000010308258,-0.169444445078067,0.0021380283869803,0.00152716308366507,-0.00733038317412138
5,1.01527782720901,-0.0680555564078778,-0.163888889701015,0.000916297896765172,0.00794124789535999,0.000610865245107561
5,1.01111115155925,-0.0694444482911319,-0.163888889701015,0.00305432616733015,0.0213802829384804,0.00610865233466029
5,1.0125000434425,-0.0680555564078778,-0.162500009973726,0.00183259579353034,0.00733038317412138,0.00519235478714108
5,1.00972225967599,-0.0666666706026059,-0.166666673467524,0.00152716308366507,0.00122173049021512,0.00855211354792118
5,1.01527782720901,-0.055555559848502,-0.170833336961321,0.00152716308366507,0.000916297896765172,0.0033597587607801
5,1.01527782720901,-0.0625000010308258,-0.16527778158427,-0.00397062394768,0.0045814891345799,0.00305432616733015
5,1.01805561097552,-0.0652777787193518,-0.159722226207217,0.01191187184304,0.00641408516094089,-0.00488692196086049
5,1.02083339474202,-0.0722222259796579,-0.163888889701015,0.011606439948082,0.027488935738802,-0.00397062394768
5,1.01805561097552,-0.0736111117849297,-0.161111118090472,0.011606439948082,0.0244346093386412,-0.00610865233466029
5,1.02361117850853,-0.0625000010308258,-0.151388899219622,0.0192422550171614,0.011606439948082,-0.00794124789535999
5,1.01944450285877,-0.0680555564078778,-0.148611115453114,0.0287106670439243,0.0241291765123606,0.00366519158706069
5,1.01388893532575,-0.0652777787193518,-0.156944454596674,0.0183259565383196,0.0192422550171614,-0.000916297896765172
5,1.01388893532575,-0.0625000010308258,-0.151388899219622,0.00671951752156019,-0.0100792767480016,0.00427605677396059
5,1.0125000434425,-0.0625000010308258,-0.15555556271342,0.00671951752156019,-0.0213802829384804,0.00183259579353034
5,1.01111115155925,-0.0625000010308258,-0.154166670830166,0.0125227374956012,-0.00305432616733015,0.00702495034784079
5,1.01527782720901,-0.0680555564078778,-0.161111118090472,0.0161879286170006,0.00580321997404099,0.00366519158706069
5,1.0125000434425,-0.0666666706026059,-0.166666673467524,0.0180205255746841,0.00733038317412138,0.00549778714776039
5,1.01527782720901,-0.0680555564078778,-0.166666673467524,0.0152716310694814,-0.000305432622553781,0.0033597587607801
5,1.02361117850853,-0.0652777787193518,-0.175000000455119,0.0161879286170006,0.00855211354792118,-0.00488692196086049
5,1.01805561097552,-0.0652777787193518,-0.176388892338373,0.0134390350431204,0.00763581553474069,-0.00671951752156019
5,1.01527782720901,-0.0652777787193518,-0.158333334323963,0.0219911485910416,-0.00671951752156019,0.0045814891345799
5,1.01805561097552,-0.0652777787193518,-0.169444445078067,0.0152716310694814,-0.00397062394768,0.00397062394768
5,1.01805561097552,-0.0680555564078778,-0.166666673467524,0.0171042270958424,-0.00671951752156019,0.00427605677396059
5,1.0125000434425,-0.0638888929140799,-0.156944454596674,0.017409659922123,-0.00244346098043024,0.00366519158706069
5,1.0125000434425,-0.0569444456537738,-0.166666673467524,0.00916297826915979,-0.00183259579353034,0.00580321997404099
5,1.0125000434425,-0.0625000010308258,-0.156944454596674,0.00916297826915979,-0.00519235478714108,0.0033597587607801
5,1.01805561097552,-0.0652777787193518,-0.166666673467524,0.00763581553474069,-0.0045814891345799,0.00885754637420177
5,1.01805561097552,-0.0652777787193518,-0.169444445078067,0.00916297826915979,-0.0100792767480016,0.00824668072164059
5,1.01944450285877,-0.0722222259796579,-0.159722226207217,0.0152716310694814,-0.0161879286170006,0.0128281703218818
5,1.01527782720901,-0.0694444482911319,-0.163888889701015,0.0106901414692402,-0.0122173046693206,0.00916297826915979
5,1.01666671909226,-0.0680555564078778,-0.16527778158427,0.01191187184304,-0.00519235478714108,0.0106901414692402
5,1.01944450285877,-0.0680555564078778,-0.166666673467524,0.00916297826915979,-0.00824668072164059,0.0100792767480016
5,1.01805561097552,-0.0680555564078778,-0.158333334323963,0.0128281703218818,-0.00152716308366507,0.0125227374956012
5,1.01944450285877,-0.0652777787193518,-0.163888889701015,0.00946841109544039,0.000916297896765172,0.0109955742955208
5,1.0125000434425,-0.0597222233422998,-0.163888889701015,0.00641408516094089,-0.00733038317412138,0.00855211354792118
5,1.01805561097552,-0.0638888929140799,-0.159722226207217,0.00519235478714108,-0.01191187184304,0.0103847095742822
5,1.02500007039179,-0.0680555564078778,-0.17361112072783,0.0131336031481624,0.00244346098043024,0.00580321997404099
5,1.01944450285877,-0.0750000036681839,-0.170833336961321,0.0219911485910416,0.00366519158706069,-0.00427605677396059
5,1.0125000434425,-0.0750000036681839,-0.156944454596674,0.017409659922123,-0.00580321997404099,0.00641408516094089
5,1.01805561097552,-0.0708333340964038,-0.170833336961321,0.0280998013913631,-0.00122173049021512,0.0045814891345799
5,1.01805561097552,-0.0708333340964038,-0.170833336961321,0.0277943685650826,0.019547687843442,0.00824668072164059
5,1.0125000434425,-0.0694444482911319,-0.159722226207217,0.0113010071218014,0.00977384392172098,0.0140499006956816
5,1.0125000434425,-0.0652777787193518,-0.172222228844576,0.0113010071218014,-0.00702495034784079,0.011606439948082
5,1.0125000434425,-0.0652777787193518,-0.172222228844576,0.0201585534960032,-0.0229074470698834,0.00152716308366507
5,1.01527782720901,-0.0708333340964038,-0.166666673467524,0.02382374368608,-0.00916297826915979,0.0106901414692402
5,1.01944450285877,-0.0722222259796579,-0.166666673467524,0.0222965814173222,0.00549778714776039,0.00855211354792118
5,1.01944450285877,-0.0722222259796579,-0.166666673467524,0.0192422550171614,0.00824668072164059,0.00580321997404099
5,1.01666671909226,-0.0722222259796579,-0.158333334323963,0.017409659922123,0.00733038317412138,0.0152716310694814
5,1.01527782720901,-0.0722222259796579,-0.163888889701015,0.0164933614432812,-0.0027488935738802,0.00885754637420177
5,1.01527782720901,-0.0694444482911319,-0.159722226207217,0.0247400421649218,0.00977384392172098,0.00977384392172098
5,1.01527782720901,-0.0625000010308258,-0.158333334323963,0.0256563406437635,0.00427605677396059,0.00397062394768
5,1.01388893532575,-0.0652777787193518,-0.161111118090472,0.0247400421649218,-0.00122173049021512,0.00763581553474069
5,1.00972225967599,-0.0750000036681839,-0.170833336961321,0.013744467869401,-0.00488692196086049,0.00763581553474069
5,1.0125000434425,-0.0722222259796579,-0.170833336961321,0.0192422550171614,-0.00763581553474069,0.00763581553474069
5,1.0125000434425,-0.0750000036681839,-0.161111118090472,0.0210748501121998,-0.00671951752156019,0.00733038317412138
5,1.01527782720901,-0.0722222259796579,-0.166666673467524,0.0320704244077206,0.00427605677396059,0.00794124789535999
5,1.01388893532575,-0.0722222259796579,-0.163888889701015,0.0241291765123606,-0.00244346098043024,0.00305432616733015
5,1.01666671909226,-0.0722222259796579,-0.180555567988136,0.0250454749912024,0.00305432616733015,0.0143553335219622
5,1.01805561097552,-0.0750000036681839,-0.17361112072783,0.0222965814173222,0.00122173049021512,0.00977384392172098
5,1.01527782720901,-0.0763888894734557,-0.16527778158427,0.0241291765123606,0.00702495034784079,0.00916297826915979
5,1.01527782720901,-0.0694444482911319,-0.163888889701015,0.0186313893646002,-0.0021380283869803,0.0109955742955208
5,1.01805561097552,-0.0750000036681839,-0.161111118090472,0.0177150927484035,0.0021380283869803,0.019547687843442
5,1.01944450285877,-0.0736111117849297,-0.166666673467524,0.0265726372599602,0.000916297896765172,0.00580321997404099
5,1.01805561097552,-0.0722222259796579,-0.16527778158427,0.0189368221908808,-0.00794124789535999,0.0152716310694814
5,1.02638896227504,-0.0722222259796579,-0.166666673467524,0.0226020142436027,-0.0106901414692402,0.013744467869401
5,1.02222228662528,-0.0805555590452358,-0.158333334323963,0.0277943685650826,0.000916297896765172,0.00580321997404099
5,1.01944450285877,-0.0777777813567098,-0.161111118090472,0.0143553335219622,0.00671951752156019,0.00488692196086049
5,1.01388893532575,-0.0750000036681839,-0.15555556271342,0.0222965814173222,0.0027488935738802,0.0125227374956012
5,1.01666671909226,-0.0750000036681839,-0.163888889701015,0.0308486949652433,0.00122173049021512,0.00580321997404099
5,1.02500007039179,-0.0777777813567098,-0.166666673467524,0.0262672062963247,0.0149661982432008,0.00946841109544039
5,1.01944450285877,-0.0763888894734557,-0.151388899219622,0.0222965814173222,-0.0045814891345799,0.00610865233466029
5,1.01805561097552,-0.0750000036681839,-0.156944454596674,0.017409659922123,-0.0109955742955208,0.0180205255746841
5,1.01527782720901,-0.0777777813567098,-0.159722226207217,0.0183259565383196,0.00244346098043024,0.00855211354792118
5,1.01527782720901,-0.0736111117849297,-0.162500009973726,0.0164933614432812,0.0033597587607801,0.0113010071218014
5,1.01527782720901,-0.0750000036681839,-0.163888889701015,0.0143553335219622,0.00702495034784079,0.00610865233466029
5,1.01666671909226,-0.0680555564078778,-0.161111118090472,0.0100792767480016,0.00763581553474069,0.0109955742955208
5,1.00972225967599,-0.0722222259796579,-0.162500009973726,0.00519235478714108,0.00794124789535999,0.01191187184304
5,1.0125000434425,-0.0694444482911319,-0.156944454596674,0.00305432616733015,-0.0103847095742822,0.011606439948082
5,1.0125000434425,-0.0694444482911319,-0.156944454596674,0.00916297826915979,-0.0180205255746841,0.0106901414692402
5,1.01527782720901,-0.0750000036681839,-0.159722226207217,0.013744467869401,-0.0161879286170006,0.00977384392172098
5,1.01527782720901,-0.0777777813567098,-0.163888889701015,0.011606439948082,-0.0253509078174829,0.00641408516094089
5,1.01527782720901,-0.0763888894734557,-0.166666673467524,0.0100792767480016,-0.0290160998702049,0.0164933614432812
5,1.01944450285877,-0.0736111117849297,-0.170833336961321,0.00763581553474069,-0.0198531206697226,0.0146607663482428
5,1.02222228662528,-0.0777777813567098,-0.170833336961321,0.00824668072164059,-0.00244346098043024,0.0100792767480016
5,1.01388893532575,-0.0777777813567098,-0.168055565350778,-0.00122173049021512,-0.0122173046693206,0.0149661982432008
5,1.0125000434425,-0.0736111117849297,-0.161111118090472,-0.0103847095742822,-0.01191187184304,0.00824668072164059
5,1.0125000434425,-0.0791666671619817,-0.161111118090472,-0.0045814891345799,-0.0152716310694814,0.0140499006956816
5,1.01527782720901,-0.0833333367337618,-0.162500009973726,-0.00397062394768,-0.0125227374956012,0.00671951752156019
5,1.0125000434425,-0.0750000036681839,-0.15555556271342,-0.000305432622553781,-0.011606439948082,0.0113010071218014
5,1.01666671909226,-0.0777777813567098,-0.163888889701015,0.00305432616733015,-0.0125227374956012,0.0219911485910416
5,1.01527782720901,-0.0750000036681839,-0.169444445078067,0.00794124789535999,-0.00427605677396059,0.0106901414692402
5,1.01527782720901,-0.0819444448505077,-0.158333334323963,0.0109955742955208,-0.0045814891345799,0.00244346098043024
5,1.01944450285877,-0.0819444448505077,-0.159722226207217,0.00152716308366507,-0.00885754637420177,0.00671951752156019
5,1.02222228662528,-0.0902777839940679,-0.163888889701015,0.00824668072164059,0.00183259579353034,0.0140499006956816
5,1.01805561097552,-0.0847222225390337,-0.162500009973726,0.0113010071218014,-0.0033597587607801,0.00855211354792118
5,1.0125000434425,-0.0847222225390337,-0.162500009973726,0.0140499006956816,0.00885754637420177,0.0113010071218014
5,1.00972225967599,-0.0847222225390337,-0.162500009973726,0.015577063895762,-0.0021380283869803,0.00824668072164059
5,1.01527782720901,-0.0902777839940679,-0.156944454596674,0.0308486949652433,0.00244346098043024,0.00244346098043024
5,1.0125000434425,-0.0777777813567098,-0.16527778158427,0.0213802829384804,0.0207694191485643,0.00671951752156019
5,1.00694447590948,-0.0777777813567098,-0.16527778158427,0.0100792767480016,0.00488692196086049,-0.00244346098043024
5,1.0125000434425,-0.0791666671619817,-0.170833336961321,0.0164933614432812,-0.00397062394768,0.00122173049021512
5,1.0125000434425,-0.0833333367337618,-0.169444445078067,0.0213802829384804,-0.00152716308366507,-0.000916297896765172
5,1.01666671909226,-0.0805555590452358,-0.163888889701015,0.013744467869401,-0.00183259579353034,0.00488692196086049
5,1.02361117850853,-0.0888888921108138,-0.163888889701015,0.0131336031481624,-0.00610865233466029,0.00671951752156019
5,1.02083339474202,-0.0791666671619817,-0.166666673467524,0.0164933614432812,-0.0045814891345799,0.00916297826915979
5,1.02083339474202,-0.0805555590452358,-0.166666673467524,0.0100792767480016,-0.000305432622553781,-0.00702495034784079
5,1.01805561097552,-0.0791666671619817,-0.166666673467524,-0.00305432616733015,-0.0113010071218014,-0.0021380283869803
5,1.0125000434425,-0.0736111117849297,-0.175000000455119,-0.00488692196086049,-0.0103847095742822,0.0100792767480016
5,1.0125000434425,-0.0736111117849297,-0.175000000455119,-0.0134390350431204,-0.00427605677396059,0.00152716308366507
5,1.01666671909226,-0.0736111117849297,-0.170833336961321,-0.0180205255746841,0.00244346098043024,-0.00519235478714108
5,1.00972225967599,-0.0680555564078778,-0.161111118090472,-0.0348193198442459,-0.000916297896765172,0.0045814891345799
5,1.00972225967599,-0.0694444482911319,-0.159722226207217,-0.0354301854968071,-0.00946841109544039,0.00641408516094089
5,1.01111115155925,-0.0750000036681839,-0.159722226207217,-0.0418442711234093,-0.000610865245107561,0.0161879286170006
5,1.01527782720901,-0.0750000036681839,-0.172222228844576,-0.0412334054708481,0.0021380283869803,0.00152716308366507
5,1.01388893532575,-0.0750000036681839,-0.17361112072783,-0.0390953756868839,-0.01191187184304,0.01191187184304
5,1.00972225967599,-0.0736111117849297,-0.172222228844576,-0.0516181141138077,-0.0192422550171614,0.017409659922123
5,1.01388893532575,-0.0750000036681839,-0.168055565350778,-0.0577267669141293,-0.00183259579353034,0.0186313893646002
5,1.01527782720901,-0.0763888894734557,-0.17361112072783,-0.0687223374843597,0.0149661982432008,0.00946841109544039
5,1.01944450285877,-0.0680555564078778,-0.181944447715425,-0.0717766657471657,0.0143553335219622,0.0109955742955208
5,1.01805561097552,-0.0652777787193518,-0.177777784221628,-0.0757472887635231,0.00946841109544039,0.00946841109544039
5,1.0125000434425,-0.0722222259796579,-0.170833336961321,-0.0739146918058395,-0.00183259579353034,0.0161879286170006
5,1.0125000434425,-0.0708333340964038,-0.166666673467524,-0.0739146918058395,-0.00977384392172098,0.0134390350431204
5,1.01666671909226,-0.0763888894734557,-0.170833336961321,-0.0714712366461754,-0.00733038317412138,0.017409659922123
5,1.01944450285877,-0.0777777813567098,-0.179166676104882,-0.0794124826788902,-0.00794124789535999,0.0213802829384804
5,1.01805561097552,-0.0791666671619817,-0.175000000455119,-0.0836885422468185,-0.0253509078174829,0.0192422550171614
5,1.0125000434425,-0.0750000036681839,-0.176388892338373,-0.0632245540618896,-0.0109955742955208,0.0335975885391235
5,1.0125000434425,-0.0777777813567098,-0.177777784221628,-0.0751364231109619,-0.0027488935738802,0.0232128798961639
5,1.01527782720901,-0.0763888894734557,-0.170833336961321,-0.0836885422468185,-0.0140499006956816,0.0360410511493683
5,1.0125000434425,-0.0791666671619817,-0.172222228844576,-0.0775798857212067,-0.0253509078174829,0.0360410511493683
5,1.00972225967599,-0.0819444448505077,-0.16527778158427,-0.0812450796365738,-0.0293215326964855,0.0403171069920063
5,1.01527782720901,-0.0819444448505077,-0.170833336961321,-0.0610865242779255,-0.0280998013913631,0.02382374368608
5,1.02222228662528,-0.0805555590452358,-0.170833336961321,-0.0543670058250427,-0.0177150927484035,0.0189368221908808
5,1.02500007039179,-0.0847222225390337,-0.163888889701015,-0.0442877300083637,-0.0164933614432812,0.0219911485910416
5,1.02500007039179,-0.0847222225390337,-0.163888889701015,-0.0192422550171614,-0.0128281703218818,0.019547687843442
5,1.02083339474202,-0.0888888921108138,-0.179166676104882,-0.013744467869401,-0.00702495034784079,0.0161879286170006
5,1.01944450285877,-0.0902777839940679,-0.175000000455119,0.000610865245107561,-0.0033597587607801,0.00824668072164059
5,1.01944450285877,-0.0875000002275597,-0.177777784221628,0.00183259579353034,0.0140499006956816,0.00946841109544039
5,1.00833336779274,-0.0875000002275597,-0.177777784221628,0.0100792767480016,0.0033597587607801,-0.0027488935738802
5,1.00416669214298,-0.0847222225390337,-0.172222228844576,0.00580321997404099,0.00427605677396059,0.00763581553474069
5,1.00277780025972,-0.0805555590452358,-0.168055565350778,0.0201585534960032,0.00305432616733015,0.00610865233466029
5,1.00555558402623,-0.0722222259796579,-0.177777784221628,0.0134390350431204,-0.01191187184304,0.0045814891345799
5,1.00833336779274,-0.0777777813567098,-0.166666673467524,0.0265726372599602,-0.0244346093386412,0.0045814891345799
5,1.02222228662528,-0.0847222225390337,-0.177777784221628,0.0265726372599602,-0.0103847095742822,0.000916297896765172
5,1.02777785415829,-0.0819444448505077,-0.18333333959868,0.0406225398182869,0.00244346098043024,-0.000305432622553781
5,1.02500007039179,-0.0805555590452358,-0.19166667874224,0.0488692186772823,0.0351247526705265,-0.00122173049021512
5,1.01527782720901,-0.0875000002275597,-0.200000005729836,0.037568211555481,0.0351247526705265,-0.0033597587607801
5,1.00833336779274,-0.0791666671619817,-0.184722231481934,0.0253509078174829,0.015577063895762,-0.000916297896765172
5,1.00972225967599,-0.0777777813567098,-0.170833336961321,0.0229074470698834,-0.00671951752156019,0.00610865233466029
5,1.00555558402623,-0.0847222225390337,-0.154166670830166,0.0314595587551594,-0.0448985956609249,0.00549778714776039
5,1.00000001649321,-0.0819444448505077,-0.152777778946911,0.0363464802503586,-0.08460483700037,0.0167987942695618
5,1.00277780025972,-0.0819444448505077,-0.172222228844576,0.0381790772080422,-0.096211276948452,0.0103847095742822
5,1.01527782720901,-0.0847222225390337,-0.184722231481934,0.0339030213654041,-0.0552833043038845,0.0134390350431204
5,1.01944450285877,-0.0861111144222878,-0.187500003092477,0.0326812900602817,-0.0262672062963247,0.00152716308366507
5,1.01944450285877,-0.0819444448505077,-0.176388892338373,0.0305432621389627,-0.00671951752156019,0.00427605677396059
5,1.02500007039179,-0.0847222225390337,-0.177777784221628,0.0448985956609249,0.00549778714776039,-0.0021380283869803
5,1.02777785415829,-0.0819444448505077,-0.18333333959868,0.0287106670439243,0.027488935738802,0.00366519158706069
5,1.01527782720901,-0.0861111144222878,-0.168055565350778,0.0113010071218014,0.0140499006956816,-0.00549778714776039
5,1.01666671909226,-0.0819444448505077,-0.168055565350778,0.00855211354792118,0.0149661982432008,-0.00488692196086049
5,1.01805561097552,-0.0819444448505077,-0.170833336961321,0.00580321997404099,0.0131336031481624,-0.0103847095742822
5,1.01527782720901,-0.0847222225390337,-0.176388892338373,0.000916297896765172,0.0305432621389627,-0.00977384392172098
5,1.00833336779274,-0.0791666671619817,-0.177777784221628,0.00855211354792118,0.0265726372599602,-0.00610865233466029
5,1.00555558402623,-0.0861111144222878,-0.166666673467524,0.00549778714776039,0.0247400421649218,-0.00946841109544039
5,1.00555558402623,-0.0805555590452358,-0.175000000455119,0.0125227374956012,0.0198531206697226,-0.00763581553474069
5,1.00416669214298,-0.0791666671619817,-0.163888889701015,0.0128281703218818,0.0177150927484035,0.00488692196086049
5,1.00694447590948,-0.0805555590452358,-0.170833336961321,0.0134390350431204,-0.0027488935738802,0.0045814891345799
5,1.00694447590948,-0.0805555590452358,-0.170833336961321,0.0113010071218014,-0.0167987942695618,0.0021380283869803
5,1.0125000434425,-0.0777777813567098,-0.180555567988136,0.0210748501121998,-0.0128281703218818,-0.00549778714776039
5,1.01111115155925,-0.0805555590452358,-0.17361112072783,0.0226020142436027,-0.013744467869401,0.011606439948082
5,1.00694447590948,-0.0861111144222878,-0.17361112072783,0.0268780700862408,-0.00183259579353034,0.00427605677396059
5,1.01527782720901,-0.0805555590452358,-0.177777784221628,0.0229074470698834,0.00794124789535999,-0.00152716308366507
5,1.01111115155925,-0.0805555590452358,-0.186111123365188,0.0262672062963247,0.0161879286170006,0.00702495034784079
5,1.01388893532575,-0.0819444448505077,-0.170833336961321,0.017409659922123,-0.00855211354792118,0.0131336031481624
5,1.01527782720901,-0.0791666671619817,-0.166666673467524,0.0256563406437635,-0.0219911485910416,0.0100792767480016
5,1.01666671909226,-0.0875000002275597,-0.186111123365188,0.0436768643558025,-0.0210748501121998,0.00183259579353034
5,1.01944450285877,-0.0902777839940679,-0.187500003092477,0.0473420582711697,-0.0131336031481624,0.00549778714776039
5,1.02222228662528,-0.0902777839940679,-0.176388892338373,0.0629191175103188,0.00488692196086049,-0.00733038317412138
5,1.02083339474202,-0.0875000002275597,-0.187500003092477,0.0720821022987366,0.0198531206697226,-0.0131336031481624
5,1.01944450285877,-0.0875000002275597,-0.18333333959868,0.0766635909676552,0.0311541277915239,-0.017409659922123
5,1.01944450285877,-0.0847222225390337,-0.190277786858986,0.0754418596625328,0.0503963828086853,-0.015577063895762
5,1.01944450285877,-0.0847222225390337,-0.190277786858986,0.0827722400426865,0.0549778714776039,-0.021685715764761
5,1.02222228662528,-0.0875000002275597,-0.175000000455119,0.0784961804747581,0.0571159012615681,-0.0229074470698834
5,1.01944450285877,-0.0875000002275597,-0.163888889701015,0.0757472887635231,0.0647517144680023,-0.0262672062963247
5,1.01944450285877,-0.0875000002275597,-0.163888889701015,0.0720821022987366,0.0726929605007172,-0.0213802829384804
5,1.00833336779274,-0.0888888921108138,-0.158333334323963,0.078801617026329,0.0552833043038845,-0.0280998013913631
5,1.01111115155925,-0.0875000002275597,-0.163888889701015,0.0769690200686455,0.0445931628346443,-0.0222965814173222
5,1.01666671909226,-0.0847222225390337,-0.172222228844576,0.0485637858510017,0.0540615729987621,-0.013744467869401
5,1.01666671909226,-0.0847222225390337,-0.172222228844576,0.027488935738802,0.0794124826788902,-0.0201585534960032
5,1.01388893532575,-0.0819444448505077,-0.163888889701015,0.0473420582711697,0.0561996027827263,-0.0284052342176437
5,1.01666671909226,-0.0791666671619817,-0.184722231481934,0.0510072484612465,0.0464257597923279,-0.0335975885391235
5,1.01666671909226,-0.0791666671619817,-0.184722231481934,0.0726929605007172,0.0852157026529312,-0.0360410511493683
5,1.01944450285877,-0.0750000036681839,-0.18333333959868,0.0800233483314514,0.122173048555851,-0.0452040284872055
5,1.01666671909226,-0.0777777813567098,-0.187500003092477,0.0806342139840126,0.150272846221924,-0.0384845100343227
5,1.01666671909226,-0.0777777813567098,-0.187500003092477,0.0525344125926495,0.153021737933159,-0.0467311926186085
5,1.00694447590948,-0.0750000036681839,-0.17361112072783,0.027488935738802,0.119118720293045,-0.0409279726445675
5,0.993055557076942,-0.0763888894734557,-0.162500009973726,0.0207694191485643,0.0607810914516449,-0.0363464802503586
5,0.99583334084345,-0.0805555590452358,-0.162500009973726,0.0128281703218818,0.0791070461273193,-0.0516181141138077
5,1.00833336779274,-0.0847222225390337,-0.161111118090472,0.0106901414692402,0.134695783257484,-0.0598647929728031
5,1.01666671909226,-0.0777777813567098,-0.14722222356986,0.00244346098043024,0.133779495954514,-0.0473420582711697
5,1.02500007039179,-0.055555559848502,-0.12916666555545,-0.00366519158706069,0.145080491900444,-0.0284052342176437
5,1.0333333244436,-0.0388888906783549,-0.125000002061652,-0.0171042270958424,0.128587126731873,-0.00580321997404099
5,1.0125000434425,-0.0347222241455659,-0.105555564319952,-0.0736092627048492,0.0335975885391235,0.0177150927484035
5,0.998611124609959,-0.0444444460554069,-0.100000002864918,-0.0852157026529312,-0.0687223374843597,0.0397062413394451
5,1.00555558402623,-0.0666666706026059,-0.113888891307548,-0.0791070461273193,-0.122783914208412,0.0436768643558025
5,1.01666671909226,-0.0777777813567098,-0.143055560076062,-0.0849102661013603,-0.0763581544160843,0.0513126812875271
5,1.02222228662528,-0.0819444448505077,-0.154166670830166,-0.0839939713478088,-0.0332921557128429,0.0522289797663689
5,1.01944450285877,-0.0819444448505077,-0.159722226207217,-0.0678060427308083,-0.0302378293126821,0.0458148941397667
5,1.02916674604155,-0.0819444448505077,-0.150000007336368,-0.0293215326964855,0.0027488935738802,0.019547687843442
5,1.03194452980806,-0.0750000036681839,-0.140277788465518,-0.01588249579072,0.0552833043038845,0.00183259579353034
5,1.01666671909226,-0.0680555564078778,-0.140277788465518,-0.0189368221908808,0.0455094613134861,0.0109955742955208
5,1.0125000434425,-0.0583333375370279,-0.125000002061652,-0.0369573459029198,0.0222965814173222,0.0207694191485643
5,1.01805561097552,-0.0694444482911319,-0.130555557438704,-0.0717766657471657,0.0177150927484035,0.0293215326964855
5,1.01666671909226,-0.0750000036681839,-0.12777778582816,-0.0821613743901253,-0.0415388382971287,0.037568211555481
5,1.01944450285877,-0.0722222259796579,-0.134722233088466,-0.0647517144680023,-0.0568104684352875,0.0519235469400883
5,1.02222228662528,-0.0722222259796579,-0.136111112815755,-0.0482583530247212,-0.0351247526705265,0.0378736443817616
5,1.02777785415829,-0.0777777813567098,-0.144444451959316,-0.0360410511493683,-0.0329867228865623,0.0473420582711697
5,1.02777785415829,-0.0763888894734557,-0.143055560076062,-0.0164933614432812,-0.00885754637420177,0.0390953756868839
5,1.02500007039179,-0.0777777813567098,-0.12777778582816,-0.00183259579353034,0.019547687843442,0.0271835029125214
5,1.01527782720901,-0.0819444448505077,-0.125000002061652,-0.00641408516094089,-0.000305432622553781,0.0390953756868839
5,1.01111115155925,-0.0791666671619817,-0.120833338567854,-0.015577063895762,0.0027488935738802,0.0427605658769607
5,1.01388893532575,-0.0777777813567098,-0.123611110178398,-0.0204639863222837,-0.0332921557128429,0.0448985956609249
5,1.00972225967599,-0.0819444448505077,-0.1194444466846,-0.0106901414692402,-0.0580321997404099,0.0561996027827263
5,1.02083339474202,-0.0861111144222878,-0.126388893944906,-0.00152716308366507,-0.0433714315295219,0.0381790772080422
5,1.02777785415829,-0.0847222225390337,-0.134722233088466,0.0134390350431204,-0.0213802829384804,0.0293215326964855
5,1.02500007039179,-0.0875000002275597,-0.136111112815755,0.0287106670439243,0.00152716308366507,0.0235183127224445
5,1.02500007039179,-0.0833333367337618,-0.130555557438704,0.0488692186772823,-0.00122173049021512,0.0189368221908808
5,1.02222228662528,-0.0819444448505077,-0.12777778582816,0.0409279726445675,-0.00610865233466029,0.01191187184304
5,1.01388893532575,-0.0777777813567098,-0.13750000469901,0.037568211555481,-0.015577063895762,0.0210748501121998
5,1.01388893532575,-0.0763888894734557,-0.133333341205212,0.0409279726445675,-0.0189368221908808,0.0256563406437635
5,1.01944450285877,-0.0777777813567098,-0.12916666555545,0.0259617734700441,-0.0452040284872055,0.0247400421649218
5,1.02222228662528,-0.0791666671619817,-0.143055560076062,0.0186313893646002,-0.0442877300083637,0.0290160998702049
5,1.03194452980806,-0.0777777813567098,-0.144444451959316,0.0122173046693206,-0.0299323964864016,0.02382374368608
5,1.0305556379248,-0.0777777813567098,-0.14722222356986,0.0146607663482428,-0.00794124789535999,0.0290160998702049
5,1.03194452980806,-0.0791666671619817,-0.140277788465518,0.0146607663482428,-0.00824668072164059,0.0241291765123606
5,1.01527782720901,-0.0833333367337618,-0.144444451959316,0.0277943685650826,-0.0143553335219622,0.0320704244077206
5,1.00694447590948,-0.0916666697993398,-0.143055560076062,0.0363464802503586,-0.0259617734700441,0.0287106670439243
5,1.00555558402623,-0.0875000002275597,-0.156944454596674,0.0415388382971287,-0.02382374368608,0.015577063895762
5,1.01944450285877,-0.0944444474878658,-0.154166670830166,0.0568104684352875,-0.0113010071218014,0.00824668072164059
5,1.02500007039179,-0.100000002864918,-0.156944454596674,0.0607810914516449,0.0134390350431204,-0.011606439948082
5,1.02500007039179,-0.0930555616825939,-0.148611115453114,0.0696386396884918,0.0244346093386412,-0.00763581553474069
5,1.00972225967599,-0.0847222225390337,-0.14583334384257,0.0757472887635231,0.0134390350431204,0.00244346098043024
5,1.00694447590948,-0.0861111144222878,-0.154166670830166,0.0687223374843597,0.00549778714776039,0.0125227374956012
5,1.00555558402623,-0.0944444474878658,-0.152777778946911,0.0552833043038845,-0.00641408516094089,0.01191187184304
5,1.00972225967599,-0.0944444474878658,-0.154166670830166,0.070249505341053,-0.00641408516094089,0.00397062394768
5,1.01666671909226,-0.0930555616825939,-0.148611115453114,0.0708603709936142,0.00977384392172098,-0.00397062394768
5,1.01666671909226,-0.0875000002275597,-0.14722222356986,0.058643065392971,0.0186313893646002,-0.000916297896765172
5,1.00972225967599,-0.0847222225390337,-0.143055560076062,0.0421497002243996,-0.0027488935738802,-0.00244346098043024
5,1.01805561097552,-0.0847222225390337,-0.143055560076062,0.0167987942695618,-0.0204639863222837,0.0113010071218014
5,1.02083339474202,-0.0861111144222878,-0.163888889701015,0.00855211354792118,-0.00671951752156019,0.0134390350431204
5,1.01944450285877,-0.0875000002275597,-0.168055565350778,-0.00427605677396059,0.0256563406437635,0.0045814891345799
5,1.01527782720901,-0.100000002864918,-0.150000007336368,0.0027488935738802,0.0613919571042061,0.00580321997404099
5,1.01527782720901,-0.100000002864918,-0.150000007336368,0.00549778714776039,0.00183259579353034,0.00916297826915979
5,1.00972225967599,-0.0930555616825939,-0.13750000469901,0.00733038317412138,-0.0525344125926495,0.01588249579072
5,1.01944450285877,-0.0958333393711199,-0.154166670830166,0.00580321997404099,-0.0354301854968071,0.0192422550171614
5,1.01944450285877,-0.0958333393711199,-0.154166670830166,0.00763581553474069,-0.0262672062963247,0.0183259565383196
5,1.02500007039179,-0.0930555616825939,-0.14722222356986,0.0207694191485643,-0.0345138870179653,0.0125227374956012
5,1.02500007039179,-0.0944444474878658,-0.152777778946911,0.0372627787292004,-0.0400116741657257,0.00427605677396059
5,1.02500007039179,-0.0944444474878658,-0.152777778946911,0.0485637858510017,-0.0302378293126821,0.0201585534960032
5,1.02500007039179,-0.0930555616825939,-0.150000007336368,0.0537561401724815,-0.0161879286170006,0.013744467869401
5,1.0125000434425,-0.0902777839940679,-0.14583334384257,0.0561996027827263,-0.0204639863222837,0.0134390350431204
5,1.0125000434425,-0.0902777839940679,-0.14583334384257,0.0653625801205635,-0.0308486949652433,0.011606439948082
5,1.01527782720901,-0.0888888921108138,-0.150000007336368,0.0433714315295219,-0.0378736443817616,0.0143553335219622
5,1.01944450285877,-0.0902777839940679,-0.14583334384257,0.0384845100343227,-0.0403171069920063,0.0177150927484035
5,1.02222228662528,-0.0875000002275597,-0.162500009973726,0.0363464802503586,-0.0421497002243996,0.0125227374956012
5,1.0305556379248,-0.0916666697993398,-0.151388899219622,0.0427605658769607,-0.0433714315295219,0.0152716310694814
5,1.02222228662528,-0.0916666697993398,-0.156944454596674,0.0464257597923279,-0.0326812900602817,0.00916297826915979
5,1.02222228662528,-0.0930555616825939,-0.152777778946911,0.0442877300083637,-0.0335975885391235,0.00183259579353034
5,1.01388893532575,-0.0972222251763917,-0.14583334384257,0.0427605658769607,-0.0244346093386412,0.00305432616733015
5,1.00138890837647,-0.0916666697993398,-0.150000007336368,0.0397062413394451,-0.0427605658769607,0.00885754637420177
5,0.998611124609959,-0.0875000002275597,-0.159722226207217,0.0256563406437635,-0.0366519130766392,0.0164933614432812
5,1.00555558402623,-0.0847222225390337,-0.152777778946911,0.00183259579353034,-0.0507018156349659,0.037568211555481
5,1.00555558402623,-0.0847222225390337,-0.152777778946911,-0.00183259579353034,-0.0616973899304867,0.0445931628346443
5,1.00833336779274,-0.0833333367337618,-0.161111118090472,-0.00885754637420177,-0.0681114718317986,0.0589484944939613
5,1.01527782720901,-0.0916666697993398,-0.166666673467524,-0.02382374368608,-0.0729983970522881,0.0613919571042061
5,1.01944450285877,-0.0986111170596459,-0.161111118090472,-0.0305432621389627,-0.0678060427308083,0.0415388382971287
5,1.02222228662528,-0.105555564319952,-0.158333334323963,-0.0201585534960032,-0.0742201283574104,0.0470366254448891
5,1.02083339474202,-0.106944444047242,-0.159722226207217,-0.0171042270958424,-0.0577267669141293,0.0424551330506802
5,1.02361117850853,-0.0958333393711199,-0.159722226207217,-0.0198531206697226,-0.0461203269660473,0.0412334054708481
5,1.02222228662528,-0.101388894748172,-0.163888889701015,-0.00702495034784079,-0.0351247526705265,0.0308486949652433
5,1.01805561097552,-0.0944444474878658,-0.175000000455119,0.00305432616733015,-0.05283984541893,0.0378736443817616
5,1.01527782720901,-0.106944444047242,-0.170833336961321,0.00977384392172098,-0.0488692186772823,0.0415388382971287
5,1.01388893532575,-0.111111119697004,-0.172222228844576,0.0100792767480016,-0.0503963828086853,0.0250454749912024
5,1.00833336779274,-0.118055554801345,-0.166666673467524,0.0287106670439243,-0.0424551330506802,0.0140499006956816
5,1.01944450285877,-0.116666675074056,-0.172222228844576,0.0448985956609249,-0.0219911485910416,0.00488692196086049
5,1.02222228662528,-0.113888891307548,-0.179166676104882,0.0424551330506802,-0.00519235478714108,-0.00122173049021512
5,1.01388893532575,-0.105555564319952,-0.176388892338373,0.0372627787292004,-0.0183259565383196,0.0021380283869803
5,1.01805561097552,-0.106944444047242,-0.172222228844576,0.0387899428606033,-0.0177150927484035,-0.00916297826915979
5,1.02222228662528,-0.106944444047242,-0.16527778158427,0.0372627787292004,-0.0235183127224445,-0.00702495034784079
5,1.02222228662528,-0.104166672436698,-0.175000000455119,0.0421497002243996,-0.027488935738802,0.000305432622553781
5,1.01944450285877,-0.111111119697004,-0.172222228844576,0.0394008085131645,-0.0171042270958424,-0.00427605677396059
5,1.01805561097552,-0.104166672436698,-0.180555567988136,0.0424551330506802,-0.0259617734700441,-0.00397062394768
5,1.01111115155925,-0.101388894748172,-0.181944447715425,0.0348193198442459,-0.0271835029125214,-0.00549778714776039
