Activity,acc_x,acc_y,acc_z,gyro_x,gyro_y,gyro_z
0,0.459722240879953,0.0736111117849297,0.884722281926269,0.0937678143382072,0.0400116741657257,0.0616973899304867
0,0.452777781463682,0.0722222259796579,0.877777822509998,0.0968221426010132,0.0390953756868839,0.081855945289135
0,0.479166678621653,0.0597222233422998,0.890277849459286,-0.0616973899304867,-0.0610865242779255,0.0675006061792374
0,0.479166678621653,0.0597222233422998,0.890277849459286,-0.0543670058250427,-0.0733038261532784,0.0806342139840126
0,0.447222262554524,0.0736111117849297,0.899999995394348,-0.0369573459029198,-0.0656680166721344,0.128587126731873
0,0.447222262554524,0.0736111117849297,0.899999995394348,-0.0369573459029198,-0.0656680166721344,0.128587126731873
0,0.444444478788016,0.0763888894734557,0.890277849459286,-0.0213802829384804,-0.0232128798961639,0.145080491900444
0,0.444444478788016,0.0763888894734557,0.890277849459286,-0.0280998013913631,0.0537561401724815,0.164322748780251
0,0.479166678621653,0.0694444482911319,0.86805557932722,-0.0595593601465225,-0.0507018156349659,0.0861319974064827
0,0.515277818962402,0.0486111125881959,0.870833363093728,-0.0342084541916847,-0.247094988822937,0.0262672062963247
0,0.477777786738398,0.0458333348996699,0.895833319744586,-0.0397062413394451,-0.218384325504303,0.01588249579072
0,0.477777786738398,0.0458333348996699,0.895833319744586,-0.0754418596625328,-0.0470366254448891,0.0229074470698834
0,0.456944457113445,0.0513888902767219,0.890277849459286,-0.135306656360626,-0.0357356183230877,0.0491746515035629
0,0.456944457113445,0.0513888902767219,0.890277849459286,-0.0757472887635231,-0.0235183127224445,0.0207694191485643
0,0.456944457113445,0.0513888902767219,0.890277849459286,0.0164933614432812,-0.0589484944939613,-0.0164933614432812
0,0.488888921804431,0.0416666683668809,0.86805557932722,0.0711658000946045,-0.0693332031369209,-0.0369573459029198
0,0.506944467662877,0.03194444645704,0.848611190209378,0.140193566679955,-0.114537231624126,-0.0613919571042061
0,0.497222224480098,0.03194444645704,0.844444514559616,0.133779495954514,-0.0592539273202419,-0.0772744566202164
0,0.487500029921177,0.027777779924251,0.833333379493583,0.0726929605007172,0.0833831056952477,-0.123700208961964
0,0.476388894855144,0.0361111129898289,0.825000028194058,0.0616973899304867,0.290160983800888,-0.120340451598167
0,0.476388894855144,0.0430555572111439,0.823611136310804,0.0733038261532784,0.238542884588242,-0.106595985591412
0,0.469444484062732,0.0458333348996699,0.833333379493583,0.0931569486856461,0.102930791676045,-0.0739146918058395
0,0.44583337067127,0.0458333348996699,0.847222298326124,0.121256753802299,0.291993588209152,0.0100792767480016
0,0.424999992422458,0.0472222237439329,0.82916670384382,-0.0351247526705265,0.35430184006691,0.191506251692772
0,0.455555565230191,-0.0111111115138517,0.726388898978447,-0.590706706047058,-0.4758640229702,0.400422155857086
0,0.469444484062732,0.0138888899621255,0.833333379493583,-0.523206055164337,-0.510683357715607,0.463035851716995
0,0.49444444071359,0.00277777787846293,0.894444525109048,0.0797179117798805,0.403781920671463,0.224492982029915
0,0.484722246154669,0.0111111115138517,0.940277860008718,0.298407673835754,0.569020986557007,0.294437050819397
0,0.443055586904762,0.00555555575692586,0.911111130460381,0.276416510343552,0.368046313524246,0.384234249591827
0,0.458333348996699,-0.00972222266958873,0.854166660494678,0.124311074614525,0.763276100158691,0.398589581251144
0,0.452777781463682,-0.033333335301303,0.825000028194058,0.0384845100343227,0.855822205543518,0.590401232242584
0,0.416666689746791,-0.0194444453391775,0.854166660494678,0.0183259565383196,0.448069661855698,0.829249560832977
0,0.433333343721983,0.0125000003581147,0.912500022343635,0.304516315460205,0.38117989897728,0.966694235801697
0,0.433333343721983,0.0250000007162294,0.962500032893068,0.737314343452454,0.238542884588242,0.995404899120331
0,0.400000011459671,0.0402777795226179,0.887500065692777,0.520457208156586,0.159741267561913,1.2345587015152
0,0.408333338447267,0.03194444645704,0.805555590452358,0.154548913240433,0.29657506942749,1.35886979103088
0,0.363888895430851,0.0125000003581147,0.826388920077312,-0.0262672062963247,0.110566608607769,1.6123788356781
0,0.330555563168539,0.0166666676506515,0.87500003874349,0.0977384373545647,-0.350331217050552,1.8735237121582
0,0.327777779402031,-0.0125000003581147,0.913888914226889,0.138971850275993,-0.359188765287399,2.02104759216309
0,0.416666689746791,-0.0888888921108138,0.911111130460381,0.130725160241127,0.157603234052658,1.99080979824066
0,0.483333354271415,-0.140277788465518,0.887500065692777,0.0326812900602817,0.32284227013588,1.84145331382752
0,0.472222219205382,-0.125000002061652,0.827777811960566,-0.244040668010712,0.16371189057827,1.79411125183105
0,0.398611119576417,-0.113888891307548,0.856944444261187,-0.299018532037735,-0.17989981174469,1.89856922626495
0,0.411111122213775,-0.134722233088466,0.952777789710289,0.0595593601465225,-0.517097413539886,1.81365895271301
0,0.525000013521323,-0.202777789496344,0.954166681593543,0.396451532840729,-0.114537231624126,1.47279608249664
0,0.552777802562547,-0.251388896006557,0.958333357243305,0.681114733219147,0.0974330082535744,1.08978354930878
0,0.508333359546131,-0.2194444556275,0.973611167959101,0.781907498836517,-0.101403631269932,0.931874930858612
0,0.440277803138253,-0.120833338567854,0.98888888142718,0.755334854125977,-0.298102229833603,0.858265697956085
0,0.413888905980283,-0.0569444456537738,0.93750007624221,0.396451532840729,-0.183259576559067,0.78740531206131
0,0.449999997697174,-0.0666666706026059,0.929166724942685,0.0613919571042061,-0.220216915011406,0.681114733219147
0,0.466666700296224,-0.100000002864918,0.904166671044111,-0.20616702735424,-0.599258780479431,0.594066441059113
0,0.4194444735133,-0.0750000036681839,0.893055633225794,-0.277332812547684,-0.982576727867126,0.595593631267548
0,0.458333348996699,-0.0833333367337618,0.780555585177642,-0.423024177551269,-1.01831233501434,0.471587955951691
0,0.500000008246606,-0.108333335930496,0.775000017644626,-0.472198843955994,-1.23211514949799,0.27458393573761
0,0.509722251429385,-0.0236111118719664,0.854166660494678,-0.408057987689972,-1.31641459465027,0.454789161682129
0,0.387500008822313,-0.166666673467524,0.859722228027695,-0.758694648742676,-1.81152093410492,2.14749670028686
0,0.602777813111979,-0.223611131277262,0.861111119910949,-0.571769893169403,-2.26478290557861,3.07356858253479
0,0.752777796136418,-0.230555566381603,0.82222224442755,-0.521984338760376,-0.921184778213501,2.72048830986023
0,0.75000001236991,-0.175000000455119,0.694444482911319,-1.12215948104858,-0.346360594034195,1.88451933860779
0,0.670833369519857,-0.187500003092477,0.512500035195893,-2.03540301322937,-1.46882545948029,1.65819370746613
0,0.705555569353494,-0.259722222994153,0.402777795226179,-2.85487866401672,-3.8124098777771,1.63772976398468
0,0.769444450111609,-0.361111135976272,0.545833343146276,-2.44987511634827,-5.08239889144897,1.26540732383728
0,0.762500039319197,-0.484722246154669,0.680555564078778,-0.442266434431076,-4.54208850860596,0.308181524276733
0,0.743055601577497,-0.513888927079148,0.712500028769764,1.69820535182953,-3.43275713920593,0.0849102661013603
0,0.733333358394718,-0.483333354271415,0.675000045169619,2.47430968284607,-2.20705604553223,1.13865280151367
0,0.702777785586986,-0.409722230330521,0.519444445988306,1.15575706958771,-2.16918253898621,2.36404848098755
0,0.736111142161226,-0.370833354847121,0.462500024646461,-0.939205288887024,-2.91046738624573,2.73759269714356
0,0.795833347269579,-0.548611126912784,0.559722261978817,-2.57571339607239,-3.6603045463562,1.74768543243408
0,0.795833347269579,-0.548611126912784,0.559722261978817,-2.86831784248352,-2.24554061889648,1.35612082481384
0,0.709722245003256,-0.534722256704101,0.562499997121468,-2.64382481575012,-0.743422985076904,1.314581990242
0,0.837500055143345,-0.443055586904762,0.29166668768514,-3.19451975822449,-1.19149267673492,0.490524798631668
0,0.770833341994863,-0.512500035195893,0.273611117514765,-3.46635484695435,-3.53080105781555,-1.0812314748764
0,0.680555564078778,-0.56666667277123,0.466666700296224,-2.49507904052734,-3.54546189308167,-1.37658488750458
0,0.680555564078778,-0.56666667277123,0.466666700296224,-1.15606248378754,-1.28984200954437,-0.903775155544281
0,0.854166660494678,-0.66527780198684,0.466666700296224,-0.598953366279602,-0.533590793609619,-0.483194410800934
0,0.884722281926269,-0.572222240304247,0.212499996211229,-0.256257981061935,-1.94071888923645,0.0833831056952477
0,0.926388941176177,-0.440277803138253,0.0986111170596459,0.292909890413284,-1.96606981754303,-0.560468852519989
0,1.04166667574312,-0.581944483487025,0.151388899219622,0.579405665397644,-0.803898692131042,-0.872926414012909
0,0.940277860008718,-0.788888936477167,0.18333333959868,1.15911674499512,0.682947337627411,0.0833831056952477
0,0.800000022919342,-0.800000022919342,0.0638888929140799,0.393091797828674,-0.756251156330109,0.323147714138031
0,0.940277860008718,-0.63888890482887,0.0513888902767219,0.0766635909676552,-0.332005262374878,-0.74159038066864
0,0.945833330294018,-0.541666667496514,-0.0208333341834404,-0.599869668483734,-0.255647093057633,-1.75012898445129
0,0.95000000594378,-0.50138890012986,-0.0416666683668809,-1.41109871864319,-0.0894917547702789,-2.14841318130493
0,1.0125000434425,-0.476388894855144,-0.0819444448505077,-1.49203836917877,0.39125919342041,-2.20980501174927
0,1.0361111082101,-0.468055592179478,-0.122222230451108,-1.03694379329681,-0.0378736443817616,-2.49446821212769
0,1.08750001064279,-0.47500000297189,-0.1194444466846,-1.04580128192902,-0.0171042270958424,-2.1725423336029
0,1.14027780495873,-0.486111138037923,-0.134722233088466,-1.09375417232513,0.442266434431076,-1.70492494106293
0,1.04305556762637,-0.476388894855144,-0.187500003092477,-0.64079761505127,0.102014496922493,-0.600785970687866
0,1.04305556762637,-0.476388894855144,-0.187500003092477,-0.176234617829323,-0.18020524084568,-0.478307485580444
0,0.973611167959101,-0.387500008822313,-0.150000007336368,0.0140499006956816,-0.0965167060494423,-0.526260435581207
0,0.973611167959101,-0.387500008822313,-0.150000007336368,0.102930791676045,0.386066824197769,-0.9056077003479
0,0.973611167959101,-0.387500008822313,-0.150000007336368,0.76694130897522,-0.455705463886261,-0.69913524389267
0,1.01111115155925,-0.315277801076602,-0.208333344873396,1.64628183841705,1.01159286499023,-1.20798599720001
0,0.838888947026599,-0.180555567988136,-0.0541666679652478,1.28190076351166,1.26479649543762,-2.15177273750305
0,0.838888947026599,-0.180555567988136,-0.0541666679652478,-0.472198843955994,0.39064833521843,-1.16217112541199
0,1.09861114570882,-0.415277797863537,-0.0430555572111439,0.0424551330506802,-0.00885754637420177,-1.13284957408905
0,1.09166668629255,-0.300000014672736,-0.027777779924251,-0.087659165263176,-0.18509216606617,-1.39002382755279
0,1.09166668629255,-0.300000014672736,-0.027777779924251,0.0103847095742822,-0.323758572340012,-1.54854345321655
0,0.993055557076942,-0.148611115453114,-0.0694444482911319,0.152105450630188,-0.0946841165423393,-1.26998889446259
0,0.993055557076942,-0.148611115453114,-0.0694444482911319,0.244956970214844,0.207999616861343,-1.06076753139496
0,0.986111194908388,-0.0736111117849297,-0.100000002864918,0.0775798857212067,0.768468499183655,-1.17958080768585
0,0.986111194908388,-0.0736111117849297,-0.100000002864918,0.0265726372599602,0.966083407402039,-0.642630219459534
0,1.14166669684199,-0.033333335301303,-0.12777778582816,-0.154854342341423,0.671035468578339,-0.594982743263245
0,1.14166669684199,-0.033333335301303,-0.12777778582816,-0.164933621883392,0.583681762218475,-0.350942075252533
0,1.04583335139288,-0.026388891079988,-0.00277777787846293,-0.179288953542709,0.394618958234787,-0.224187538027763
0,1.04027778385987,-0.030555557612777,0.0208333341834404,-0.196393176913261,0.000610865245107561,-0.22754730284214
0,1.07777786470773,-0.0388888906783549,0.0583333375370279,-0.0268780700862408,-0.218078896403313,-0.113315500319004
0,1.05000002704265,-0.0375000018340919,0.0388888906783549,0.150883719325066,-0.272445887327194,0.00305432616733015
0,1.05555559457566,-0.0416666683668809,-0.0458333348996699,0.226631000638008,0.705854773521423,-0.0977384373545647
0,0.965277816659576,-0.0402777795226179,0.0125000003581147,0.121867619454861,0.795957386493683,-0.43860125541687
0,1.15694450755778,-0.0236111118719664,0.030555557612777,0.0748309940099716,-0.013744467869401,-0.0488692186772823
0,1.09444447005906,-0.0388888906783549,0.0638888929140799,0.0558941699564457,-0.147829383611679,-0.0870482996106148
0,1.01527782720901,-0.0416666683668809,0.00416666691266287,-0.0409279726445675,0.897055625915527,-0.157908663153648
0,1.00000001649321,0.0138888899621255,-0.275000009398019,-0.378431022167206,3.06104564666748,0.0665843114256859
0,0.979166735492117,-0.00972222266958873,0.18333333959868,-0.188757359981537,1.56595301628113,0.0363464802503586
0,0.99583334084345,-0.0222222230277034,0.345833349572405,0.0348193198442459,0.188451930880547,0.0259617734700441
0,0.972222276075846,-0.0208333341834404,0.229166674498349,0.10048733651638,-0.420275300741196,0.0620028227567673
0,1.04305556762637,-0.0250000007162294,0.00972222266958873,-0.0131336031481624,0.281303435564041,0.109650313854218
0,0.929166724942685,-0.0250000007162294,0.118055554801345,-0.0406225398182869,-0.0571159012615681,0.349720358848572
0,0.916666697993398,0.029166668768514,0.0541666679652478,-0.0888808965682983,0.453567445278168,0.63896507024765
0,0.908333346693873,-0.00833333382532574,0.104166672436698,-0.192422553896904,0.605672895908356,0.824362635612488
0,1.1236111996074,-0.0986111170596459,0.105555564319952,-0.143553331494331,0.756251156330109,0.547335267066956
0,1.08194444310977,-0.125000002061652,0.13750000469901,-0.00244346098043024,1.16064393520355,0.238542884588242
0,1.07083340529146,-0.10972222781375,0.2194444556275,0.0974330082535744,0.943175911903381,0.128587126731873
0,0.98888888142718,-0.0888888921108138,0.243055569018962,0.0778853222727776,0.358272463083267,0.127365410327911
0,0.976388951725609,-0.0722222259796579,0.229166674498349,0.106290549039841,0.249233022332191,0.153938040137291
0,0.959722249126559,-0.0916666697993398,0.250000004123303,0.0861319974064827,0.11606439948082,0.149661988019943
0,1.08194444310977,-0.0888888921108138,0.247222220356795,0.0824668109416962,-0.173180297017098,0.0592539273202419
0,1.05416670269241,-0.0944444474878658,0.206944452990142,0.13744467496872,-0.281303435564041,0.0555887371301651
0,1.04166667574312,-0.0736111117849297,0.20972223675665,0.113620936870575,-0.389426589012146,0.0690277740359306
0,0.962500032893068,-0.100000002864918,0.281944444502361,0.0901026204228401,-1.02594816684723,0.029626963660121
0,0.991666665193688,-0.0694444482911319,0.156944454596674,0.183870434761047,-1.32557761669159,0.127670839428902
0,0.916666697993398,-0.0638888929140799,0.03194444645704,0.105068825185299,-0.912632703781128,0.258395999670029
0,0.834722271376837,-0.0513888902767219,0.0250000007162294,0.0668897479772568,-0.257174253463745,0.838107109069824
0,0.852777768611424,-0.0847222225390337,0.115277783190802,0.0684169083833694,0.228158175945282,1.42514860630035
0,0.890277849459286,-0.108333335930496,0.17361112072783,0.0125227374956012,0.142026171088219,1.12154853343964
0,1.07777786470773,-0.101388894748172,0.120833338567854,0.0678060427308083,0.130419731140137,0.849102675914764
0,1.19444449115793,-0.197222234119292,0.15555556271342,0.00641408516094089,-0.158824965357781,0.465784758329391
0,1.0361111082101,-0.226388890731841,0.148611115453114,0.0277943685650826,-0.415082931518555,0.16371189057827
0,1.02777785415829,-0.17361112072783,0.108333335930496,0.0442877300083637,-0.411112308502197,0.0601702257990837
0,1.01527782720901,-0.197222234119292,0.111111119697004,0.0629191175103188,-0.296880513429642,0.127976268529892
0,1.02916674604155,-0.19166667874224,0.0861111144222878,-0.00427605677396059,-0.147523954510689,-0.151189148426056
0,1.01944450285877,-0.204166669223633,0.0888888921108138,0.0171042270958424,-0.144469633698463,-0.25870144367218
0,1.01944450285877,-0.204166669223633,0.0888888921108138,-0.294437050819397,-0.0424551330506802,-0.280998021364212
0,1.03750000009336,-0.187500003092477,0.0930555616825939,-0.249233022332191,-0.0772744566202164,-0.276111096143722
0,1.11944452395763,-0.190277786858986,0.0777777813567098,-0.206472456455231,0.203112691640854,-0.389732033014297
0,1.11944452395763,-0.190277786858986,0.0777777813567098,-0.221133217215538,0.467311918735504,-0.0424551330506802
0,1.13611112930897,-0.177777784221628,0.0750000036681839,-0.226325571537018,0.189368233084679,-0.0525344125926495
0,1.06805562152495,-0.166666673467524,0.125000002061652,-0.21135938167572,-0.0412334054708481,0.0143553335219622
0,1.06805562152495,-0.166666673467524,0.125000002061652,-0.130419731140137,-0.0995710343122482,0.00824668072164059
0,1.0361111082101,-0.190277786858986,0.100000002864918,-0.0580321997404099,-0.076052725315094,-0.0284052342176437
0,1.03194452980806,-0.187500003092477,0.0944444474878658,-0.00671951752156019,-0.0167987942695618,-0.0299323964864016
0,1.02500007039179,-0.177777784221628,0.112499999424294,0.0974330082535744,-0.0207694191485643,-0.0290160998702049
0,1.01805561097552,-0.16527778158427,0.122222230451108,0.228769034147263,-0.100181899964809,-0.0332921557128429
0,1.04027778385987,-0.170833336961321,0.130555557438704,0.391870051622391,-0.16920967400074,-0.0739146918058395
0,1.09861114570882,-0.184722231481934,0.14722222356986,0.478612929582596,-0.457232624292374,-0.142637029290199
0,1.04166667574312,-0.172222228844576,0.126388893944906,0.41813725233078,-0.740674138069153,-0.0873537287116051
0,0.997222232726705,-0.156944454596674,0.0638888929140799,0.299934834241867,-0.739452362060547,-0.0546724386513233
0,1.02500007039179,-0.134722233088466,-0.163888889701015,-0.193033412098885,0.485027015209198,0.0583376325666905
0,1.02777785415829,-0.158333334323963,-0.108333335930496,0.302378296852112,1.56534218788147,-0.0351247526705265
0,1.00972225967599,-0.148611115453114,0.17361112072783,-0.430049121379852,1.66002631187439,0.0394008085131645
0,0.929166724942685,-0.133333341205212,0.358333352209763,-0.0769690200686455,-0.0558941699564457,-0.0595593601465225
0,1.00000001649321,-0.154166670830166,0.131944449321958,0.01588249579072,-0.0247400421649218,0.000610865245107561
0,1.03472221632685,-0.150000007336368,0.13750000469901,-0.0247400421649218,0.0949895456433296,0.00733038317412138
0,1.02222228662528,-0.143055560076062,0.136111112815755,-0.0152716310694814,0.0742201283574104,0.00580321997404099
0,1.01944450285877,-0.148611115453114,0.140277788465518,-0.00610865233466029,-0.0100792767480016,-0.0113010071218014
0,1.01944450285877,-0.148611115453114,0.140277788465518,-0.00183259579353034,0.05283984541893,-0.0250454749912024
0,1.02361117850853,-0.151388899219622,0.131944449321958,0.00733038317412138,0.0913243517279625,-0.0232128798961639
0,1.01944450285877,-0.154166670830166,0.133333341205212,0.0198531206697226,0.070249505341053,-0.0259617734700441
0,1.01944450285877,-0.154166670830166,0.133333341205212,-0.0543670058250427,0.104763388633728,-0.0824668109416962
0,1.00000001649321,-0.130555557438704,0.131944449321958,-0.0219911485910416,0.136833816766739,-0.0836885422468185
0,1.00000001649321,-0.130555557438704,0.131944449321958,-0.0412334054708481,0.04764748737216,-0.0183259565383196
0,1.00138890837647,-0.14583334384257,0.156944454596674,-0.0161879286170006,0.0647517144680023,0.219606056809425
0,0.877777822509998,-0.150000007336368,0.120833338567854,-0.011606439948082,-0.0161879286170006,-0.0772744566202164
0,1.0125000434425,-0.163888889701015,0.112499999424294,0.0125227374956012,0.112093769013882,-0.0326812900602817
0,1.00555558402623,-0.126388893944906,0.122222230451108,0.128892570734024,0.200669229030609,0.182343274354935
0,1.00555558402623,-0.138888896582264,0.126388893944906,-0.0705549344420433,0.183259576559067,0.0629191175103188
0,1.05277781080915,-0.17361112072783,0.12777778582816,-0.237321153283119,0.294131606817245,-0.457538068294525
0,1.05972227022542,-0.277777793164528,0.0958333393711199,-0.000916297896765172,0.518930017948151,-0.0800233483314514
0,0.990277773310434,-0.126388893944906,0.20138889761309,0.0482583530247212,0.128281697630882,-0.100181899964809
0,1.00277780025972,-0.152777778946911,0.176388892338373,0.0436768643558025,0.149051114916802,-0.0916297882795334
0,0.987499989543926,-0.120833338567854,0.190277786858986,0.0757472887635231,0.064446285367012,0.00580321997404099
0,0.997222232726705,-0.118055554801345,0.20972223675665,0.178372651338577,-0.235183119773865,-0.00855211354792118
0,0.990277773310434,-0.134722233088466,0.223611131277262,0.283746898174286,-0.409890592098236,0.00916297826915979
0,0.991666665193688,-0.140277788465518,0.212499996211229,0.311846703290939,-0.548251569271088,0.0229074470698834
0,1.00000001649321,-0.136111112815755,0.184722231481934,0.302378296852112,-0.65484756231308,0.0641408488154411
0,0.994444448960196,-0.130555557438704,0.177777784221628,0.319177091121674,-0.764192402362823,0.0833831056952477
0,0.998611124609959,-0.122222230451108,0.125000002061652,0.150272846221924,-0.499687761068344,0.130114302039146
0,1.02361117850853,-0.120833338567854,0.0763888894734557,0.0513126812875271,-0.351552963256836,0.106595985591412
0,1.02777785415829,-0.138888896582264,0.0819444448505077,-0.11087204515934,-0.0797179117798805,0.0543670058250427
0,1.06527783775844,-0.166666673467524,0.0763888894734557,-0.0717766657471657,0.176234617829323,0.0757472887635231
0,1.02361117850853,-0.152777778946911,0.113888891307548,-0.101403631269932,0.123394779860973,0.02382374368608
0,1.02083339474202,-0.138888896582264,0.133333341205212,-0.04764748737216,0.122478485107422,0.0134390350431204
0,1.03194452980806,-0.144444451959316,0.116666675074056,0.0415388382971287,0.228463605046272,0.0464257597923279
0,1.03472221632685,-0.14722222356986,0.113888891307548,0.0244346093386412,0.266642689704895,0.01191187184304
0,1.00694447590948,-0.158333334323963,0.16527778158427,0.0555887371301651,0.0888808965682983,-0.0293215326964855
0,1.00555558402623,-0.13750000469901,0.152777778946911,0.101709060370922,0.00794124789535999,-0.0510072484612465
0,1.00138890837647,-0.140277788465518,0.14722222356986,0.0467311926186085,-0.0995710343122482,-0.0140499006956816
0,0.986111194908388,-0.108333335930496,0.140277788465518,0.0335975885391235,-0.149051114916802,0.0442877300083637
0,1.0361111082101,-0.154166670830166,0.0944444474878658,0.00519235478714108,0.128587126731873,-0.0113010071218014
0,1.05833337834217,-0.170833336961321,0.0777777813567098,-0.00549778714776039,0.334754168987274,-0.0571159012615681
0,1.00277780025972,-0.101388894748172,0.0888888921108138,-0.0879645943641663,0.23823744058609,0.0204639863222837
0,0.994444448960196,-0.125000002061652,0.14722222356986,-0.0913243517279625,0.0986547395586967,0.0320704244077206
0,1.00833336779274,-0.14722222356986,0.140277788465518,-0.119424156844616,0.104152522981167,-0.0027488935738802
0,1.00416669214298,-0.140277788465518,0.12777778582816,-0.0794124826788902,0.11087204515934,-0.0226020142436027
0,0.990277773310434,-0.13750000469901,0.186111123365188,0.0311541277915239,-0.142942473292351,-0.0775798857212067
0,1.00138890837647,-0.126388893944906,0.134722233088466,0.0232128798961639,-0.0925460830330849,-0.0113010071218014
0,1.00972225967599,-0.140277788465518,0.134722233088466,-0.0128281703218818,-0.135612085461616,0.0045814891345799
0,1.00416669214298,-0.144444451959316,0.123611110178398,0.000305432622553781,-0.0983493030071259,0.0125227374956012
0,1.00555558402623,-0.143055560076062,0.125000002061652,-0.00397062394768,-0.0607810914516449,0.0180205255746841
0,1.01944450285877,-0.150000007336368,0.0916666697993398,-0.112093769013882,0.237321153283119,-0.0021380283869803
0,1.02500007039179,-0.154166670830166,0.0902777839940679,-0.124311074614525,0.253203630447388,-0.0253509078174829
0,1.00555558402623,-0.148611115453114,0.154166670830166,-0.0641408488154411,0.113926365971565,0.0122173046693206
0,1.01111115155925,-0.144444451959316,0.144444451959316,-0.0232128798961639,0.0723875313997269,0.0271835029125214
0,0.99583334084345,-0.144444451959316,0.156944454596674,-0.0149661982432008,-0.037568211555481,0.0192422550171614
0,1.01944450285877,-0.152777778946911,0.134722233088466,-0.0299323964864016,0.0045814891345799,0.0100792767480016
0,1.00694447590948,-0.12777778582816,0.118055554801345,-0.146913096308708,0.145385921001434,0.0253509078174829
0,1.01388893532575,-0.144444451959316,0.144444451959316,-0.0968221426010132,0.208915919065475,0.0384845100343227
0,1.01944450285877,-0.151388899219622,0.152777778946911,-0.0839939713478088,0.215940862894058,0.00763581553474069
0,1.02222228662528,-0.156944454596674,0.18333333959868,0.0323758572340012,0.0739146918058395,-0.0342084541916847
0,1.01527782720901,-0.13750000469901,0.197222234119292,0.0916297882795334,-0.112704634666443,-0.0241291765123606
0,1.01111115155925,-0.111111119697004,0.125000002061652,-0.0161879286170006,0.0189368221908808,0.0852157026529312
0,0.994444448960196,-0.162500009973726,0.156944454596674,-0.00122173049021512,-0.0250454749912024,-0.0106901414692402
0,1.01666671909226,-0.156944454596674,0.126388893944906,-0.0397062413394451,0.0033597587607801,-0.0161879286170006
0,1.01944450285877,-0.152777778946911,0.130555557438704,-0.0647517144680023,0.0803287774324417,-0.0226020142436027
0,1.02500007039179,-0.148611115453114,0.150000007336368,-0.0806342139840126,0.146607652306557,-0.00763581553474069
0,1.01111115155925,-0.144444451959316,0.151388899219622,-0.0781907513737679,0.164933621883392,0.0143553335219622
0,1.01527782720901,-0.14583334384257,0.163888889701015,-0.0891863256692886,0.141415297985077,-0.0109955742955208
0,0.977777843608863,-0.141666668192807,0.212499996211229,-0.0424551330506802,-0.0815505087375641,-0.00488692196086049
0,1.01944450285877,-0.138888896582264,0.0972222251763917,-0.313679307699203,0.161268427968025,0.00244346098043024
0,1.01527782720901,-0.140277788465518,0.10972222781375,-0.494495421648026,0.236099421977997,0.0510072484612465
0,1.00972225967599,-0.158333334323963,0.184722231481934,-0.192422553896904,0.11606439948082,0.00122173049021512
0,1.00972225967599,-0.166666673467524,0.184722231481934,-0.125838235020638,0.0772744566202164,-0.00702495034784079
0,1.00000001649321,-0.180555567988136,0.179166676104882,-0.140193566679955,-0.0271835029125214,-0.0552833043038845
0,0.99583334084345,-0.14722222356986,0.166666673467524,-0.239459171891212,-0.0763581544160843,-0.0507018156349659
0,0.99583334084345,-0.14722222356986,0.166666673467524,-0.0922406539320946,-0.0894917547702789,0.0766635909676552
0,1.02361117850853,-0.12777778582816,0.134722233088466,0.0152716310694814,0.0183259565383196,0.0794124826788902
0,1.00972225967599,-0.159722226207217,0.161111118090472,-0.128587126731873,-0.0222965814173222,0.0537561401724815
0,1.00555558402623,-0.158333334323963,0.148611115453114,-0.123089343309402,-0.0250454749912024,-0.0100792767480016
0,1.00833336779274,-0.150000007336368,0.190277786858986,0.0167987942695618,0.0253509078174829,-0.01588249579072
0,1.01666671909226,-0.133333341205212,0.136111112815755,0.296269655227661,-0.0366519130766392,0.0540615729987621
0,1.02916674604155,-0.162500009973726,0.148611115453114,0.311235845088959,0.0592539273202419,0.113010071218014
0,1.01527782720901,-0.175000000455119,0.188888894975731,0.370489776134491,0.0232128798961639,0.0665843114256859
0,1.00555558402623,-0.176388892338373,0.170833336961321,0.323453158140182,-0.0662788823246956,0.0265726372599602
0,1.0125000434425,-0.184722231481934,0.176388892338373,0.314290165901184,-0.0360410511493683,-0.0287106670439243
0,1.0125000434425,-0.184722231481934,0.176388892338373,0.17470745742321,-0.160657554864883,-0.0580321997404099
0,0.98888888142718,-0.158333334323963,0.154166670830166,0.107206851243973,-0.25411993265152,-0.0870482996106148
0,0.98888888142718,-0.158333334323963,0.154166670830166,-0.0363464802503586,0.0830776765942574,0.0332921557128429
0,1.04166667574312,-0.13750000469901,0.106944444047242,-0.0901026204228401,0.10598511993885,0.00671951752156019
0,0.998611124609959,-0.148611115453114,0.18333333959868,0.0290160998702049,-0.00183259579353034,0.0167987942695618
0,0.998611124609959,-0.148611115453114,0.18333333959868,0.0143553335219622,-0.00702495034784079,0.00946841109544039
0,1.00972225967599,-0.148611115453114,0.14722222356986,-0.00977384392172098,0.0323758572340012,-0.0021380283869803
0,1.00972225967599,-0.156944454596674,0.150000007336368,-0.00794124789535999,0.0345138870179653,-0.00427605677396059
0,1.00972225967599,-0.166666673467524,0.141666668192807,0.0271835029125214,0.0387899428606033,0.00366519158706069
0,1.00972225967599,-0.166666673467524,0.141666668192807,0.0326812900602817,0.0497855171561241,-0.00152716308366507
0,1.01805561097552,-0.166666673467524,0.138888896582264,0.0610865242779255,0.0308486949652433,0.0021380283869803
0,1.02777785415829,-0.170833336961321,0.138888896582264,0.0916297882795334,0.0659734457731247,-0.0021380283869803
0,1.03888889197661,-0.18333333959868,0.134722233088466,0.119424156844616,0.0977384373545647,0.00183259579353034
0,1.0361111082101,-0.200000005729836,0.130555557438704,0.172569438815117,0.0766635909676552,-0.00855211354792118
0,1.0305556379248,-0.20972223675665,0.13750000469901,0.226631000638008,0.0736092627048492,-0.0140499006956816
0,1.01944450285877,-0.202777789496344,0.130555557438704,0.288022965192795,0.0888808965682983,0.00427605677396059
0,1.00972225967599,-0.190277786858986,0.138888896582264,0.343611687421799,0.0626136884093285,0.01588249579072
0,1.00277780025972,-0.166666673467524,0.14583334384257,0.344222575426102,0.0546724386513233,0.0387899428606033
0,1.00138890837647,-0.154166670830166,0.140277788465518,0.332616120576859,0.0201585534960032,0.0638354197144508
0,1.00277780025972,-0.161111118090472,0.12916666555545,0.322231411933899,-0.0351247526705265,0.0897971913218498
0,1.00138890837647,-0.190277786858986,0.133333341205212,0.339335650205612,-0.0565050356090069,0.0919352173805237
0,1.00555558402623,-0.216666671860991,0.116666675074056,0.344833433628082,-0.0665843114256859,0.0687223374843597
0,0.994444448960196,-0.222222239394008,0.125000002061652,0.367740869522095,-0.122173048555851,0.0439822971820831
0,0.979166735492117,-0.198611113846581,0.115277783190802,0.401033043861389,-0.214719131588936,0.0861319974064827
0,0.993055557076942,-0.170833336961321,0.141666668192807,0.403476506471634,-0.237626582384109,0.114537231624126
0,0.973611167959101,-0.125000002061652,0.18333333959868,0.359188765287399,-0.294131606817245,0.158214092254639
0,0.94305554652751,-0.0916666697993398,0.233333350148112,0.344527989625931,-0.494495421648026,0.294437050819397
0,0.930555616825939,-0.0722222259796579,0.25555557165632,0.347276896238327,-0.605672895908356,0.360715925693512
0,0.963888924776322,-0.0444444460554069,0.25555557165632,0.307876080274582,-0.627664029598236,0.338113903999329
0,0.987499989543926,-0.0444444460554069,0.241666677135707,0.178678080439568,-0.600480556488037,0.267558991909027
0,1.01944450285877,-0.0416666683668809,0.216666671860991,0.00733038317412138,-0.468839079141617,0.177456349134445
0,1.02916674604155,-0.055555559848502,0.206944452990142,-0.11087204515934,-0.351552963256836,0.113315500319004
0,1.04861113515939,-0.0833333367337618,0.180555567988136,-0.23304508626461,-0.241902634501457,0.0531452745199203
0,1.04027778385987,-0.143055560076062,0.154166670830166,-0.383623361587524,-0.118813291192055,0.0339030213654041
0,1.02638896227504,-0.195833342236038,0.169444445078067,-0.397673279047012,-0.0109955742955208,0.0167987942695618
0,1.02638896227504,-0.195833342236038,0.169444445078067,-0.311235845088959,0.0241291765123606,-0.00122173049021512
0,1.03750000009336,-0.238888893369199,0.120833338567854,-0.212886542081833,0.0430659987032413,-0.02382374368608
0,1.05694448645892,-0.243055569018962,0.101388894748172,-0.155159771442413,0.143247902393341,-0.0540615729987621
0,1.08750001064279,-0.244444460902216,0.0763888894734557,-0.120035022497177,0.278859972953796,-0.104763388633728
0,1.08611111875954,-0.234722242031366,0.0777777813567098,-0.0855211317539215,0.343611687421799,-0.147523954510689
0,1.05000002704265,-0.212499996211229,0.0875000002275597,-0.0516181141138077,0.40164390206337,-0.177150920033455
0,1.05000002704265,-0.212499996211229,0.0875000002275597,-0.0394008085131645,0.371711492538452,-0.192727982997894
0,0.993055557076942,-0.17361112072783,0.0875000002275597,-0.0503963828086853,0.308792382478714,-0.210137650370598
0,0.980555627375371,-0.161111118090472,0.0513888902767219,-0.198531210422516,0.475558578968048,-0.170431405305862
0,1.00555558402623,-0.170833336961321,0.0388888906783549,-0.168293371796608,0.726318776607513,-0.240070044994354
0,0.99583334084345,-0.168055565350778,0.0875000002275597,-0.076052725315094,0.557719945907593,-0.229685336351395
0,0.979166735492117,-0.172222228844576,0.13750000469901,-0.0632245540618896,0.506101846694946,-0.226325571537018
0,0.99583334084345,-0.161111118090472,0.134722233088466,-0.0253509078174829,0.412334054708481,-0.133779495954514
0,0.973611167959101,-0.141666668192807,0.198611113846581,-0.0418442711234093,0.218384325504303,-0.0907134860754013
0,0.986111194908388,-0.154166670830166,0.187500003092477,-0.0516181141138077,0.207388743758202,-0.090408056974411
0,0.98888888142718,-0.144444451959316,0.213888888094483,-0.0113010071218014,0.0733038261532784,-0.0662788823246956
0,1.00277780025972,-0.130555557438704,0.204166669223633,-0.0882700309157372,0.228463605046272,-0.118202425539494
0,1.02500007039179,-0.12777778582816,0.187500003092477,-0.0561996027827263,0.187230199575424,-0.0604756586253643
0,1.01805561097552,-0.105555564319952,0.2194444556275,-0.110566608607769,0.0748309940099716,-0.00946841109544039
0,0.99583334084345,-0.0680555564078778,0.216666671860991,-0.106595985591412,0.0714712366461754,-0.0265726372599602
0,0.994444448960196,-0.0416666683668809,0.177777784221628,-0.0980438739061356,0.180816113948822,0.103541657328606
0,1.02500007039179,-0.10972222781375,0.177777784221628,0.0134390350431204,0.0149661982432008,0.0595593601465225
0,1.02222228662528,-0.206944452990142,0.181944447715425,-0.178678080439568,0.0546724386513233,0.0027488935738802
0,1.05416670269241,-0.19166667874224,0.0972222251763917,-0.29657506942749,0.499382346868515,-0.136833816766739
0,1.01111115155925,-0.184722231481934,0.170833336961321,-0.284357786178589,0.808174729347229,-0.135001212358475
0,0.99583334084345,-0.162500009973726,0.329166671285285,-0.184786736965179,0.667981147766113,-0.157908663153648
0,0.99583334084345,-0.150000007336368,0.281944444502361,0.126143679022789,0.187535628676414,-0.0678060427308083
0,0.965277816659576,-0.0986111170596459,0.25555557165632,0.112399205565453,0.112399205565453,0.0033597587607801
0,0.99583334084345,-0.136111112815755,0.231944458264858,0.096211276948452,0.215024560689926,-0.0219911485910416
0,0.986111194908388,-0.14722222356986,0.202777789496344,-0.109039448201656,0.357050746679306,-0.122173048555851
0,0.961111141009813,-0.115277783190802,0.213888888094483,-0.149356558918953,0.364075690507889,0.0259617734700441
0,0.933333400592447,-0.0944444474878658,0.293055555256465,0.0021380283869803,0.118202425539494,0.114842668175697
0,0.961111141009813,-0.140277788465518,0.301388906555989,0.0882700309157372,-0.0726929605007172,0.0510072484612465
0,0.976388951725609,-0.148611115453114,0.297222230906227,0.131030589342117,-0.201890960335732,0.00366519158706069
0,0.973611167959101,-0.161111118090472,0.290277795801886,0.142637029290199,-0.318260788917542,-0.0766635909676552
0,0.963888924776322,-0.125000002061652,0.318055560531181,0.254730820655823,-0.542448341846466,0.000916297896765172
0,0.947222222177272,-0.0875000002275597,0.306944449777077,0.05283984541893,-0.959363877773285,0.277943700551987
0,1.01388893532575,-0.197222234119292,0.284722228268869,0.479223787784576,-1.05649149417877,-0.0574213340878487
0,1.08055555122652,-0.154166670830166,0.0444444460554069,0.0824668109416962,0.078801617026329,-0.0232128798961639
0,1.02083339474202,-0.141666668192807,0.215277779977737,0.0161879286170006,0.0980438739061356,-0.0595593601465225
0,1.00000001649321,-0.126388893944906,0.2194444556275,0.0232128798961639,0.0919352173805237,-0.0616973899304867
0,0.99583334084345,-0.130555557438704,0.234722242031366,0.0308486949652433,0.0100792767480016,-0.0616973899304867
0,0.99583334084345,-0.130555557438704,0.234722242031366,0.00733038317412138,0.0384845100343227,0.0323758572340012
0,0.976388951725609,-0.112499999424294,0.212499996211229,-0.0134390350431204,0.013744467869401,0.102930791676045
0,0.98888888142718,-0.12777778582816,0.233333350148112,0.0247400421649218,-0.0665843114256859,0.096211276948452
0,1.0125000434425,-0.144444451959316,0.213888888094483,0.0268780700862408,-0.0537561401724815,-0.00702495034784079
0,1.0125000434425,-0.144444451959316,0.213888888094483,0.0262672062963247,-0.0406225398182869,-0.0671951770782471
0,0.983333411141879,-0.120833338567854,0.243055569018962,0.119118720293045,-0.273667633533478,-0.0287106670439243
0,1.00555558402623,-0.118055554801345,0.184722231481934,0.0757472887635231,-0.215635433793068,-0.0259617734700441
0,1.00555558402623,-0.130555557438704,0.172222228844576,-0.02382374368608,-0.013744467869401,-0.0494800843298435
0,0.99583334084345,-0.134722233088466,0.193055558469529,-0.0659734457731247,0.0452040284872055,-0.0470366254448891
0,0.998611124609959,-0.1194444466846,0.197222234119292,-0.0448985956609249,0.0293215326964855,-0.0329867228865623
0,0.998611124609959,-0.1194444466846,0.197222234119292,-0.0339030213654041,0.0290160998702049,-0.00671951752156019
0,1.01111115155925,-0.125000002061652,0.20138889761309,0.00549778714776039,0.000305432622553781,0.0363464802503586
0,1.02083339474202,-0.122222230451108,0.197222234119292,-0.0027488935738802,0.0546724386513233,0.0455094613134861
0,1.02083339474202,-0.122222230451108,0.197222234119292,0.0345138870179653,0.156686931848526,0.0222965814173222
0,0.997222232726705,-0.12777778582816,0.231944458264858,-0.119118720293045,0.371100634336472,-0.0207694191485643
0,0.997222232726705,-0.12777778582816,0.231944458264858,0.0305432621389627,0.170125976204872,-0.0659734457731247
0,1.00138890837647,-0.134722233088466,0.236111109602691,0.0580321997404099,-0.0452040284872055,-0.08460483700037
0,1.00277780025972,-0.1194444466846,0.227777782615095,0.0671951770782471,-0.242513507604599,-0.0503963828086853
0,1.00138890837647,-0.112499999424294,0.193055558469529,0.0723875313997269,-0.231517925858498,-0.0131336031481624
0,0.976388951725609,-0.108333335930496,0.233333350148112,-0.0326812900602817,-0.416304677724838,0.00519235478714108
0,0.98888888142718,-0.113888891307548,0.184722231481934,-0.0357356183230877,-0.497855186462402,0.0149661982432008
0,1.00138890837647,-0.140277788465518,0.152777778946911,-0.100181899964809,-0.158214092254639,-0.0479529201984406
0,0.973611167959101,-0.131944449321958,0.226388890731841,-0.0607810914516449,-0.295353353023529,-0.0681114718317986
0,0.962500032893068,-0.13750000469901,0.258333331110899,0.0864374339580536,-0.976468086242676,-0.0540615729987621
0,0.986111194908388,-0.134722233088466,0.188888894975731,0.160962998867035,-1.23914015293121,-0.0473420582711697
0,1.03750000009336,-0.141666668192807,0.0902777839940679,0.195171445608139,-1.10841500759125,-0.0384845100343227
0,1.0513889189259,-0.131944449321958,0.0541666679652478,0.116980694234371,-0.600480556488037,-0.0348193198442459
0,1.03888889197661,-0.130555557438704,0.130555557438704,0.173791155219078,-0.664010524749756,-0.0537561401724815
0,1.00972225967599,-0.113888891307548,0.12777778582816,0.175623759627342,-1.07787168025971,-0.0675006061792374
0,1.01666671909226,-0.106944444047242,0.0416666683668809,0.200058370828629,-1.18966007232666,-0.0406225398182869
0,1.01805561097552,-0.0958333393711199,-0.00555555575692586,0.0913243517279625,-0.952033460140228,-0.0302378293126821
0,1.03888889197661,-0.1194444466846,0.00694444498106275,0.0326812900602817,-0.832303881645203,-0.037568211555481
0,1.01527782720901,-0.120833338567854,0.055555559848502,-0.0219911485910416,-0.943786799907684,-0.0959058403968811
0,1.00972225967599,-0.118055554801345,0.0430555572111439,0.0809396430850029,-1.203404545784,-0.0852157026529312
0,1.01805561097552,-0.0875000002275597,-0.122222230451108,0.303600013256073,-0.413555771112442,0.0311541277915239
0,1.01805561097552,-0.0875000002275597,-0.122222230451108,0.245262399315834,-0.210443079471588,0.307876080274582
0,1.04861113515939,-0.106944444047242,-0.12916666555545,-0.070249505341053,0.0833831056952477,0.0943786799907684
0,1.0305556379248,-0.125000002061652,0.00277777787846293,-0.00763581553474069,-0.51923543214798,-0.0241291765123606
0,0.99583334084345,-0.116666675074056,0.0458333348996699,0.172263994812965,-0.699746131896973,-0.0311541277915239
0,1.01388893532575,-0.113888891307548,-0.00277777787846293,0.17409659922123,-0.383012503385544,0.013744467869401
0,1.07638897282447,-0.113888891307548,-0.190277786858986,0.011606439948082,0.236099421977997,0.0607810914516449
0,1.05000002704265,-0.118055554801345,-0.150000007336368,0.150883719325066,0.332310706377029,0.0977384373545647
0,1.05277781080915,-0.106944444047242,0.00972222266958873,0.0140499006956816,-0.22204951941967,0.0146607663482428
0,1.00972225967599,-0.140277788465518,-0.0638888929140799,0.0455094613134861,-0.145385921001434,0.00885754637420177
0,1.0361111082101,-0.130555557438704,-0.104166672436698,0.0131336031481624,0.134695783257484,0.0519235469400883
0,1.06527783775844,-0.138888896582264,-0.144444451959316,0.017409659922123,0.440433830022812,0.0412334054708481
0,0.962500032893068,-0.118055554801345,0.029166668768514,0.0974330082535744,-0.0742201283574104,0.0189368221908808
0,0.96666670854283,-0.0986111170596459,-0.0208333341834404,0.186008468270302,-0.0592539273202419,0.0815505087375641
0,1.0361111082101,-0.112499999424294,-0.12777778582816,0.0885754600167274,0.194866016507149,0.103847093880177
0,1.07222229717471,-0.154166670830166,-0.118055554801345,-0.0146607663482428,0.296269655227661,0.0421497002243996
0,1.02222228662528,-0.14722222356986,-0.0361111129898289,0.0705549344420433,0.187535628676414,-0.00916297826915979
0,1.01527782720901,-0.138888896582264,-0.0444444460554069,0.0882700309157372,0.149967417120934,-0.0366519130766392
0,1.04861113515939,-0.13750000469901,-0.0875000002275597,0.0974330082535744,0.369268029928207,0.00183259579353034
0,1.03472221632685,-0.13750000469901,-0.0722222259796579,0.0613919571042061,0.429132848978043,0.00366519158706069
0,1.00972225967599,-0.125000002061652,-0.0250000007162294,0.0849102661013603,0.264810085296631,0.0363464802503586
0,1.00972225967599,-0.125000002061652,-0.0250000007162294,0.106290549039841,0.289855569601059,0.0177150927484035
0,1.04861113515939,-0.14722222356986,-0.0444444460554069,0.0717766657471657,0.356745302677154,-0.0287106670439243
0,1.04166667574312,-0.13750000469901,-0.027777779924251,-0.00916297826915979,0.343611687421799,-0.029626963660121
0,1.00972225967599,-0.120833338567854,0.0152777788063885,-0.0244346093386412,0.183870434761047,-0.00427605677396059
0,1.00555558402623,-0.108333335930496,0.0222222230277034,-0.0189368221908808,0.0733038261532784,-0.00488692196086049
0,1.00833336779274,-0.108333335930496,0.0250000007162294,0.0164933614432812,-0.0485637858510017,-0.0143553335219622
0,1.03750000009336,-0.113888891307548,0.0250000007162294,0.01191187184304,-0.00641408516094089,-0.00152716308366507
0,1.0361111082101,-0.1194444466846,-0.0194444453391775,-0.00580321997404099,0.08460483700037,-0.0171042270958424
0,1.02638896227504,-0.118055554801345,-0.026388891079988,-0.0442877300083637,0.117896988987923,-0.0293215326964855
0,1.02222228662528,-0.120833338567854,-0.0180555564949145,-0.0742201283574104,0.102319926023483,-0.0314595587551594
0,1.0333333244436,-0.130555557438704,-0.0180555564949145,-0.087659165263176,0.144164204597473,-0.00183259579353034
0,1.03194452980806,-0.13750000469901,-0.0138888899621255,-0.0842994004487991,0.143858760595322,0.0219911485910416
0,1.02916674604155,-0.150000007336368,-0.00694444498106275,-0.0641408488154411,0.150272846221924,0.0103847095742822
0,1.02222228662528,-0.168055565350778,0.0152777788063885,-0.0342084541916847,0.164322748780251,-0.00580321997404099
0,1.00972225967599,-0.163888889701015,0.03194444645704,0.0736092627048492,0.0253509078174829,-0.017409659922123
0,1.00555558402623,-0.154166670830166,0.0208333341834404,0.114537231624126,-0.0641408488154411,-0.0180205255746841
0,1.01805561097552,-0.13750000469901,0.00972222266958873,0.104763388633728,-0.0565050356090069,0.0033597587607801
0,1.02083339474202,-0.123611110178398,0.00416666691266287,0.0861319974064827,-0.0287106670439243,0.0232128798961639
0,0.99583334084345,-0.111111119697004,0.00416666691266287,0.0565050356090069,0.0482583530247212,0.0849102661013603
0,1.02083339474202,-0.116666675074056,0.0194444453391775,0.0458148941397667,0.0152716310694814,0.0696386396884918
0,1.02083339474202,-0.116666675074056,0.0194444453391775,0.112093769013882,0.0320704244077206,0.0806342139840126
0,1.04166667574312,-0.154166670830166,0.0222222230277034,0.113620936870575,-0.0183259565383196,0.0143553335219622
0,1.03194452980806,-0.136111112815755,-0.00138888893923146,0.0864374339580536,0.03176499158144,0.0464257597923279
0,1.0333333244436,-0.131944449321958,-0.0138888899621255,0.021685715764761,0.078801617026329,-0.00580321997404099
0,1.00833336779274,-0.141666668192807,-0.0125000003581147,0.00794124789535999,0.0882700309157372,0.00305432616733015
0,1.02222228662528,-0.144444451959316,-0.0125000003581147,0.0109955742955208,0.128892570734024,0.0448985956609249
0,1.01388893532575,-0.134722233088466,0.00833333382532574,0.076052725315094,0.0671951770782471,0.0742201283574104
0,1.01527782720901,-0.138888896582264,0.0111111115138517,0.10567969083786,0.0549778714776039,0.0910189226269722
0,1.0125000434425,-0.13750000469901,0.00972222266958873,0.05283984541893,0.0678060427308083,0.0580321997404099
0,1.0125000434425,-0.13750000469901,0.00972222266958873,0.0201585534960032,0.0836885422468185,0.0470366254448891
0,1.01111115155925,-0.12777778582816,0.0152777788063885,0.0241291765123606,0.135612085461616,0.0827722400426865
0,1.0125000434425,-0.12916666555545,0.0361111129898289,-0.01191187184304,0.103541657328606,0.0488692186772823
0,1.04444445950963,-0.138888896582264,0.03194444645704,0.0959058403968811,-0.0445931628346443,0.11087204515934
0,1.0361111082101,-0.0972222251763917,-0.00972222266958873,0.0433714315295219,-0.0836885422468185,0.0305432621389627
0,1.0361111082101,-0.0972222251763917,-0.00972222266958873,-0.00733038317412138,-0.0974330082535744,-0.0342084541916847
0,1.06666672964169,-0.154166670830166,0.00972222266958873,-0.0537561401724815,-0.130114302039146,-0.12156218290329
0,1.02916674604155,-0.134722233088466,-0.0180555564949145,0.0167987942695618,-0.0754418596625328,-0.0849102661013603
0,1.02916674604155,-0.134722233088466,-0.0180555564949145,-0.194560587406159,0.273362189531326,-0.0757472887635231
0,0.994444448960196,-0.12916666555545,0.055555559848502,0.00855211354792118,0.090408056974411,0.00885754637420177
0,0.991666665193688,-0.118055554801345,0.0388888906783549,0.0323758572340012,0.0516181141138077,0.0647517144680023
0,1.01805561097552,-0.13750000469901,0.0236111118719664,0.0128281703218818,-0.000916297896765172,0.0467311926186085
0,1.01666671909226,-0.144444451959316,0.0388888906783549,0.0659734457731247,-0.0357356183230877,0.0250454749912024
0,1.02222228662528,-0.152777778946911,0.0208333341834404,0.0250454749912024,-0.027488935738802,-0.0519235469400883
0,1.01944450285877,-0.138888896582264,0.029166668768514,0.0565050356090069,-0.01588249579072,-0.0277943685650826
0,1.01388893532575,-0.120833338567854,0.0486111125881959,0.0775798857212067,-0.0534507073462009,0.0507018156349659
0,1.01805561097552,-0.123611110178398,0.0138888899621255,0.0348193198442459,-0.0467311926186085,0.0678060427308083
0,1.02361117850853,-0.125000002061652,0.033333335301303,0.0210748501121998,-0.0244346093386412,0.037568211555481
0,1.02222228662528,-0.123611110178398,0.03194444645704,-0.00610865233466029,-0.0329867228865623,0.0290160998702049
0,1.02500007039179,-0.133333341205212,0.0250000007162294,-0.0271835029125214,-0.0568104684352875,0.0244346093386412
0,1.02361117850853,-0.150000007336368,0.0166666676506515,-0.0342084541916847,-0.113315500319004,0.0247400421649218
0,1.01944450285877,-0.14583334384257,0.0236111118719664,-0.0280998013913631,-0.0861319974064827,0.0235183127224445
0,1.03194452980806,-0.144444451959316,-0.0194444453391775,-0.0616973899304867,0.0403171069920063,0.0479529201984406
0,1.04166667574312,-0.14583334384257,-0.0250000007162294,-0.0467311926186085,0.404087364673615,0.0470366254448891
0,1.03750000009336,-0.14722222356986,-0.0250000007162294,-0.0482583530247212,0.314901024103165,0.0485637858510017
0,1.00694447590948,-0.141666668192807,0.0652777787193518,-0.0235183127224445,-0.0201585534960032,0.0284052342176437
0,1.00138890837647,-0.14722222356986,0.0666666706026059,-0.00519235478714108,-0.0733038261532784,0.0604756586253643
0,1.02222228662528,-0.150000007336368,0.0180555564949145,-0.00641408516094089,0.0507018156349659,0.0882700309157372
0,1.0361111082101,-0.154166670830166,-0.00694444498106275,-0.00733038317412138,0.293520748615265,0.0833831056952477
0,1.04166667574312,-0.152777778946911,-0.00694444498106275,-0.00244346098043024,0.581849157810211,0.131946891546249
0,1.03888889197661,-0.154166670830166,-0.0111111115138517,-0.0519235469400883,0.87262099981308,0.145385921001434
0,1.01111115155925,-0.156944454596674,0.0708333340964038,-0.017409659922123,0.690277755260468,0.112399205565453
0,0.986111194908388,-0.15555556271342,0.13750000469901,0.0412334054708481,0.384234249591827,0.0870482996106148
0,1.0361111082101,-0.120833338567854,0.0194444453391775,-0.0213802829384804,0.958142161369324,0.159435823559761
0,0.987499989543926,-0.144444451959316,0.158333334323963,0.00305432616733015,0.303294599056244,0.182648703455925
0,0.968055600426084,-0.154166670830166,0.175000000455119,0.0226020142436027,-0.0442877300083637,0.199752941727638
0,1.0125000434425,-0.17361112072783,0.0722222259796579,-0.146913096308708,0.189062789082527,0.15851953625679
0,1.04583335139288,-0.195833342236038,0.055555559848502,-0.315817326307297,0.375376701354981,-0.0888808965682983
0,1.00277780025972,-0.172222228844576,0.0666666706026059,-0.427300244569778,0.516486585140228,-0.0540615729987621
0,1.01805561097552,-0.190277786858986,0.105555564319952,-0.408974289894104,0.52870386838913,-0.123089343309402
0,1.01944450285877,-0.197222234119292,0.12916666555545,-0.410196006298065,0.499993205070496,-0.197920337319374
0,1.00972225967599,-0.197222234119292,0.14722222356986,-0.313068449497223,0.434325188398361,-0.224492982029915
0,0.99583334084345,-0.181944447715425,0.20972223675665,-0.118202425539494,0.218995183706284,-0.212581098079681
0,0.993055557076942,-0.187500003092477,0.224999998848587,0.0235183127224445,-0.17989981174469,-0.305127203464508
0,0.958333357243305,-0.0958333393711199,0.156944454596674,0.0873537287116051,-0.108428582549095,-0.021685715764761
0,0.998611124609959,-0.120833338567854,0.150000007336368,0.0436768643558025,-0.109955742955208,0.0751364231109619
0,1.01527782720901,-0.140277788465518,0.15555556271342,0.05283984541893,-0.151800006628036,-0.00885754637420177
0,1.02361117850853,-0.131944449321958,0.12916666555545,-0.0293215326964855,-0.0565050356090069,0.0641408488154411
0,1.01527782720901,-0.144444451959316,0.15555556271342,-0.0167987942695618,-0.235488548874855,0.0128281703218818
0,0.997222232726705,-0.140277788465518,0.168055565350778,0.0122173046693206,-0.389732033014297,-0.00641408516094089
0,1.00000001649321,-0.148611115453114,0.140277788465518,0.0485637858510017,-0.452956587076187,0.00580321997404099
0,1.0333333244436,-0.169444445078067,0.0513888902767219,-0.0271835029125214,0.0839939713478088,-0.00855211354792118
0,1.02500007039179,-0.177777784221628,0.0791666671619817,-0.0775798857212067,0.111788339912891,-0.0171042270958424
0,0.998611124609959,-0.156944454596674,0.122222230451108,-0.0519235469400883,0.0916297882795334,-0.00366519158706069
0,1.00833336779274,-0.16527778158427,0.120833338567854,-0.0552833043038845,0.131641462445259,-0.0021380283869803
0,1.02916674604155,-0.18333333959868,0.105555564319952,-0.0448985956609249,0.218078896403313,-0.017409659922123
0,1.0361111082101,-0.187500003092477,0.0916666697993398,-0.0378736443817616,0.361937671899795,-0.0403171069920063
0,0.994444448960196,-0.166666673467524,0.150000007336368,0.0235183127224445,0.231517925858498,-0.00946841109544039
0,0.986111194908388,-0.172222228844576,0.172222228844576,0.0916297882795334,-0.114537231624126,0.00763581553474069
0,1.01388893532575,-0.166666673467524,0.138888896582264,0.0815505087375641,0.0262672062963247,0.011606439948082
0,1.03194452980806,-0.166666673467524,0.101388894748172,-0.00122173049021512,0.147218525409698,-0.019547687843442
0,1.00416669214298,-0.144444451959316,0.108333335930496,-0.101098194718361,0.190895393490791,-0.0229074470698834
0,0.99583334084345,-0.161111118090472,0.175000000455119,-0.126143679022789,0.0949895456433296,-0.00610865233466029
0,0.993055557076942,-0.151388899219622,0.17361112072783,-0.0922406539320946,-0.0262672062963247,0.0335975885391235
0,0.991666665193688,-0.14722222356986,0.18333333959868,0.0326812900602817,-0.146607652306557,0.0424551330506802
0,1.00277780025972,-0.14583334384257,0.141666668192807,0.00397062394768,-0.27000242471695,0.0384845100343227
0,1.08611111875954,-0.120833338567854,0.134722233088466,-0.0280998013913631,-0.184786736965179,0.0335975885391235
0,1.02500007039179,-0.166666673467524,0.120833338567854,-0.0705549344420433,-0.22174409031868,0.0491746515035629
0,1.01111115155925,-0.180555567988136,0.0986111170596459,-0.000305432622553781,-0.0864374339580536,0.0381790772080422
0,1.01111115155925,-0.180555567988136,0.0986111170596459,0.0543670058250427,-0.114842668175697,-0.0394008085131645
0,0.998611124609959,-0.159722226207217,0.134722233088466,0.00183259579353034,-0.138971850275993,-0.0583376325666905
0,1.02361117850853,-0.186111123365188,0.125000002061652,0.117286130785942,-0.0742201283574104,-0.0226020142436027
0,1.02361117850853,-0.186111123365188,0.125000002061652,0.249233022332191,0.0369573459029198,-0.0247400421649218
0,1.05000002704265,-0.204166669223633,0.111111119697004,0.225409269332886,0.282830595970154,-0.0470366254448891
0,1.01805561097552,-0.134722233088466,0.115277783190802,0.0907134860754013,0.40164390206337,-0.0268780700862408
0,1.01805561097552,-0.134722233088466,0.115277783190802,-0.0488692186772823,0.081855945289135,0.0113010071218014
0,0.95000000594378,-0.133333341205212,0.176388892338373,0.0583376325666905,-0.155159771442413,0.0106901414692402
0,0.991666665193688,-0.156944454596674,0.166666673467524,0.0690277740359306,-0.0659734457731247,-0.015577063895762
0,1.01388893532575,-0.170833336961321,0.143055560076062,0.0986547395586967,-0.0342084541916847,-0.0305432621389627
0,1.00972225967599,-0.170833336961321,0.162500009973726,0.122783914208412,-0.157908663153648,-0.0433714315295219
0,1.00000001649321,-0.154166670830166,0.161111118090472,0.11117747426033,-0.186619326472282,-0.0262672062963247
0,1.00972225967599,-0.134722233088466,0.125000002061652,0.0424551330506802,-0.122173048555851,0.0027488935738802
0,1.02500007039179,-0.150000007336368,0.116666675074056,0.0742201283574104,0.0839939713478088,0.013744467869401
0,1.01666671909226,-0.162500009973726,0.131944449321958,0.0623082555830479,-0.0992656052112579,-0.0122173046693206
0,1.00972225967599,-0.159722226207217,0.151388899219622,0.124921940267086,-0.133779495954514,-0.0021380283869803
0,0.986111194908388,-0.143055560076062,0.144444451959316,-0.254425376653671,-0.302378296852112,0.109650313854218
0,1.00000001649321,-0.14722222356986,0.1194444466846,0.021685715764761,-0.0427605658769607,0.0284052342176437
0,1.03194452980806,-0.176388892338373,0.102777780553444,-0.0213802829384804,0.000916297896765172,-0.0415388382971287
0,1.03472221632685,-0.168055565350778,0.120833338567854,-0.0372627787292004,0.0537561401724815,-0.0430659987032413
0,1.00972225967599,-0.166666673467524,0.150000007336368,0.0522289797663689,0.0583376325666905,-0.00366519158706069
0,1.00416669214298,-0.156944454596674,0.14583334384257,0.0821613743901253,0.0314595587551594,0.00610865233466029
0,0.998611124609959,-0.156944454596674,0.144444451959316,0.0708603709936142,0.0045814891345799,0.0268780700862408
0,1.0125000434425,-0.148611115453114,0.116666675074056,0.0620028227567673,0.131641462445259,0.0516181141138077
0,1.01527782720901,-0.156944454596674,0.122222230451108,0.0879645943641663,0.0839939713478088,0.0491746515035629
0,1.00000001649321,-0.150000007336368,0.158333334323963,0.098960168659687,-0.0778853222727776,0.0412334054708481
0,0.99583334084345,-0.13750000469901,0.162500009973726,0.0836885422468185,-0.167377084493637,0.0574213340878487
0,1.01944450285877,-0.123611110178398,0.126388893944906,-0.141720741987228,-0.147829383611679,0.0161879286170006
0,1.02777785415829,-0.133333341205212,0.111111119697004,-0.249843880534172,-0.171653136610985,-0.0345138870179653
5,0.973611167959101,-0.130555557438704,0.0986111170596459,-0.376598417758942,-0.00794124789535999,-0.000610865245107561
5,0.979166735492117,-0.108333335930496,0.0986111170596459,-0.617279350757599,0.0510072484612465,0.00824668072164059
5,1.01388893532575,-0.0888888921108138,0.122222230451108,-0.649349749088287,0.00397062394768,0.0513126812875271
5,1.00833336779274,-0.141666668192807,0.154166670830166,-0.485332429409027,-0.122173048555851,0.0113010071218014
5,0.990277773310434,-0.177777784221628,0.213888888094483,-0.0284052342176437,-0.251065611839294,0.00702495034784079
5,1.01527782720901,-0.230555566381603,0.20972223675665,0.416610091924667,-0.294742494821549,-0.00794124789535999
5,1.02638896227504,-0.226388890731841,0.144444451959316,0.569937288761139,-0.200058370828629,-0.0198531206697226
5,1.0125000434425,-0.170833336961321,0.055555559848502,0.324674874544144,-0.120340451598167,-0.0485637858510017
5,1.00972225967599,-0.111111119697004,0.0361111129898289,0.120951317250729,-0.00183259579353034,-0.01588249579072
5,1.02361117850853,-0.150000007336368,0.0597222233422998,0.03176499158144,0.0406225398182869,-0.0134390350431204
5,1.02916674604155,-0.17361112072783,0.0916666697993398,-0.0247400421649218,-0.0226020142436027,-0.0027488935738802
5,1.02500007039179,-0.179166676104882,0.111111119697004,0.0592539273202419,-0.0525344125926495,0.0219911485910416
5,1.00833336779274,-0.170833336961321,0.130555557438704,0.0827722400426865,-0.0809396430850029,0.0342084541916847
5,1.00833336779274,-0.162500009973726,0.122222230451108,0.102930791676045,-0.0901026204228401,0.0439822971820831
5,1.00972225967599,-0.166666673467524,0.118055554801345,0.108123145997524,-0.076052725315094,0.0256563406437635
5,0.993055557076942,-0.168055565350778,0.126388893944906,0.117896988987923,-0.0885754600167274,0.0268780700862408
5,0.993055557076942,-0.162500009973726,0.120833338567854,0.144469633698463,-0.149051114916802,0.0293215326964855
5,1.00555558402623,-0.161111118090472,0.0916666697993398,0.140804439783096,-0.136222943663597,0.0436768643558025
5,1.04861113515939,-0.187500003092477,0.0472222237439329,0.136222943663597,-0.076052725315094,0.0415388382971287
5,1.0513889189259,-0.197222234119292,0.0500000014324589,0.151189148426056,-0.0244346093386412,0.0213802829384804
5,1.04722224327614,-0.204166669223633,0.0500000014324589,0.202196389436722,0.0445931628346443,0.00488692196086049
5,1.04166667574312,-0.211111128639904,0.0569444456537738,0.237626582384109,0.0833831056952477,-0.0235183127224445
5,1.02777785415829,-0.197222234119292,0.0694444482911319,0.256868839263916,0.0494800843298435,-0.0348193198442459
5,1.01944450285877,-0.176388892338373,0.0819444448505077,0.24862214922905,-0.0164933614432812,-0.0430659987032413
5,1.02361117850853,-0.166666673467524,0.0694444482911319,0.217162594199181,-0.0326812900602817,-0.0345138870179653
5,1.0361111082101,-0.166666673467524,0.0513888902767219,0.189979091286659,0.0409279726445675,-0.0433714315295219
5,1.02777785415829,-0.175000000455119,0.0652777787193518,0.18020524084568,0.0974330082535744,-0.0598647929728031
5,1.01388893532575,-0.161111118090472,0.0847222225390337,0.203418120741844,0.133168622851372,-0.0580321997404099
5,1.00000001649321,-0.151388899219622,0.122222230451108,0.223576679825783,0.119424156844616,-0.0409279726445675
5,0.991666665193688,-0.134722233088466,0.14722222356986,0.222965821623802,0.0656680166721344,-0.0430659987032413
5,0.98888888142718,-0.122222230451108,0.143055560076062,0.199142068624496,0.021685715764761,-0.0473420582711697
5,0.997222232726705,-0.111111119697004,0.14583334384257,0.162795588374138,-0.0131336031481624,-0.0381790772080422
5,0.998611124609959,-0.104166672436698,0.12777778582816,0.117591559886932,-0.0143553335219622,-0.0351247526705265
5,1.00694447590948,-0.100000002864918,0.126388893944906,0.0268780700862408,-0.0186313893646002,-0.0329867228865623
5,1.0125000434425,-0.0986111170596459,0.130555557438704,-0.00641408516094089,-0.0122173046693206,-0.0467311926186085
5,1.02222228662528,-0.0902777839940679,0.126388893944906,-0.0647517144680023,-0.00519235478714108,-0.0510072484612465
5,1.01388893532575,-0.0861111144222878,0.134722233088466,-0.0891863256692886,0.00916297826915979,-0.0335975885391235
5,1.01111115155925,-0.0875000002275597,0.13750000469901,-0.127670839428902,-0.00885754637420177,-0.0491746515035629
5,1.02083339474202,-0.100000002864918,0.118055554801345,-0.157297804951668,-0.0232128798961639,-0.0662788823246956
5,1.02500007039179,-0.112499999424294,0.112499999424294,-0.165544480085373,0.000610865245107561,-0.070249505341053
5,1.03472221632685,-0.12777778582816,0.104166672436698,-0.151189148426056,0.029626963660121,-0.058643065392971
5,1.04583335139288,-0.143055560076062,0.101388894748172,-0.107817716896534,0.110261179506779,-0.0607810914516449
5,1.04305556762637,-0.151388899219622,0.126388893944906,-0.0494800843298435,0.0821613743901253,-0.0574213340878487
5,1.02222228662528,-0.156944454596674,0.113888891307548,0.0134390350431204,0.0467311926186085,-0.0354301854968071
5,1.00833336779274,-0.166666673467524,0.102777780553444,0.0647517144680023,0.0354301854968071,-0.0299323964864016
5,1.00000001649321,-0.180555567988136,0.112499999424294,0.104457959532738,0.0290160998702049,-0.0415388382971287
5,1.00416669214298,-0.17361112072783,0.130555557438704,0.17440202832222,-0.00183259579353034,-0.0397062413394451
5,1.00972225967599,-0.15555556271342,0.118055554801345,0.239459171891212,-0.0406225398182869,-0.0109955742955208
5,1.01944450285877,-0.144444451959316,0.102777780553444,0.274278491735458,-0.0705549344420433,0.0363464802503586
5,1.01944450285877,-0.144444451959316,0.102777780553444,0.29046642780304,-0.0345138870179653,0.0629191175103188
5,1.02222228662528,-0.126388893944906,0.104166672436698,0.278554558753967,0.0045814891345799,0.0607810914516449
5,1.02361117850853,-0.113888891307548,0.102777780553444,0.224187538027763,0.0357356183230877,0.04764748737216
5,1.01527782720901,-0.0819444448505077,0.101388894748172,0.154548913240433,0.0161879286170006,0.0464257597923279
5,1.01666671909226,-0.0722222259796579,0.101388894748172,0.0763581544160843,-0.00519235478714108,0.0467311926186085
5,1.02083339474202,-0.0708333340964038,0.104166672436698,0.00610865233466029,-0.00763581553474069,0.0464257597923279
5,1.02777785415829,-0.0986111170596459,0.0944444474878658,-0.0946841165423393,-0.0244346093386412,0.0439822971820831
5,1.02777785415829,-0.0986111170596459,0.0944444474878658,-0.126143679022789,-0.00183259579353034,0.0161879286170006
5,1.00277780025972,-0.158333334323963,0.125000002061652,-0.0690277740359306,-0.0510072484612465,0.00152716308366507
5,1.00555558402623,-0.16527778158427,0.118055554801345,0.0351247526705265,-0.119424156844616,0.0244346093386412
5,1.00555558402623,-0.16527778158427,0.118055554801345,0.098960168659687,-0.138360977172852,0.064446285367012
5,1.02638896227504,-0.166666673467524,0.101388894748172,0.118202425539494,-0.0910189226269722,0.0693332031369209
5,1.03194452980806,-0.15555556271342,0.0805555590452358,0.139888137578964,0.01588249579072,0.058643065392971
5,1.03194452980806,-0.15555556271342,0.0805555590452358,0.13744467496872,0.0439822971820831,0.0583376325666905
5,1.0125000434425,-0.126388893944906,0.12777778582816,0.129808858036995,0.0229074470698834,0.0360410511493683
5,1.01666671909226,-0.120833338567854,0.12916666555545,0.117286130785942,0.0033597587607801,0.0186313893646002
5,1.01666671909226,-0.120833338567854,0.12916666555545,0.106901414692402,0.00152716308366507,0.0265726372599602
5,1.0125000434425,-0.112499999424294,0.122222230451108,0.0635299831628799,0.0192422550171614,0.0204639863222837
5,1.00694447590948,-0.111111119697004,0.125000002061652,0.03176499158144,0.00488692196086049,0.0201585534960032
5,1.00555558402623,-0.116666675074056,0.133333341205212,0.00824668072164059,-0.0262672062963247,0.015577063895762
5,1.0125000434425,-0.126388893944906,0.1194444466846,-0.01191187184304,0.00305432616733015,0.0027488935738802
5,1.01944450285877,-0.150000007336368,0.10972222781375,-0.00580321997404099,0.0363464802503586,0.00366519158706069
5,1.02500007039179,-0.151388899219622,0.104166672436698,0.000305432622553781,0.0406225398182869,-0.00702495034784079
5,1.01666671909226,-0.156944454596674,0.105555564319952,-0.0128281703218818,0.0409279726445675,-0.0189368221908808
5,1.02083339474202,-0.154166670830166,0.101388894748172,-0.00610865233466029,0.027488935738802,-0.029626963660121
5,1.03472221632685,-0.143055560076062,0.111111119697004,-0.0033597587607801,0.0433714315295219,-0.0210748501121998
5,1.0333333244436,-0.122222230451108,0.101388894748172,-0.0277943685650826,0.0397062413394451,-0.013744467869401
5,1.02638896227504,-0.111111119697004,0.0833333367337618,-0.0916297882795334,0.0412334054708481,-0.0277943685650826
5,1.0305556379248,-0.111111119697004,0.0722222259796579,-0.146302223205566,0.0409279726445675,-0.0458148941397667
5,1.04305556762637,-0.125000002061652,0.0513888902767219,-0.168598800897598,0.064446285367012,-0.0726929605007172
5,1.04305556762637,-0.134722233088466,0.0486111125881959,-0.137750118970871,0.133474051952362,-0.0803287774324417
5,1.02777785415829,-0.166666673467524,0.055555559848502,-0.0794124826788902,0.161573857069016,-0.0726929605007172
5,1.00555558402623,-0.176388892338373,0.0708333340964038,-0.00366519158706069,0.135306656360626,-0.0577267669141293
5,0.993055557076942,-0.18333333959868,0.0875000002275597,0.0959058403968811,-0.00519235478714108,-0.00549778714776039
5,1.00000001649321,-0.187500003092477,0.0763888894734557,0.147218525409698,-0.10598511993885,0.0311541277915239
5,1.01805561097552,-0.206944452990142,0.03194444645704,0.204334422945976,-0.0739146918058395,0.0430659987032413
5,1.01805561097552,-0.223611131277262,0.0166666676506515,0.274278491735458,-0.0348193198442459,0.0323758572340012
5,1.01111115155925,-0.229166674498349,0.00694444498106275,0.334143280982971,0.00641408516094089,0.0620028227567673
5,1.02222228662528,-0.204166669223633,0.0194444453391775,0.339030206203461,-0.00885754637420177,0.119118720293045
5,1.01388893532575,-0.156944454596674,0.0597222233422998,0.318260788917542,-0.126449108123779,0.203418120741844
5,0.975000059842355,-0.113888891307548,0.116666675074056,0.288328409194946,-0.305738061666489,0.32253685593605
5,0.923611157409668,-0.0805555590452358,0.14722222356986,0.239764615893364,-0.556498229503632,0.500909507274628
5,0.908333346693873,-0.0652777787193518,0.170833336961321,0.228158175945282,-0.78251838684082,0.609948933124542
5,0.919444481759906,-0.0791666671619817,0.162500009973726,0.191200822591782,-0.916297852993011,0.667064845561981
5,0.969444492309338,-0.113888891307548,0.14722222356986,0.157603234052658,-0.957531273365021,0.662788808345795
5,1.02222228662528,-0.161111118090472,0.113888891307548,0.140193566679955,-0.889725208282471,0.638659596443176
5,1.0513889189259,-0.195833342236038,0.0875000002275597,0.160046696662903,-0.781602084636688,0.603229403495789
5,1.06527783775844,-0.223611131277262,0.0722222259796579,0.186008468270302,-0.663094222545624,0.563828647136688
5,1.06527783775844,-0.250000004123303,0.0708333340964038,0.193949714303017,-0.527482151985168,0.489913940429688
5,1.06805562152495,-0.262500006760661,0.0763888894734557,0.230601623654366,-0.434630632400513,0.45509460568428
5,1.07500008094122,-0.269444466176932,0.0777777813567098,0.213191971182823,-0.365908294916153,0.397978693246841
5,1.04861113515939,-0.248611112240049,0.0486111125881959,0.11606439948082,-0.200974673032761,0.342389971017838
5,0.997222232726705,-0.223611131277262,0.0833333367337618,0.0998764708638191,-0.191200822591782,0.33841934800148
5,0.987499989543926,-0.243055569018962,0.0902777839940679,0.0494800843298435,-0.207083314657211,0.254425376653671
5,1.00833336779274,-0.256944463539574,0.0847222225390337,0.0394008085131645,-0.147829383611679,0.199447497725487
5,1.02222228662528,-0.262500006760661,0.0875000002275597,0.0549778714776039,-0.0879645943641663,0.110261179506779
5,1.02083339474202,-0.265277790527169,0.0875000002275597,0.0488692186772823,-0.0800233483314514,0.0461203269660473
5,1.0361111082101,-0.252777787889811,0.0763888894734557,-0.000916297896765172,-0.0711658000946045,-0.0164933614432812
5,1.04861113515939,-0.248611112240049,0.0694444482911319,-0.05283984541893,-0.000610865245107561,-0.0778853222727776
5,1.04861113515939,-0.241666677135707,0.0597222233422998,-0.137139245867729,0.0757472887635231,-0.116980694234371
5,1.02222228662528,-0.244444460902216,0.0416666683668809,-0.213191971182823,0.0852157026529312,-0.122478485107422
5,1.0125000434425,-0.251388896006557,0.033333335301303,-0.255952537059784,0.0540615729987621,-0.132863193750381
5,0.993055557076942,-0.283333336385615,0.0152777788063885,-0.213497400283814,0.0665843114256859,-0.128892570734024
5,0.983333411141879,-0.318055560531181,0.0125000003581147,-0.172569438815117,0.131946891546249,-0.166766211390495
5,0.959722249126559,-0.308333341660331,0.00416666691266287,-0.189062789082527,0.152716308832169,-0.217773467302322
5,0.938888968125464,-0.281944444502361,0.0222222230277034,-0.198225766420364,0.0390953756868839,-0.251981914043427
5,0.95000000594378,-0.281944444502361,0.03194444645704,-0.157908663153648,-0.0510072484612465,-0.253509074449539
5,0.998611124609959,-0.29166668768514,0.026388891079988,-0.0519235469400883,-0.109955742955208,-0.252287358045578
5,1.03194452980806,-0.283333336385615,0.026388891079988,0.0427605658769607,-0.0943786799907684,-0.22174409031868
5,1.05555559457566,-0.263888898643915,-0.0125000003581147,0.114231802523136,0.0125227374956012,-0.209832206368446
5,1.05833337834217,-0.215277779977737,-0.0236111118719664,0.0766635909676552,0.0800233483314514,-0.193338856101036
5,1.0361111082101,-0.170833336961321,-0.0416666683668809,-0.00702495034784079,0.0293215326964855,-0.158824965357781
5,1.02222228662528,-0.154166670830166,-0.0666666706026059,-0.199142068624496,0.0219911485910416,-0.153938040137291
5,1.01944450285877,-0.156944454596674,-0.0500000014324589,-0.297796815633774,0.0525344125926495,-0.146913096308708
5,1.03194452980806,-0.166666673467524,-0.0458333348996699,-0.348498612642288,0.0720821022987366,-0.170736834406853
5,1.0361111082101,-0.176388892338373,-0.055555559848502,-0.39064833521843,0.0910189226269722,-0.200363799929619
5,1.02916674604155,-0.190277786858986,-0.0625000010308258,-0.415388375520706,0.104763388633728,-0.195171445608139
5,1.0333333244436,-0.20138889761309,-0.0666666706026059,-0.422413319349289,0.146913096308708,-0.205250725150108
5,1.0305556379248,-0.215277779977737,-0.0736111117849297,-0.414777487516403,0.222660377621651,-0.231823354959488
5,1.02638896227504,-0.212499996211229,-0.0805555590452358,-0.389732033014297,0.282219737768173,-0.249233022332191
5,1.01666671909226,-0.20972223675665,-0.0458333348996699,-0.327118337154388,0.291993588209152,-0.235183119773865
5,1.00972225967599,-0.200000005729836,-0.0250000007162294,-0.245262399315834,0.26908615231514,-0.191200822591782
5,1.02500007039179,-0.188888894975731,-0.026388891079988,-0.168598800897598,0.220522359013557,-0.163406446576118
5,1.03888889197661,-0.193055558469529,-0.03194444645704,-0.140804439783096,0.243735238909721,-0.153938040137291
5,1.02083339474202,-0.190277786858986,-0.00972222266958873,-0.126143679022789,0.254730820655823,-0.153938040137291
5,1.01388893532575,-0.176388892338373,-0.00138888893923146,-0.114537231624126,0.26969701051712,-0.168598800897598
5,1.01944450285877,-0.163888889701015,0.00694444498106275,-0.0726929605007172,0.309708684682846,-0.151494577527046
5,1.01944450285877,-0.163888889701015,0.00694444498106275,-0.03176499158144,0.320704251527786,-0.131336033344269
5,1.02222228662528,-0.148611115453114,0.026388891079988,-0.0128281703218818,0.335059583187103,-0.0952949747443199
5,1.01944450285877,-0.136111112815755,0.0236111118719664,-0.00733038317412138,0.370184332132339,-0.0885754600167274
5,1.01944450285877,-0.136111112815755,0.0236111118719664,-0.0381790772080422,0.409585148096085,-0.105068825185299
5,1.01388893532575,-0.120833338567854,0.030555557612777,-0.102014496922493,0.423940479755402,-0.107206851243973
5,1.01111115155925,-0.138888896582264,0.0652777787193518,-0.149356558918953,0.41263946890831,-0.11117747426033
5,1.01111115155925,-0.138888896582264,0.0652777787193518,-0.178067222237587,0.339030206203461,-0.122783914208412
5,1.00555558402623,-0.150000007336368,0.0861111144222878,-0.13744467496872,0.251371055841446,-0.115148097276688
5,1.00555558402623,-0.16527778158427,0.0916666697993398,-0.0766635909676552,0.195171445608139,-0.0897971913218498
5,1.03194452980806,-0.187500003092477,0.0652777787193518,0.0021380283869803,0.200363799929619,-0.0623082555830479
5,1.04027778385987,-0.205555561106887,0.0500000014324589,0.122173048555851,0.265420943498612,-0.0565050356090069
5,1.03194452980806,-0.212499996211229,0.0500000014324589,0.229074463248253,0.290771842002869,-0.0436768643558025
5,1.02222228662528,-0.213888888094483,0.055555559848502,0.315511912107468,0.29657506942749,-0.0455094613134861
5,1.00555558402623,-0.19166667874224,0.0750000036681839,0.388815730810165,0.286190360784531,-0.0519235469400883
5,1.00555558402623,-0.18333333959868,0.0902777839940679,0.405614525079727,0.244956970214844,-0.0500909499824047
5,1.00972225967599,-0.159722226207217,0.10972222781375,0.393702656030655,0.198225766420364,-0.0565050356090069
5,1.02500007039179,-0.125000002061652,0.12777778582816,0.372322380542755,0.114842668175697,-0.0287106670439243
5,1.02083339474202,-0.1194444466846,0.12777778582816,0.309403240680695,0.0161879286170006,0.0106901414692402
5,1.02083339474202,-0.106944444047242,0.113888891307548,0.270613312721252,-0.0106901414692402,0.0277943685650826
5,1.02500007039179,-0.108333335930496,0.125000002061652,0.247705861926079,-0.0226020142436027,0.0574213340878487
5,1.03472221632685,-0.112499999424294,0.10972222781375,0.196698606014252,0.0045814891345799,0.0986547395586967
5,1.03750000009336,-0.130555557438704,0.0944444474878658,0.160352125763893,0.0384845100343227,0.090408056974411
5,1.01388893532575,-0.134722233088466,0.113888891307548,0.132557764649391,0.0430659987032413,0.0745255574584007
5,0.998611124609959,-0.136111112815755,0.125000002061652,0.118507854640484,0.0354301854968071,0.0516181141138077
5,0.99583334084345,-0.133333341205212,0.125000002061652,0.125227376818657,0.0311541277915239,0.0351247526705265
5,1.00416669214298,-0.13750000469901,0.144444451959316,0.12156218290329,0.00305432616733015,0.0259617734700441
5,1.00555558402623,-0.12916666555545,0.143055560076062,0.105068825185299,-0.0339030213654041,0.0284052342176437
5,1.00972225967599,-0.125000002061652,0.130555557438704,0.0638354197144508,-0.0733038261532784,0.0363464802503586
5,1.01944450285877,-0.12916666555545,0.125000002061652,0.0467311926186085,-0.103236228227615,0.0342084541916847
5,1.0305556379248,-0.14722222356986,0.112499999424294,0.05283984541893,-0.100181899964809,0.029626963660121
5,1.02222228662528,-0.154166670830166,0.102777780553444,0.0778853222727776,-0.0986547395586967,0.0507018156349659
5,1.00555558402623,-0.159722226207217,0.0875000002275597,0.098960168659687,-0.0763581544160843,0.0733038261532784
5,1.0125000434425,-0.156944454596674,0.0875000002275597,0.0952949747443199,-0.0232128798961639,0.0620028227567673
5,1.00694447590948,-0.156944454596674,0.0902777839940679,0.0705549344420433,0.0109955742955208,0.0433714315295219
5,1.00555558402623,-0.150000007336368,0.0930555616825939,0.0516181141138077,-0.0021380283869803,0.0390953756868839
5,1.00555558402623,-0.158333334323963,0.113888891307548,0.0595593601465225,-0.0125227374956012,0.0342084541916847
5,1.00555558402623,-0.163888889701015,0.1194444466846,0.0543670058250427,-0.0308486949652433,0.0189368221908808
5,1.00555558402623,-0.163888889701015,0.111111119697004,0.0452040284872055,-0.0284052342176437,0.0033597587607801
5,1.01111115155925,-0.152777778946911,0.1194444466846,0.0595593601465225,-0.0452040284872055,0.0149661982432008
5,1.01527782720901,-0.161111118090472,0.102777780553444,0.0433714315295219,-0.0204639863222837,0.0198531206697226
5,1.01527782720901,-0.162500009973726,0.101388894748172,0.0360410511493683,-0.00733038317412138,0.0128281703218818
5,1.0125000434425,-0.16527778158427,0.10972222781375,0.0372627787292004,-0.00641408516094089,0.0198531206697226
5,1.01111115155925,-0.163888889701015,0.111111119697004,0.0534507073462009,-0.0045814891345799,0.0351247526705265
5,1.01388893532575,-0.148611115453114,0.112499999424294,0.0397062413394451,0.0100792767480016,0.0397062413394451
5,1.01944450285877,-0.154166670830166,0.0944444474878658,0.0186313893646002,-0.000305432622553781,0.0372627787292004
5,1.02083339474202,-0.158333334323963,0.0958333393711199,0.013744467869401,-0.0171042270958424,0.0387899428606033
5,1.01805561097552,-0.16527778158427,0.116666675074056,0.0189368221908808,-0.0378736443817616,0.0400116741657257
5,1.00833336779274,-0.170833336961321,0.111111119697004,0.027488935738802,-0.0739146918058395,0.0467311926186085
5,1.00277780025972,-0.158333334323963,0.104166672436698,0.0271835029125214,-0.0824668109416962,0.0555887371301651
5,1.00138890837647,-0.152777778946911,0.106944444047242,0.0143553335219622,-0.0729983970522881,0.0503963828086853
5,1.00972225967599,-0.144444451959316,0.105555564319952,-0.00702495034784079,-0.0613919571042061,0.0482583530247212
5,1.01805561097552,-0.144444451959316,0.102777780553444,-0.037568211555481,-0.0342084541916847,0.0470366254448891
5,1.02500007039179,-0.154166670830166,0.0833333367337618,-0.0458148941397667,-0.02382374368608,0.0354301854968071
5,1.00972225967599,-0.156944454596674,0.113888891307548,-0.0635299831628799,-0.0271835029125214,0.0384845100343227
5,1.00555558402623,-0.156944454596674,0.115277783190802,-0.0711658000946045,-0.0500909499824047,0.0452040284872055
5,1.01805561097552,-0.163888889701015,0.115277783190802,-0.0488692186772823,-0.0351247526705265,0.02382374368608
5,1.02638896227504,-0.170833336961321,0.115277783190802,-0.0412334054708481,-0.0103847095742822,0.0125227374956012
5,1.02222228662528,-0.162500009973726,0.104166672436698,-0.0384845100343227,-0.0033597587607801,0.00763581553474069
5,1.02083339474202,-0.154166670830166,0.105555564319952,-0.0348193198442459,-0.03176499158144,0.0256563406437635
5,1.02500007039179,-0.152777778946911,0.0902777839940679,-0.0510072484612465,-0.0256563406437635,0.0152716310694814
5,1.02222228662528,-0.158333334323963,0.0916666697993398,-0.0638354197144508,-0.0033597587607801,0.00946841109544039
5,1.01111115155925,-0.16527778158427,0.108333335930496,-0.0671951770782471,-0.0103847095742822,0.00763581553474069
5,1.01527782720901,-0.163888889701015,0.108333335930496,-0.0592539273202419,-0.0290160998702049,0.00977384392172098
5,1.01666671909226,-0.163888889701015,0.101388894748172,-0.0623082555830479,-0.0235183127224445,0.0171042270958424
5,1.01944450285877,-0.161111118090472,0.0888888921108138,-0.0919352173805237,-0.00427605677396059,0.0161879286170006
5,1.02500007039179,-0.159722226207217,0.0986111170596459,-0.120035022497177,0.0140499006956816,0.00305432616733015
5,1.03194452980806,-0.16527778158427,0.0972222251763917,-0.119729585945606,0.0247400421649218,0.0180205255746841
5,1.03194452980806,-0.172222228844576,0.0958333393711199,-0.113010071218014,0.0128281703218818,0.029626963660121
5,1.02777785415829,-0.181944447715425,0.0763888894734557,-0.119729585945606,-0.019547687843442,0.058643065392971
5,1.01111115155925,-0.193055558469529,0.0652777787193518,-0.125838235020638,-0.0232128798961639,0.0659734457731247
5,1.00416669214298,-0.212499996211229,0.0722222259796579,-0.103541657328606,-0.0244346093386412,0.0494800843298435
5,1.00416669214298,-0.212499996211229,0.0722222259796579,-0.076052725315094,-0.0164933614432812,0.0339030213654041
5,1.00555558402623,-0.212499996211229,0.0833333367337618,-0.0326812900602817,-0.00824668072164059,0.0125227374956012
5,1.00000001649321,-0.200000005729836,0.0750000036681839,-0.00427605677396059,-0.0161879286170006,-0.00122173049021512
5,1.00000001649321,-0.200000005729836,0.0750000036681839,0.00427605677396059,-0.0256563406437635,-0.00733038317412138
5,0.987499989543926,-0.17361112072783,0.0847222225390337,0.00855211354792118,-0.0406225398182869,-0.00855211354792118
5,0.990277773310434,-0.168055565350778,0.0819444448505077,0.0106901414692402,-0.0647517144680023,-0.0106901414692402
5,0.990277773310434,-0.168055565350778,0.0819444448505077,0.00855211354792118,0.00549778714776039,-0.00916297826915979
5,0.997222232726705,-0.168055565350778,0.101388894748172,-0.00305432616733015,0.0497855171561241,-0.0308486949652433
5,0.998611124609959,-0.169444445078067,0.111111119697004,0.0302378293126821,-0.00122173049021512,-0.0256563406437635
5,0.998611124609959,-0.169444445078067,0.111111119697004,0.0455094613134861,-0.0222965814173222,-0.0131336031481624
5,1.02222228662528,-0.176388892338373,0.0902777839940679,0.0424551330506802,-0.0033597587607801,0.0027488935738802
5,1.01944450285877,-0.168055565350778,0.0847222225390337,0.0332921557128429,-0.015577063895762,0.00916297826915979
5,1.01944450285877,-0.168055565350778,0.0847222225390337,0.0320704244077206,-0.0232128798961639,0.0149661982432008
5,1.02361117850853,-0.176388892338373,0.0777777813567098,0.027488935738802,0.0128281703218818,0.00733038317412138
5,1.01805561097552,-0.180555567988136,0.0708333340964038,0.0268780700862408,0.0458148941397667,-0.00733038317412138
5,1.00694447590948,-0.17361112072783,0.0777777813567098,0.0378736443817616,0.0519235469400883,-0.0146607663482428
5,1.00833336779274,-0.172222228844576,0.104166672436698,0.0607810914516449,0.0290160998702049,-0.021685715764761
5,1.01388893532575,-0.170833336961321,0.105555564319952,0.0558941699564457,0.00580321997404099,-0.0167987942695618
5,1.01805561097552,-0.163888889701015,0.0930555616825939,0.0332921557128429,0.00427605677396059,-0.0271835029125214
5,1.01944450285877,-0.159722226207217,0.0986111170596459,0.0259617734700441,-0.0210748501121998,-0.0143553335219622
5,1.02916674604155,-0.156944454596674,0.0930555616825939,-0.000305432622553781,-0.0113010071218014,-0.017409659922123
5,1.02916674604155,-0.150000007336368,0.0986111170596459,-0.0314595587551594,0.00397062394768,-0.0244346093386412
5,1.02083339474202,-0.151388899219622,0.101388894748172,-0.0629191175103188,-0.00183259579353034,-0.0277943685650826
5,1.00416669214298,-0.150000007336368,0.0944444474878658,-0.0873537287116051,0.0146607663482428,-0.0412334054708481
5,1.00277780025972,-0.144444451959316,0.0944444474878658,-0.108734011650086,0.0143553335219622,-0.0458148941397667
5,1.01111115155925,-0.131944449321958,0.0847222225390337,-0.149661988019943,0.0259617734700441,-0.0442877300083637
5,1.02222228662528,-0.13750000469901,0.0777777813567098,-0.199142068624496,0.0180205255746841,-0.0470366254448891
5,1.02222228662528,-0.144444451959316,0.0833333367337618,-0.221133217215538,-0.00519235478714108,-0.0561996027827263
5,1.02222228662528,-0.190277786858986,0.0986111170596459,-0.172569438815117,-0.0485637858510017,-0.0687223374843597
5,1.01388893532575,-0.193055558469529,0.104166672436698,-0.124005645513535,-0.00763581553474069,-0.0607810914516449
5,1.00972225967599,-0.180555567988136,0.101388894748172,-0.0653625801205635,0.0421497002243996,-0.0491746515035629
5,1.02500007039179,-0.168055565350778,0.0652777787193518,-0.0629191175103188,0.0574213340878487,-0.0479529201984406
5,1.02916674604155,-0.170833336961321,0.0569444456537738,-0.109039448201656,0.0995710343122482,-0.0766635909676552
5,1.02916674604155,-0.17361112072783,0.0652777787193518,-0.152716308832169,0.105068825185299,-0.120340451598167
5,1.01111115155925,-0.15555556271342,0.111111119697004,-0.129808858036995,0.0394008085131645,-0.0949895456433296
5,1.0125000434425,-0.136111112815755,0.108333335930496,-0.0983493030071259,0.0314595587551594,-0.0503963828086853
5,1.02083339474202,-0.133333341205212,0.0875000002275597,-0.120035022497177,0.0809396430850029,-0.0345138870179653
5,1.00972225967599,-0.136111112815755,0.0736111117849297,-0.16920967400074,0.139277279376984,-0.0513126812875271
5,1.00833336779274,-0.152777778946911,0.0944444474878658,-0.167071640491486,0.118813291192055,-0.0708603709936142
5,1.0125000434425,-0.154166670830166,0.120833338567854,-0.109650313854218,0.0720821022987366,-0.0687223374843597
5,1.0305556379248,-0.14722222356986,0.112499999424294,-0.0421497002243996,0.0103847095742822,-0.05283984541893
5,1.05000002704265,-0.14722222356986,0.0708333340964038,-0.0213802829384804,0.03176499158144,-0.0464257597923279
5,1.03194452980806,-0.14722222356986,0.0652777787193518,-0.0797179117798805,0.0965167060494423,-0.0568104684352875
5,1.00972225967599,-0.166666673467524,0.108333335930496,-0.115148097276688,0.123700208961964,-0.0537561401724815
5,1.00972225967599,-0.166666673467524,0.108333335930496,-0.0766635909676552,0.0452040284872055,-0.0595593601465225
5,1.01944450285877,-0.172222228844576,0.133333341205212,-0.00702495034784079,-0.0400116741657257,-0.0473420582711697
5,1.03194452980806,-0.166666673467524,0.0944444474878658,0.0558941699564457,-0.0659734457731247,-0.0244346093386412
5,1.03194452980806,-0.166666673467524,0.0944444474878658,0.0488692186772823,-0.0189368221908808,-0.00702495034784079
5,1.02916674604155,-0.158333334323963,0.0750000036681839,0.027488935738802,0.0268780700862408,-0.00733038317412138
5,1.00972225967599,-0.166666673467524,0.0944444474878658,0.0534507073462009,0.0226020142436027,-0.00427605677396059
5,1.00277780025972,-0.170833336961321,0.104166672436698,0.0681114718317986,0.00946841109544039,-0.0143553335219622
5,1.00138890837647,-0.16527778158427,0.116666675074056,0.102930791676045,0.00183259579353034,-0.0140499006956816
5,1.00833336779274,-0.154166670830166,0.1194444466846,0.119424156844616,0.000610865245107561,-0.00427605677396059
5,1.0125000434425,-0.151388899219622,0.113888891307548,0.133779495954514,-0.00397062394768,0.00671951752156019
5,1.02500007039179,-0.143055560076062,0.115277783190802,0.142026171088219,-0.00366519158706069,0.0222965814173222
5,1.02222228662528,-0.144444451959316,0.112499999424294,0.139888137578964,-0.0180205255746841,0.0171042270958424
5,1.0125000434425,-0.14722222356986,0.130555557438704,0.164628177881241,-0.00824668072164059,0.0229074470698834
5,1.0125000434425,-0.131944449321958,0.123611110178398,0.173180297017098,-0.0210748501121998,0.0213802829384804
5,1.02916674604155,-0.120833338567854,0.104166672436698,0.135306656360626,0.00946841109544039,0.0305432621389627
5,1.02916674604155,-0.104166672436698,0.0819444448505077,0.0687223374843597,0.0290160998702049,0.0232128798961639
5,1.02777785415829,-0.106944444047242,0.0875000002275597,0.0244346093386412,0.0537561401724815,-0.00977384392172098
5,1.02777785415829,-0.113888891307548,0.0944444474878658,-0.00610865233466029,0.0705549344420433,-0.0299323964864016
5,1.01666671909226,-0.118055554801345,0.115277783190802,-0.0213802829384804,0.0537561401724815,-0.0332921557128429
5,1.00277780025972,-0.115277783190802,0.125000002061652,-0.0439822971820831,0.0229074470698834,-0.0268780700862408
5,1.00555558402623,-0.1194444466846,0.120833338567854,-0.0452040284872055,0.0244346093386412,-0.0342084541916847
5,1.00972225967599,-0.118055554801345,0.111111119697004,-0.0348193198442459,0.0171042270958424,-0.0140499006956816
5,1.01527782720901,-0.123611110178398,0.111111119697004,-0.0167987942695618,0.0222965814173222,-0.0045814891345799
5,1.01388893532575,-0.130555557438704,0.115277783190802,-0.000916297896765172,0.0467311926186085,0.0113010071218014
5,1.00694447590948,-0.144444451959316,0.123611110178398,0.0436768643558025,0.0335975885391235,0.00610865233466029
5,1.00972225967599,-0.152777778946911,0.126388893944906,0.0571159012615681,0.011606439948082,0.00397062394768
5,1.01111115155925,-0.151388899219622,0.134722233088466,0.120035022497177,-0.0357356183230877,0.00519235478714108
5,1.01388893532575,-0.140277788465518,0.120833338567854,0.138666406273842,-0.0491746515035629,0.0149661982432008
5,1.02500007039179,-0.12916666555545,0.106944444047242,0.144775062799454,-0.0131336031481624,0.0247400421649218
5,1.02916674604155,-0.113888891307548,0.111111119697004,0.132557764649391,0.0161879286170006,0.0290160998702049
5,1.02222228662528,-0.111111119697004,0.115277783190802,0.102014496922493,0.0244346093386412,0.0280998013913631
5,1.01805561097552,-0.111111119697004,0.111111119697004,0.0467311926186085,0.0131336031481624,0.0219911485910416
5,1.01666671909226,-0.1194444466846,0.118055554801345,0.0103847095742822,0.013744467869401,0.0204639863222837
5,1.01527782720901,-0.126388893944906,0.1194444466846,0.00671951752156019,0.00885754637420177,0.01191187184304
5,1.01805561097552,-0.12916666555545,0.134722233088466,0.0180205255746841,-0.0448985956609249,0.00366519158706069
5,1.02361117850853,-0.130555557438704,0.120833338567854,0.0122173046693206,-0.0482583530247212,0.0033597587607801
5,1.02916674604155,-0.134722233088466,0.1194444466846,-0.000305432622553781,-0.0027488935738802,-0.000916297896765172
5,1.02916674604155,-0.133333341205212,0.118055554801345,-0.0106901414692402,0.0192422550171614,0.011606439948082
5,1.02222228662528,-0.134722233088466,0.122222230451108,-0.0045814891345799,0.00152716308366507,0.011606439948082
5,1.01666671909226,-0.134722233088466,0.12777778582816,-0.0186313893646002,-0.0284052342176437,0.0100792767480016
5,1.02361117850853,-0.134722233088466,0.125000002061652,-0.0314595587551594,-0.0204639863222837,0.017409659922123
5,1.02916674604155,-0.14722222356986,0.113888891307548,-0.0302378293126821,0.00244346098043024,0.015577063895762
5,1.01944450285877,-0.141666668192807,0.1194444466846,-0.0394008085131645,0.0406225398182869,-0.000916297896765172
5,1.00694447590948,-0.13750000469901,0.131944449321958,-0.0287106670439243,0.0125227374956012,-0.000610865245107561
5,1.01111115155925,-0.138888896582264,0.122222230451108,-0.017409659922123,-0.019547687843442,0.00305432616733015
5,1.00972225967599,-0.141666668192807,0.101388894748172,-0.0384845100343227,0.011606439948082,0.0021380283869803
5,1.00972225967599,-0.13750000469901,0.106944444047242,-0.0598647929728031,0.0387899428606033,-0.00885754637420177
5,1.00972225967599,-0.13750000469901,0.106944444047242,-0.0794124826788902,0.0226020142436027,-0.0198531206697226
5,1.00694447590948,-0.131944449321958,0.1194444466846,-0.0650571510195732,-0.00916297826915979,-0.0177150927484035
5,1.0125000434425,-0.12777778582816,0.12777778582816,-0.0687223374843597,-0.0241291765123606,-0.0106901414692402
5,1.0125000434425,-0.12777778582816,0.12777778582816,-0.078801617026329,-0.0308486949652433,-0.00916297826915979
5,1.02361117850853,-0.148611115453114,0.106944444047242,-0.087659165263176,-0.0201585534960032,-0.0149661982432008
5,1.02222228662528,-0.150000007336368,0.113888891307548,-0.0858265683054924,-0.00885754637420177,-0.0207694191485643
5,1.02222228662528,-0.150000007336368,0.113888891307548,-0.0568104684352875,-0.0320704244077206,-0.0256563406437635
5,1.02222228662528,-0.140277788465518,0.111111119697004,-0.0302378293126821,-0.0632245540618896,-0.00824668072164059
5,1.02361117850853,-0.134722233088466,0.0972222251763917,-0.029626963660121,-0.03176499158144,0.00152716308366507
5,1.0305556379248,-0.12777778582816,0.0875000002275597,-0.0540615729987621,0.0143553335219622,0.0122173046693206
5,1.02500007039179,-0.136111112815755,0.115277783190802,-0.0592539273202419,0.0143553335219622,0.0113010071218014
5,1.01944450285877,-0.143055560076062,0.113888891307548,-0.0507018156349659,0.00183259579353034,-0.0100792767480016
5,1.00972225967599,-0.144444451959316,0.112499999424294,-0.0455094613134861,0.00916297826915979,-0.0192422550171614
5,1.00277780025972,-0.13750000469901,0.108333335930496,-0.0161879286170006,0.0268780700862408,-0.0125227374956012
5,1.00277780025972,-0.144444451959316,0.1194444466846,0.0580321997404099,0.0113010071218014,0.00183259579353034
5,1.00972225967599,-0.14583334384257,0.12777778582816,0.110566608607769,-0.0277943685650826,0.0259617734700441
5,1.02500007039179,-0.140277788465518,0.0986111170596459,0.101709060370922,-0.027488935738802,0.0271835029125214
5,1.02500007039179,-0.148611115453114,0.0847222225390337,0.0714712366461754,-0.0128281703218818,0.00855211354792118
5,1.02083339474202,-0.154166670830166,0.0986111170596459,0.0827722400426865,-0.0470366254448891,-0.00152716308366507
5,1.02500007039179,-0.150000007336368,0.101388894748172,0.107512280344963,-0.108428582549095,0.000610865245107561
5,1.03194452980806,-0.14722222356986,0.0791666671619817,0.121256753802299,-0.08460483700037,0.0323758572340012
5,1.03194452980806,-0.133333341205212,0.0847222225390337,0.0925460830330849,-0.0122173046693206,0.0290160998702049
5,1.02916674604155,-0.12916666555545,0.0847222225390337,0.0784961804747581,-0.0311541277915239,0.0280998013913631
5,1.02222228662528,-0.141666668192807,0.101388894748172,0.0678060427308083,-0.0531452745199203,-0.0210748501121998
5,1.00833336779274,-0.152777778946911,0.108333335930496,0.0653625801205635,-0.0326812900602817,-0.0592539273202419
5,0.99583334084345,-0.134722233088466,0.0972222251763917,0.0503963828086853,0.01191187184304,-0.0638354197144508
5,1.00277780025972,-0.111111119697004,0.104166672436698,0.0280998013913631,0.0580321997404099,-0.0595593601465225
5,1.01527782720901,-0.112499999424294,0.104166672436698,-0.0183259565383196,0.021685715764761,-0.0201585534960032
5,1.02500007039179,-0.130555557438704,0.10972222781375,-0.0180205255746841,-0.0222965814173222,0.0106901414692402
5,1.0361111082101,-0.154166670830166,0.113888891307548,0.0027488935738802,-0.0106901414692402,0.0268780700862408
5,1.02083339474202,-0.162500009973726,0.131944449321958,0.0607810914516449,-0.00671951752156019,0.0244346093386412
5,0.991666665193688,-0.126388893944906,0.156944454596674,0.109039448201656,-0.0653625801205635,0.01588249579072
5,0.984722303025134,-0.0986111170596459,0.148611115453114,0.12705996632576,-0.119729585945606,0.0494800843298435
5,1.00000001649321,-0.0875000002275597,0.1194444466846,0.0552833043038845,-0.0763581544160843,0.0491746515035629
5,1.00000001649321,-0.0875000002275597,0.1194444466846,-0.0149661982432008,-0.0290160998702049,0.0308486949652433
5,1.0125000434425,-0.130555557438704,0.101388894748172,-0.0696386396884918,0.0134390350431204,-0.00122173049021512
5,1.0125000434425,-0.130555557438704,0.101388894748172,0.000916297896765172,-0.00519235478714108,-0.0201585534960032
5,1.02361117850853,-0.150000007336368,0.123611110178398,0.0247400421649218,-0.0222965814173222,-0.013744467869401
5,1.02777785415829,-0.14583334384257,0.118055554801345,0.0397062413394451,-0.0250454749912024,-0.0213802829384804
5,1.03888889197661,-0.152777778946911,0.0875000002275597,0.0326812900602817,0.00549778714776039,-0.0229074470698834
5,1.03888889197661,-0.158333334323963,0.0777777813567098,0.0265726372599602,0.0577267669141293,-0.0161879286170006
5,1.01527782720901,-0.163888889701015,0.0958333393711199,0.0412334054708481,0.0335975885391235,-0.029626963660121
5,1.00416669214298,-0.15555556271342,0.0972222251763917,0.0598647929728031,0.0033597587607801,-0.0250454749912024
5,1.00277780025972,-0.140277788465518,0.0847222225390337,0.0595593601465225,0.00946841109544039,-0.0271835029125214
5,1.00000001649321,-0.134722233088466,0.0972222251763917,0.0610865242779255,0.0250454749912024,-0.019547687843442
5,1.00972225967599,-0.13750000469901,0.100000002864918,0.0607810914516449,0.0335975885391235,-0.00427605677396059
5,1.02500007039179,-0.140277788465518,0.106944444047242,0.0601702257990837,0.0219911485910416,-0.00244346098043024
5,1.0305556379248,-0.143055560076062,0.111111119697004,0.0726929605007172,-0.0219911485910416,0.0149661982432008
5,1.0333333244436,-0.143055560076062,0.0930555616825939,0.0494800843298435,-0.0439822971820831,0.0259617734700441
5,1.02500007039179,-0.130555557438704,0.0805555590452358,0.0409279726445675,-0.0192422550171614,0.0265726372599602
5,1.02500007039179,-0.134722233088466,0.0819444448505077,0.0128281703218818,0.0259617734700441,0.0113010071218014
5,1.02222228662528,-0.131944449321958,0.0916666697993398,0.0204639863222837,0.0409279726445675,0.0134390350431204
5,1.01527782720901,-0.120833338567854,0.101388894748172,0.0161879286170006,0.027488935738802,0.0134390350431204
5,1.01805561097552,-0.113888891307548,0.104166672436698,0.00305432616733015,-0.000916297896765172,0.011606439948082
5,1.01666671909226,-0.111111119697004,0.101388894748172,-0.0186313893646002,-0.0167987942695618,0.0183259565383196
5,1.02222228662528,-0.115277783190802,0.105555564319952,-0.0186313893646002,-0.0177150927484035,0.0146607663482428
5,1.02361117850853,-0.126388893944906,0.0972222251763917,-0.0314595587551594,-0.0311541277915239,0.00946841109544039
5,1.02638896227504,-0.131944449321958,0.0875000002275597,-0.0284052342176437,-0.0171042270958424,0.00427605677396059
5,1.0305556379248,-0.14722222356986,0.0916666697993398,-0.015577063895762,0.00580321997404099,0.00122173049021512
5,1.02361117850853,-0.143055560076062,0.0833333367337618,-0.00946841109544039,0.0265726372599602,-0.0122173046693206
5,1.01388893532575,-0.13750000469901,0.0916666697993398,0.000916297896765172,0.0345138870179653,-0.00519235478714108
5,1.0125000434425,-0.130555557438704,0.0972222251763917,-0.00366519158706069,0.0394008085131645,-0.0152716310694814
5,1.00555558402623,-0.131944449321958,0.100000002864918,-0.0109955742955208,0.0400116741657257,-0.0189368221908808
5,1.00972225967599,-0.13750000469901,0.101388894748172,-0.0180205255746841,0.0470366254448891,-0.011606439948082
5,1.01527782720901,-0.140277788465518,0.0902777839940679,-0.0427605658769607,0.0491746515035629,-0.0021380283869803
5,1.01666671909226,-0.143055560076062,0.0875000002275597,-0.0522289797663689,0.0635299831628799,-0.00183259579353034
5,1.01388893532575,-0.130555557438704,0.120833338567854,-0.0598647929728031,0.0455094613134861,0.0134390350431204
5,1.00416669214298,-0.118055554801345,0.136111112815755,-0.0323758572340012,-0.0284052342176437,0.058643065392971
5,1.00555558402623,-0.116666675074056,0.131944449321958,-0.021685715764761,-0.115758962929249,0.112704634666443
5,1.01527782720901,-0.12777778582816,0.120833338567854,0.00397062394768,-0.141415297985077,0.122478485107422
5,1.02222228662528,-0.141666668192807,0.118055554801345,0.0357356183230877,-0.134084925055504,0.0956004112958908
5,1.01527782720901,-0.150000007336368,0.0972222251763917,0.0534507073462009,-0.119424156844616,0.037568211555481
5,1.01527782720901,-0.141666668192807,0.0847222225390337,0.0277943685650826,-0.0320704244077206,-0.0320704244077206
5,1.01944450285877,-0.12916666555545,0.0944444474878658,0.000916297896765172,0.0207694191485643,-0.0577267669141293
5,1.0361111082101,-0.116666675074056,0.0958333393711199,-0.0253509078174829,0.0580321997404099,-0.0555887371301651
5,1.03750000009336,-0.120833338567854,0.0819444448505077,-0.0610865242779255,0.0525344125926495,-0.0580321997404099
5,1.0361111082101,-0.12777778582816,0.0930555616825939,-0.102319926023483,0.0684169083833694,-0.0473420582711697
5,1.0361111082101,-0.12777778582816,0.0930555616825939,-0.123700208961964,0.0943786799907684,-0.0415388382971287
5,1.01666671909226,-0.140277788465518,0.111111119697004,-0.130725160241127,0.0974330082535744,-0.0552833043038845
5,1.0125000434425,-0.14722222356986,0.100000002864918,-0.118202425539494,0.0558941699564457,-0.0510072484612465
5,1.0125000434425,-0.14722222356986,0.100000002864918,-0.101403631269932,0.0470366254448891,-0.0675006061792374
5,1.02222228662528,-0.163888889701015,0.0847222225390337,-0.0910189226269722,0.0647517144680023,-0.0781907513737679
5,1.0125000434425,-0.161111118090472,0.0722222259796579,-0.0736092627048492,0.0690277740359306,-0.0742201283574104
5,1.0125000434425,-0.161111118090472,0.0722222259796579,-0.0763581544160843,0.0503963828086853,-0.0519235469400883
5,1.00833336779274,-0.133333341205212,0.0805555590452358,-0.0867428630590439,0.037568211555481,-0.0128281703218818
5,1.0125000434425,-0.134722233088466,0.0958333393711199,-0.0937678143382072,0.0360410511493683,0.0290160998702049
5,1.0125000434425,-0.134722233088466,0.0958333393711199,-0.0650571510195732,-0.0302378293126821,0.0748309940099716
5,0.998611124609959,-0.134722233088466,0.126388893944906,-0.0369573459029198,-0.0977384373545647,0.0836885422468185
5,0.993055557076942,-0.141666668192807,0.115277783190802,-0.00977384392172098,-0.148745685815811,0.0897971913218498
5,1.00000001649321,-0.140277788465518,0.116666675074056,0.0143553335219622,-0.125838235020638,0.0638354197144508
5,1.0125000434425,-0.13750000469901,0.0944444474878658,0.01588249579072,-0.0778853222727776,0.0522289797663689
5,1.02916674604155,-0.13750000469901,0.0722222259796579,-0.0171042270958424,-0.0186313893646002,0.0424551330506802
5,1.0333333244436,-0.141666668192807,0.0722222259796579,-0.0213802829384804,0.00610865233466029,0.0201585534960032
5,1.03194452980806,-0.13750000469901,0.0888888921108138,-0.015577063895762,0.0345138870179653,0.0109955742955208
5,1.0305556379248,-0.133333341205212,0.0944444474878658,-0.0161879286170006,0.0427605658769607,0.00183259579353034
5,1.02777785415829,-0.134722233088466,0.0986111170596459,-0.0357356183230877,0.0772744566202164,-0.00916297826915979
5,1.02500007039179,-0.138888896582264,0.104166672436698,-0.0592539273202419,0.0635299831628799,-0.0348193198442459
5,1.01388893532575,-0.14722222356986,0.10972222781375,-0.0354301854968071,0.0262672062963247,-0.0302378293126821
5,1.00833336779274,-0.150000007336368,0.122222230451108,-0.00641408516094089,0.0378736443817616,-0.0265726372599602
5,1.01805561097552,-0.13750000469901,0.108333335930496,0.00610865233466029,0.0714712366461754,-0.0219911485910416
5,1.02500007039179,-0.106944444047242,0.0972222251763917,-0.0342084541916847,0.0736092627048492,0.0033597587607801
5,1.01666671909226,-0.0916666697993398,0.0875000002275597,-0.0739146918058395,0.0873537287116051,0.0109955742955208
5,1.00972225967599,-0.101388894748172,0.101388894748172,-0.0977384373545647,0.0830776765942574,0.00916297826915979
5,1.00555558402623,-0.126388893944906,0.120833338567854,-0.0745255574584007,0.0259617734700441,-0.0164933614432812
5,1.00694447590948,-0.13750000469901,0.122222230451108,-0.0329867228865623,-0.0167987942695618,-0.0366519130766392
5,1.00416669214298,-0.130555557438704,0.115277783190802,-0.0213802829384804,-0.00855211354792118,-0.0448985956609249
5,1.00972225967599,-0.116666675074056,0.10972222781375,-0.0259617734700441,0.0128281703218818,-0.0430659987032413
5,1.00972225967599,-0.111111119697004,0.104166672436698,-0.0503963828086853,0.00763581553474069,-0.0167987942695618
5,1.00277780025972,-0.10972222781375,0.125000002061652,-0.0561996027827263,0.0033597587607801,0.00305432616733015
5,0.990277773310434,-0.10972222781375,0.126388893944906,-0.0577267669141293,-0.0241291765123606,0.0323758572340012
5,0.991666665193688,-0.113888891307548,0.125000002061652,-0.0690277740359306,-0.0543670058250427,0.0546724386513233
5,0.991666665193688,-0.118055554801345,0.125000002061652,-0.0794124826788902,-0.0748309940099716,0.0571159012615681
5,0.997222232726705,-0.13750000469901,0.131944449321958,-0.0626136884093285,-0.096211276948452,0.0540615729987621
5,1.00000001649321,-0.150000007336368,0.12777778582816,-0.0106901414692402,-0.116675265133381,0.0635299831628799
5,1.0125000434425,-0.166666673467524,0.125000002061652,0.0461203269660473,-0.15851953625679,0.0928515195846558
5,1.01805561097552,-0.17361112072783,0.101388894748172,0.0726929605007172,-0.181426972150803,0.119729585945606
5,1.01805561097552,-0.176388892338373,0.0916666697993398,0.0940732508897781,-0.186313897371292,0.133779495954514
5,1.0305556379248,-0.18333333959868,0.0861111144222878,0.0913243517279625,-0.17409659922123,0.130419731140137
5,1.0513889189259,-0.200000005729836,0.0750000036681839,0.100792765617371,-0.152105450630188,0.108734011650086
5,1.06111116210868,-0.20138889761309,0.0750000036681839,0.124311074614525,-0.129808858036995,0.0882700309157372
5,1.06250005399193,-0.202777789496344,0.0708333340964038,0.137139245867729,-0.0949895456433296,0.0574213340878487
5,1.05555559457566,-0.180555567988136,0.0611111152255539,0.118813291192055,-0.0277943685650826,0.05283984541893
5,1.03750000009336,-0.156944454596674,0.055555559848502,0.0733038261532784,0.0455094613134861,0.0171042270958424
5,1.02777785415829,-0.141666668192807,0.0680555564078778,0.0565050356090069,0.0678060427308083,0.000916297896765172
5,1.02083339474202,-0.13750000469901,0.0777777813567098,0.01588249579072,0.0665843114256859,-0.0100792767480016
5,1.01805561097552,-0.130555557438704,0.0819444448505077,-0.011606439948082,0.0907134860754013,-0.0171042270958424
5,1.00972225967599,-0.133333341205212,0.0888888921108138,-0.0241291765123606,0.0812450796365738,-0.0198531206697226
5,1.00694447590948,-0.126388893944906,0.0986111170596459,-0.0323758572340012,0.0387899428606033,-0.00885754637420177
5,1.00694447590948,-0.134722233088466,0.0916666697993398,-0.00305432616733015,0.0201585534960032,0.013744467869401
5,1.00972225967599,-0.13750000469901,0.0819444448505077,-0.00824668072164059,0.0348193198442459,0.0250454749912024
5,1.0125000434425,-0.148611115453114,0.0722222259796579,-0.0244346093386412,0.0253509078174829,0.0229074470698834
5,1.01111115155925,-0.144444451959316,0.0750000036681839,-0.0113010071218014,-0.00122173049021512,0.00366519158706069
5,1.00555558402623,-0.113888891307548,0.0750000036681839,-0.0733038261532784,-0.0268780700862408,-0.0183259565383196
5,1.03750000009336,-0.104166672436698,0.0722222259796579,-0.172263994812965,0.013744467869401,-0.0342084541916847
5,1.05833337834217,-0.131944449321958,0.0847222225390337,-0.200363799929619,0.0882700309157372,-0.0122173046693206
5,1.04027778385987,-0.172222228844576,0.10972222781375,-0.133168622851372,0.125838235020638,0.0198531206697226
5,1.00972225967599,-0.180555567988136,0.134722233088466,-0.0891863256692886,0.0922406539320946,0.01191187184304
5,1.00972225967599,-0.193055558469529,0.131944449321958,-0.0623082555830479,0.102014496922493,0.0277943685650826
5,1.01944450285877,-0.195833342236038,0.125000002061652,-0.0390953756868839,0.0797179117798805,0.0342084541916847
5,1.01666671909226,-0.172222228844576,0.108333335930496,-0.0381790772080422,0.0555887371301651,0.0455094613134861
5,1.00277780025972,-0.150000007336368,0.0916666697993398,-0.0959058403968811,0.0561996027827263,0.0229074470698834
5,1.00000001649321,-0.144444451959316,0.113888891307548,-0.151800006628036,0.0684169083833694,0.00488692196086049
5,0.998611124609959,-0.154166670830166,0.125000002061652,-0.165849909186363,0.0452040284872055,-0.0167987942695618
5,1.00416669214298,-0.168055565350778,0.122222230451108,-0.127670839428902,0.0369573459029198,-0.0339030213654041
5,1.00416669214298,-0.170833336961321,0.12777778582816,-0.0610865242779255,0.0210748501121998,-0.0320704244077206
5,1.0125000434425,-0.166666673467524,0.120833338567854,-0.0045814891345799,-0.00702495034784079,-0.015577063895762
5,1.01805561097552,-0.163888889701015,0.111111119697004,0.0299323964864016,-0.00305432616733015,-0.000305432622553781
5,1.01388893532575,-0.161111118090472,0.105555564319952,0.0335975885391235,0.0100792767480016,0.00549778714776039
5,1.01527782720901,-0.159722226207217,0.111111119697004,0.0357356183230877,-0.0183259565383196,-0.00366519158706069
5,1.01666671909226,-0.16527778158427,0.118055554801345,0.0549778714776039,-0.0241291765123606,-0.000305432622553781
5,1.01666671909226,-0.16527778158427,0.118055554801345,0.0565050356090069,-0.00549778714776039,0.00183259579353034
5,1.01944450285877,-0.156944454596674,0.106944444047242,0.0561996027827263,-0.00549778714776039,-0.000610865245107561
5,1.01111115155925,-0.151388899219622,0.118055554801345,0.0558941699564457,-0.0262672062963247,-0.0109955742955208
5,1.01944450285877,-0.158333334323963,0.108333335930496,0.064446285367012,-0.0180205255746841,0.00366519158706069
5,1.01944450285877,-0.162500009973726,0.105555564319952,0.0726929605007172,0.0125227374956012,0.00977384392172098
5,1.02083339474202,-0.170833336961321,0.113888891307548,0.0855211317539215,0.0171042270958424,0.00733038317412138
5,1.02083339474202,-0.170833336961321,0.113888891307548,0.0977384373545647,0.00580321997404099,-0.0192422550171614
5,1.00277780025972,-0.156944454596674,0.111111119697004,0.111788339912891,-0.0537561401724815,-0.0198531206697226
5,1.00416669214298,-0.140277788465518,0.111111119697004,0.0800233483314514,-0.0467311926186085,0.00610865233466029
5,1.03750000009336,-0.134722233088466,0.0972222251763917,0.0442877300083637,0.0280998013913631,-0.00977384392172098
5,1.0333333244436,-0.14722222356986,0.115277783190802,0.0583376325666905,0.0277943685650826,-0.0222965814173222
5,1.02083339474202,-0.14722222356986,0.126388893944906,0.0882700309157372,0.00152716308366507,-0.0113010071218014
5,1.01666671909226,-0.141666668192807,0.12777778582816,0.0916297882795334,0.0146607663482428,0.00916297826915979
5,1.01527782720901,-0.134722233088466,0.106944444047242,0.0601702257990837,0.0363464802503586,0.0021380283869803
5,1.0125000434425,-0.136111112815755,0.105555564319952,0.0360410511493683,0.0510072484612465,0.00305432616733015
5,1.0125000434425,-0.136111112815755,0.105555564319952,0.0247400421649218,0.0384845100343227,-0.00397062394768
5,1.0125000434425,-0.138888896582264,0.116666675074056,0.0183259565383196,0.00855211354792118,-0.00366519158706069
5,1.0125000434425,-0.138888896582264,0.116666675074056,0.00885754637420177,-0.00549778714776039,0.00977384392172098
5,1.0125000434425,-0.143055560076062,0.111111119697004,-0.011606439948082,-0.0131336031481624,0.00824668072164059
5,1.01944450285877,-0.14583334384257,0.115277783190802,-0.0167987942695618,-0.0180205255746841,0.01191187184304
5,1.00972225967599,-0.158333334323963,0.101388894748172,-0.000610865245107561,-0.0397062413394451,0.019547687843442
5,1.00972225967599,-0.158333334323963,0.116666675074056,0.00366519158706069,-0.0320704244077206,0.00549778714776039
5,1.01388893532575,-0.161111118090472,0.100000002864918,0.0192422550171614,-0.0244346093386412,0.00122173049021512
5,1.02222228662528,-0.170833336961321,0.101388894748172,0.0403171069920063,-0.0284052342176437,-0.00427605677396059
5,1.02638896227504,-0.162500009973726,0.0986111170596459,0.0537561401724815,-0.0143553335219622,-0.000305432622553781
5,1.02222228662528,-0.156944454596674,0.0902777839940679,0.0424551330506802,0.0045814891345799,0.00610865233466029
5,1.01527782720901,-0.14722222356986,0.0986111170596459,0.0427605658769607,-0.00549778714776039,0.0033597587607801
5,1.01388893532575,-0.156944454596674,0.100000002864918,0.064446285367012,-0.0186313893646002,0.0100792767480016
5,1.02083339474202,-0.159722226207217,0.100000002864918,0.0742201283574104,-0.00244346098043024,0.00763581553474069
5,1.01944450285877,-0.152777778946911,0.0958333393711199,0.0769690200686455,-0.00305432616733015,0.011606439948082
5,1.01111115155925,-0.148611115453114,0.102777780553444,0.0623082555830479,-0.0128281703218818,0.00885754637420177
5,1.01527782720901,-0.148611115453114,0.0972222251763917,0.0534507073462009,-0.0125227374956012,0.00824668072164059
5,1.02500007039179,-0.143055560076062,0.0986111170596459,0.0519235469400883,-0.00488692196086049,0.00488692196086049
5,1.02500007039179,-0.140277788465518,0.0972222251763917,0.0406225398182869,0.0045814891345799,-0.0021380283869803
5,1.02500007039179,-0.144444451959316,0.100000002864918,0.0381790772080422,0.00733038317412138,0.0149661982432008
5,1.03194452980806,-0.14583334384257,0.0875000002275597,0.0363464802503586,-0.00946841109544039,0.019547687843442
5,1.02916674604155,-0.148611115453114,0.0944444474878658,0.0268780700862408,-0.00580321997404099,0.0311541277915239
5,1.02777785415829,-0.152777778946911,0.0916666697993398,0.017409659922123,-0.0128281703218818,0.0287106670439243
5,1.02777785415829,-0.163888889701015,0.0861111144222878,0.00488692196086049,-0.00671951752156019,0.0113010071218014
5,1.01944450285877,-0.16527778158427,0.0902777839940679,0.0167987942695618,-0.00427605677396059,0.0164933614432812
5,1.0125000434425,-0.16527778158427,0.101388894748172,0.0259617734700441,-0.00855211354792118,0.01191187184304
5,1.00694447590948,-0.158333334323963,0.0875000002275597,0.0149661982432008,-0.00671951752156019,0.0177150927484035
5,1.00972225967599,-0.150000007336368,0.0902777839940679,0.00152716308366507,0.00549778714776039,0.017409659922123
5,1.00416669214298,-0.150000007336368,0.0875000002275597,-0.0131336031481624,-0.000610865245107561,0.0143553335219622
5,1.00277780025972,-0.14722222356986,0.0888888921108138,-0.0177150927484035,-0.00152716308366507,0.0122173046693206
5,1.00416669214298,-0.159722226207217,0.0930555616825939,-0.0177150927484035,0.00916297826915979,0.0131336031481624
5,1.00277780025972,-0.163888889701015,0.0902777839940679,-0.0180205255746841,0.00946841109544039,0.00183259579353034
5,1.00277780025972,-0.158333334323963,0.0847222225390337,-0.0100792767480016,-0.00610865233466029,0.00946841109544039
5,1.00972225967599,-0.156944454596674,0.0930555616825939,-0.00152716308366507,-0.0201585534960032,0.0113010071218014
5,1.0125000434425,-0.159722226207217,0.0958333393711199,0.00671951752156019,0.00580321997404099,0.0161879286170006
5,1.01944450285877,-0.161111118090472,0.104166672436698,0.00763581553474069,-0.00427605677396059,0.0146607663482428
5,1.01527782720901,-0.159722226207217,0.0916666697993398,0.00366519158706069,-0.00122173049021512,0.021685715764761
5,1.01527782720901,-0.163888889701015,0.0958333393711199,0.00549778714776039,0.00549778714776039,0.0125227374956012
5,1.01527782720901,-0.163888889701015,0.0944444474878658,0.0134390350431204,0.0140499006956816,0.00488692196086049
5,1.01388893532575,-0.162500009973726,0.0986111170596459,0.0177150927484035,0.0140499006956816,-0.00733038317412138
5,1.01944450285877,-0.156944454596674,0.104166672436698,0.0207694191485643,0.0250454749912024,-0.0100792767480016
5,1.02083339474202,-0.154166670830166,0.0972222251763917,0.015577063895762,0.0229074470698834,-0.00702495034784079
5,1.01944450285877,-0.150000007336368,0.105555564319952,0.0171042270958424,0.0222965814173222,-0.00763581553474069
5,1.02361117850853,-0.152777778946911,0.104166672436698,0.0204639863222837,0.00549778714776039,-0.00122173049021512
5,1.02500007039179,-0.154166670830166,0.111111119697004,0.0235183127224445,-0.0106901414692402,0.00244346098043024
5,1.01944450285877,-0.150000007336368,0.105555564319952,0.0219911485910416,-0.0113010071218014,0.00885754637420177
5,1.02222228662528,-0.156944454596674,0.102777780553444,0.0204639863222837,-0.00519235478714108,0.0109955742955208
5,1.02083339474202,-0.159722226207217,0.102777780553444,0.0229074470698834,0.00305432616733015,0.00671951752156019
5,1.01944450285877,-0.154166670830166,0.101388894748172,0.0222965814173222,0.0143553335219622,0.0100792767480016
5,1.01944450285877,-0.15555556271342,0.106944444047242,0.00946841109544039,0.0256563406437635,0.00366519158706069
5,1.01805561097552,-0.150000007336368,0.111111119697004,0.00794124789535999,0.0146607663482428,0.00855211354792118
5,1.01527782720901,-0.14722222356986,0.105555564319952,0.00397062394768,0.00733038317412138,0.0222965814173222
5,1.01666671909226,-0.154166670830166,0.105555564319952,0.00183259579353034,0.0128281703218818,0.019547687843442
5,1.01527782720901,-0.15555556271342,0.0972222251763917,-0.00610865233466029,0.0100792767480016,0.0189368221908808
5,1.01527782720901,-0.159722226207217,0.105555564319952,-0.00610865233466029,0.0134390350431204,0.0113010071218014
5,1.02083339474202,-0.166666673467524,0.10972222781375,-0.00183259579353034,0.0204639863222837,0.00671951752156019
5,1.01527782720901,-0.16527778158427,0.106944444047242,0.00152716308366507,0.0290160998702049,0.0045814891345799
5,1.01527782720901,-0.16527778158427,0.106944444047242,0.0192422550171614,-0.00122173049021512,-0.00305432616733015
5,1.01944450285877,-0.15555556271342,0.118055554801345,0.00549778714776039,0.0122173046693206,0.00397062394768
5,1.02083339474202,-0.156944454596674,0.113888891307548,0.0180205255746841,0.0293215326964855,0.00488692196086049
5,1.0125000434425,-0.158333334323963,0.116666675074056,0.00641408516094089,0.0171042270958424,0.00641408516094089
5,1.01111115155925,-0.152777778946911,0.1194444466846,0.0033597587607801,0.011606439948082,0.0100792767480016
5,1.00972225967599,-0.154166670830166,0.113888891307548,-0.00305432616733015,0.0103847095742822,0.0100792767480016
5,1.01527782720901,-0.156944454596674,0.108333335930496,-0.00610865233466029,0.0103847095742822,-0.000305432622553781
5,1.01527782720901,-0.152777778946911,0.10972222781375,-0.00610865233466029,0.0146607663482428,-0.00671951752156019
5,1.01666671909226,-0.154166670830166,0.111111119697004,0.00427605677396059,0.0131336031481624,0.0027488935738802
5,1.01944450285877,-0.158333334323963,0.108333335930496,0.000916297896765172,0.0131336031481624,0.00152716308366507
5,1.02222228662528,-0.158333334323963,0.106944444047242,0.00244346098043024,0.0113010071218014,0.00244346098043024
5,1.02500007039179,-0.162500009973726,0.111111119697004,-0.0033597587607801,0.0103847095742822,0.00397062394768
5,1.01944450285877,-0.158333334323963,0.112499999424294,-0.00549778714776039,0.00427605677396059,-0.00397062394768
5,1.02222228662528,-0.162500009973726,0.108333335930496,-0.00549778714776039,-0.00488692196086049,0.000916297896765172
5,1.01805561097552,-0.15555556271342,0.0986111170596459,-0.00977384392172098,-0.0204639863222837,-0.00855211354792118
5,1.01944450285877,-0.161111118090472,0.0944444474878658,-0.00794124789535999,-0.0106901414692402,-0.00397062394768
5,1.01666671909226,-0.156944454596674,0.101388894748172,-0.00763581553474069,0.0164933614432812,-0.00671951752156019
5,1.01666671909226,-0.159722226207217,0.102777780553444,-0.00977384392172098,0.01191187184304,0.0045814891345799
5,1.00972225967599,-0.154166670830166,0.111111119697004,-0.00977384392172098,0.00824668072164059,0.0183259565383196
5,1.00000001649321,-0.144444451959316,0.113888891307548,-0.0204639863222837,-0.00580321997404099,0.0311541277915239
5,1.00138890837647,-0.138888896582264,0.125000002061652,-0.0332921557128429,-0.0204639863222837,0.0403171069920063
