Activity,acc_x,acc_y,acc_z,gyro_x,gyro_y,gyro_z
0,0.345833349572405,0.0611111152255539,0.94305554652751,0.0797179117798805,-0.109039448201656,0.0925460830330849
0,0.348611133338914,0.0583333375370279,0.929166724942685,0.0207694191485643,-0.129197999835014,0.0821613743901253
0,0.340277782039389,0.0611111152255539,0.926388941176177,-0.00366519158706069,-0.0897971913218498,0.0781907513737679
0,0.355555568443255,0.0583333375370279,0.92083337364316,-0.0345138870179653,-0.120035022497177,0.0748309940099716
0,0.356944460326509,0.0513888902767219,0.904166671044111,-0.000305432622553781,-0.102014496922493,0.0775798857212067
0,0.356944460326509,0.0583333375370279,0.913888914226889,0.0277943685650826,-0.0937678143382072,0.0604756586253643
0,0.363888895430851,0.055555559848502,0.915277806110144,0.0488692186772823,-0.113010071218014,0.0510072484612465
0,0.373611114301701,0.0513888902767219,0.926388941176177,0.0699440687894821,-0.0815505087375641,0.0387899428606033
0,0.369444462963867,0.0708333340964038,0.940277860008718,0.117591559886932,-0.0531452745199203,0.0186313893646002
0,0.363888895430851,0.0722222259796579,0.936111184358955,0.138055548071861,0.01588249579072,0.0149661982432008
0,0.351388892793493,0.0763888894734557,0.922222265526414,0.0946841165423393,-0.00702495034784079,0.0519235469400883
0,0.344444457689151,0.0819444448505077,0.923611157409668,0.0855211317539215,-0.0348193198442459,0.0653625801205635
0,0.363888895430851,0.0708333340964038,0.913888914226889,0.0571159012615681,-0.0494800843298435,0.0757472887635231
0,0.370833354847121,0.0666666706026059,0.912500022343635,0.0690277740359306,-0.0143553335219622,0.0497855171561241
0,0.361111135976272,0.0750000036681839,0.93750007624221,0.15332718193531,0.0189368221908808,0.0543670058250427
0,0.361111135976272,0.0750000036681839,0.93750007624221,0.194560587406159,0.0849102661013603,0.0852157026529312
0,0.359722244093018,0.0805555590452358,0.916666697993398,0.202501833438873,0.0910189226269722,0.096211276948452
0,0.359722244093018,0.0805555590452358,0.916666697993398,0.0833831056952477,0.0513126812875271,0.0910189226269722
0,0.373611114301701,0.0833333367337618,0.904166671044111,0.0152716310694814,0.037568211555481,0.0913243517279625
0,0.361111135976272,0.0861111144222878,0.911111130460381,0.011606439948082,0.0345138870179653,0.118507854640484
0,0.354166676560001,0.0944444474878658,0.930555616825939,0.11117747426033,0.0577267669141293,0.152716308832169
0,0.358333352209763,0.0875000002275597,0.951388897827035,0.145385921001434,0.0491746515035629,0.181121543049812
0,0.368055571080613,0.0791666671619817,0.934722292475701,0.0956004112958908,0.00305432616733015,0.176845490932465
0,0.387500008822313,0.0680555564078778,0.934722292475701,0.0219911485910416,-0.0641408488154411,0.183259576559067
0,0.375000006184955,0.0750000036681839,0.933333400592447,0.00946841109544039,-0.159741267561913,0.172263994812965
0,0.369444462963867,0.0777777813567098,0.93750007624221,0.126143679022789,-0.115453533828259,0.170431405305862
0,0.363888895430851,0.0750000036681839,0.913888914226889,0.196393176913261,-0.0729983970522881,0.171042263507843
0,0.363888895430851,0.0750000036681839,0.913888914226889,0.210748508572578,0.00702495034784079,0.1750128865242
0,0.363888895430851,0.0736111117849297,0.899999995394348,0.164933621883392,-0.0326812900602817,0.183870434761047
0,0.379166681834717,0.0888888921108138,0.952777789710289,0.114537231624126,-0.0919352173805237,0.186924770474434
0,0.379166681834717,0.0888888921108138,0.952777789710289,0.133474051952362,-0.0601702257990837,0.166460782289505
0,0.376388898068209,0.0986111170596459,0.95000000594378,0.203723564743996,0.00152716308366507,0.164322748780251
0,0.368055571080613,0.100000002864918,0.926388941176177,0.266948103904724,-0.000916297896765172,0.175929188728332
0,0.372222246730376,0.0916666697993398,0.893055633225794,0.270613312721252,-0.0207694191485643,0.193033412098885
0,0.369444462963867,0.0861111144222878,0.880555606276507,0.203112691640854,-0.00397062394768,0.242818936705589
0,0.375000006184955,0.0944444474878658,0.904166671044111,0.18020524084568,-0.0171042270958424,0.259923160076141
0,0.386111116939059,0.0958333393711199,0.925000049292922,0.145691365003586,-0.0500909499824047,0.238542884588242
0,0.404166687109433,0.0958333393711199,0.94305554652751,0.112704634666443,-0.0372627787292004,0.177761793136597
0,0.409722230330521,0.0958333393711199,0.93750007624221,0.0919352173805237,-0.0314595587551594,0.154548913240433
0,0.365277787314105,0.108333335930496,0.926388941176177,0.0791070461273193,0.0354301854968071,0.187535628676414
0,0.368055571080613,0.108333335930496,0.915277806110144,0.0641408488154411,0.0971275717020035,0.189673662185669
0,0.380555573717971,0.0986111170596459,0.916666697993398,-0.0113010071218014,0.0253509078174829,0.16920967400074
0,0.383333357484479,0.0847222225390337,0.909722238577127,-0.0131336031481624,-0.027488935738802,0.196393176913261
0,0.384722225055805,0.0861111144222878,0.93750007624221,0.0739146918058395,-0.0729983970522881,0.191200822591782
0,0.387500008822313,0.0791666671619817,0.94305554652751,0.158214092254639,-0.0736092627048492,0.21685716509819
0,0.377777789951463,0.0847222225390337,0.923611157409668,0.16920967400074,-0.017409659922123,0.216246291995048
0,0.373611114301701,0.0763888894734557,0.904166671044111,0.120340451598167,-0.0522289797663689,0.233350530266762
0,0.384722225055805,0.0777777813567098,0.912500022343635,0.0943786799907684,-0.0794124826788902,0.22754730284214
0,0.391666684472075,0.0847222225390337,0.92083337364316,0.195171445608139,-0.0867428630590439,0.220522359013557
0,0.398611119576417,0.0902777839940679,0.916666697993398,0.300240278244019,-0.0140499006956816,0.184786736965179
0,0.397222227693163,0.0916666697993398,0.904166671044111,0.320704251527786,0.0561996027827263,0.168598800897598
0,0.408333338447267,0.0847222225390337,0.895833319744586,0.271529614925385,-0.00946841109544039,0.147523954510689
0,0.416666689746791,0.0819444448505077,0.906944454810619,0.265115529298782,-0.197614908218384,0.160046696662903
0,0.397222227693163,0.0986111170596459,0.948611114060526,0.363159388303757,-0.197614908218384,0.16920967400074
0,0.381944465601225,0.130555557438704,0.954166681593543,0.376598417758942,-0.0839939713478088,0.187535628676414
0,0.391666684472075,0.13750000469901,0.940277860008718,0.321620553731918,0.0351247526705265,0.18509216606617
0,0.405555578992687,0.1194444466846,0.89166674134254,0.187841057777405,-0.0671951770782471,0.16920967400074
0,0.411111122213775,0.112499999424294,0.858333336144441,0.0812450796365738,-0.123089343309402,0.177456349134445
0,0.404166687109433,0.106944444047242,0.876388930626744,0.0534507073462009,-0.132557764649391,0.184175878763199
0,0.390277792588821,0.115277783190802,0.893055633225794,0.0494800843298435,-0.0290160998702049,0.149356558918953
0,0.397222227693163,0.1194444466846,0.899999995394348,0.0671951770782471,-0.00122173049021512,0.119729585945606
0,0.423611149163062,0.111111119697004,0.899999995394348,0.129197999835014,-0.0678060427308083,0.0705549344420433
0,0.416666689746791,0.106944444047242,0.911111130460381,0.128587126731873,-0.011606439948082,0.0455094613134861
0,0.418055581630046,0.113888891307548,0.89166674134254,0.0598647929728031,0.0192422550171614,-0.00702495034784079
0,0.426388884305712,0.118055554801345,0.894444525109048,-0.00305432616733015,0.0140499006956816,-0.0558941699564457
0,0.443055586904762,0.115277783190802,0.92083337364316,-0.0626136884093285,-0.00366519158706069,-0.115453533828259
0,0.456944457113445,0.108333335930496,0.923611157409668,-0.107512280344963,-0.0678060427308083,-0.118813291192055
0,0.430555559955475,0.120833338567854,0.913888914226889,-0.0729983970522881,-0.0033597587607801,-0.058643065392971
0,0.401388903342925,0.138888896582264,0.893055633225794,-0.0555887371301651,0.0235183127224445,-0.0397062413394451
0,0.370833354847121,0.161111118090472,0.865277795560711,0.0100792767480016,0.0986547395586967,0.0830776765942574
0,0.404166687109433,0.151388899219622,0.836111163260091,-0.0369573459029198,0.141109868884087,0.0745255574584007
0,0.433333343721983,0.14583334384257,0.831944487610329,-0.0467311926186085,0.0693332031369209,0.118813291192055
0,0.433333343721983,0.130555557438704,0.870833363093728,-0.0794124826788902,-0.0458148941397667,0.128587126731873
0,0.388888900705567,0.0708333340964038,0.793055563503071,-0.210137650370598,-0.937678158283234,0.631023824214935
0,0.443055586904762,0.150000007336368,0.898611103511094,-0.226325571537018,-1.13559854030609,0.566882967948914
0,0.476388894855144,0.144444451959316,0.911111130460381,0.011606439948082,-0.131336033344269,0.271835029125214
0,0.479166678621653,0.12777778582816,0.823611136310804,-0.00671951752156019,0.199142068624496,0.210443079471588
0,0.430555559955475,0.120833338567854,0.82222224442755,-0.161573857069016,0.058643065392971,0.270307868719101
0,0.443055586904762,0.130555557438704,0.873611146860236,-0.126143679022789,-0.0268780700862408,0.392786353826523
0,0.451388889580428,0.126388893944906,0.884722281926269,-0.0919352173805237,-0.0152716310694814,0.441044718027115
0,0.473611111088636,0.106944444047242,0.812500049868629,-0.255036234855652,-0.110261179506779,0.498771458864212
0,0.473611111088636,0.106944444047242,0.812500049868629,-0.353996396064758,-0.142942473292351,0.503047525882721
0,0.490277813687686,0.0416666683668809,0.825000028194058,-0.398894995450974,-0.0992656052112579,0.499382346868515
0,0.454166673346937,0.0569444456537738,0.841666730793107,-0.31245756149292,-0.188451930880547,0.58704149723053
0,0.416666689746791,0.0777777813567098,0.856944444261187,-0.275805652141571,-0.330172657966614,0.768468499183655
0,0.452777781463682,0.0444444460554069,0.849999984844916,-0.28008171916008,-0.645073711872101,1.05099368095398
0,0.452777781463682,0.0444444460554069,0.849999984844916,-0.0394008085131645,-1.01464712619781,1.21653819084168
0,0.562499997121468,0.00277777787846293,0.880555606276507,0.118202425539494,-1.05465888977051,1.01189827919006
0,0.604166704995233,-0.055555559848502,0.854166660494678,0.0925460830330849,-1.03358399868011,0.894001305103302
0,0.513888927079148,-0.0152777788063885,0.801388914802596,0.0946841165423393,-0.86315256357193,0.819475710391998
0,0.513888927079148,-0.0152777788063885,0.801388914802596,0.0171042270958424,-0.479834645986557,0.947452008724213
0,0.426388884305712,0.0388888906783549,0.852777768611424,0.257174253463745,-0.300851136445999,0.891252398490906
0,0.519444445988306,-0.0194444453391775,0.84583340644287,0.329256355762482,-0.222965821623802,0.614225029945374
0,0.609722223904392,-0.0625000010308258,0.818055568777787,0.265420943498612,-0.35491269826889,0.554054796695709
0,0.530555581054339,-0.0208333341834404,0.812500049868629,0.553443908691406,-0.116980694234371,0.624304294586182
0,0.462500024646461,0.0347222241455659,0.870833363093728,0.903469681739807,0.115453533828259,0.656680166721344
0,0.498611116363352,0.0152777788063885,0.854166660494678,1.03602743148804,0.159435823559761,0.630412936210632
0,0.598611137462217,-0.0541666679652478,0.788888936477167,0.950811743736267,-0.478307485580444,0.58551436662674
0,0.693055591028065,-0.0805555590452358,0.795833347269579,1.10841500759125,-0.550084173679352,0.479834645986557
0,0.673611153286365,-0.0666666706026059,0.84583340644287,1.24860858917236,-0.283441483974457,0.478002041578293
0,0.609722223904392,-0.0194444453391775,0.797222239152834,1.1301007270813,-0.0626136884093285,0.600175082683563
0,0.643055580478633,0.0361111129898289,0.687500023495048,0.656985580921173,0.0186313893646002,1.16308736801148
0,0.759722255552688,-0.0180555564949145,0.643055580478633,0.193338856101036,-0.109039448201656,1.20829141139984
0,0.725000007095193,-0.00694444498106275,0.738888925927735,0.112093769013882,0.214413702487946,1.31824719905853
0,0.651388931778157,-0.0361111129898289,0.78333336894415,-0.0959058403968811,0.286801218986511,1.60657560825348
0,0.676388937052873,-0.0152777788063885,0.668055585753349,-0.408668845891953,-1.06473815441132,1.60627019405365
0,0.6319444454126,-0.0416666683668809,0.548611126912784,0.0222965814173222,-2.36221599578857,1.52899575233459
0,0.683333347845286,-0.0597222233422998,0.538888932353864,1.08947813510895,-3.64625453948975,1.08550751209259
0,0.754166688019672,-0.0111111115138517,0.591666678045946,1.78555905818939,-3.7415497303009,1.10291719436646
0,0.808333374218867,-0.0250000007162294,0.777777801411134,2.3933699131012,-2.80784201622009,1.27762460708618
0,0.877777822509998,-0.026388891079988,0.894444525109048,2.22996354103088,-1.57755947113037,1.49753618240356
0,0.972222276075846,0.00416666691266287,0.787500044593913,0.678976714611053,-2.13680672645569,1.60596477985382
0,0.927777833059431,-0.0152777788063885,0.634722229179108,-0.149967417120934,-3.41290402412415,1.75837564468384
0,0.80277780668585,-0.105555564319952,0.645833364245141,0.358883321285248,-3.73513555526733,1.61390602588654
0,0.793055563503071,-0.0944444474878658,0.647222256128395,0.914465248584747,-2.93734550476074,1.37261426448822
0,0.890277849459286,-0.033333335301303,0.543055559379768,0.825584352016449,-2.24340271949768,1.21165120601654
0,0.99583334084345,-0.0722222259796579,0.443055586904762,0.766635894775391,-2.47950196266174,1.12551915645599
0,1.00277780025972,-0.17361112072783,0.370833354847121,0.412334054708481,-3.94924378395081,1.08581292629242
0,0.89722221162784,-0.226388890731841,0.412500014097029,0.211664810776711,-3.51369690895081,1.42606496810913
0,0.854166660494678,-0.130555557438704,0.368055571080613,-0.0464257597923279,-2.42849469184875,1.51219689846039
0,0.931944508709193,-0.14583334384257,0.33750002258481,0.31703907251358,-1.95110356807709,0.889419794082642
0,0.94305554652751,-0.158333334323963,0.298611122789481,-0.92637711763382,-3.3490686416626,0.406836241483688
0,0.95000000594378,-0.233333350148112,0.356944460326509,-0.417220950126648,-1.32099604606628,0.64385199546814
0,0.94305554652751,-0.195833342236038,0.18333333959868,-0.451429426670075,-1.0012081861496,0.912327229976654
0,0.934722292475701,-0.237500001485945,0.0791666671619817,-0.00488692196086049,-1.21989786624908,0.822530031204224
0,0.987499989543926,-0.216666671860991,-0.00972222266958873,0.378125578165054,-1.81732416152954,0.353080123662949
0,1.05833337834217,-0.241666677135707,0.00972222266958873,0.683558225631714,-1.26968336105347,0.155159771442413
0,1.25277785300688,-0.331944455051793,0.308333341660331,-0.780685782432556,0.251371055841446,0.676533281803131
0,1.0902777944093,-0.341666673922643,-0.00555555575692586,-1.25471723079681,-1.4923437833786,0.63438355922699
0,1.0902777944093,-0.341666673922643,-0.00555555575692586,-0.896750152111053,-1.61787664890289,0.468533635139465
0,0.970833384192592,-0.323611128064198,-0.0222222230277034,-0.440128415822983,-0.897666454315186,0.134084925055504
0,0.938888968125464,-0.336111130701556,-0.0430555572111439,-0.0482583530247212,-0.532979905605316,-0.0775798857212067
0,0.956944465360051,-0.363888895430851,-0.0416666683668809,0.10567969083786,-0.459065228700638,-0.207083314657211
0,0.956944465360051,-0.363888895430851,-0.0416666683668809,0.237321153283119,-0.23243422806263,-0.342389971017838
0,0.940277860008718,-0.302777798439244,-0.0777777813567098,0.411723166704178,-0.291993588209152,-0.696080923080444
0,0.940277860008718,-0.302777798439244,-0.0777777813567098,0.676533281803131,0.166766211390495,-0.602923989295959
0,0.951388897827035,-0.286111120152123,-0.115277783190802,0.504574716091156,0.42363503575325,-0.422107875347138
0,1.06805562152495,-0.283333336385615,-0.140277788465518,-0.146607652306557,-0.0711658000946045,-0.199142068624496
0,1.06805562152495,-0.283333336385615,-0.140277788465518,-0.680503904819489,-0.444404453039169,-0.176540061831474
0,1.13611112930897,-0.262500006760661,-0.304166666010569,0.509156167507172,0.186008468270302,0.410196006298065
0,1.04305556762637,-0.177777784221628,-0.308333341660331,0.464563012123108,0.794124841690063,0.0717766657471657
0,1.08750001064279,-0.247222220356795,-0.170833336961321,0.160352125763893,0.846659243106842,-0.240375474095344
0,1.12499999424293,-0.250000004123303,-0.113888891307548,-0.131030589342117,0.434325188398361,-0.625831425189972
0,1.08750001064279,-0.243055569018962,-0.0875000002275597,-0.0632245540618896,0.215024560689926,-0.551611304283142
0,1.10138892947533,-0.179166676104882,-0.115277783190802,0.0442877300083637,0.24312436580658,-0.767552196979523
0,1.03472221632685,-0.176388892338373,-0.120833338567854,0.0381790772080422,0.289244681596756,-0.781296670436859
0,1.03472221632685,-0.176388892338373,-0.120833338567854,0.0128281703218818,0.261450320482254,-0.511294186115265
0,0.984722303025134,-0.247222220356795,-0.0666666706026059,0.00183259579353034,0.182037845253944,-0.24862214922905
0,0.984722303025134,-0.247222220356795,-0.0666666706026059,0.135917514562607,0.554360210895538,-1.01525807380676
0,0.984722303025134,-0.247222220356795,-0.0666666706026059,0.135917514562607,0.554360210895538,-1.01525807380676
0,0.984722303025134,-0.247222220356795,-0.0666666706026059,0.135917514562607,0.554360210895538,-1.01525807380676
0,0.984722303025134,-0.247222220356795,-0.0666666706026059,0.135917514562607,0.554360210895538,-1.01525807380676
0,0.984722303025134,-0.247222220356795,-0.0666666706026059,-0.0247400421649218,0.0922406539320946,0.136528387665749
0,0.984722303025134,-0.247222220356795,-0.0666666706026059,0.0448985956609249,-0.696080923080444,-0.246789559721947
0,0.984722303025134,-0.247222220356795,-0.0666666706026059,0.0448985956609249,-0.696080923080444,-0.246789559721947
0,0.984722303025134,-0.247222220356795,-0.0666666706026059,0.0448985956609249,-0.696080923080444,-0.246789559721947
0,0.984722303025134,-0.247222220356795,-0.0666666706026059,0.0448985956609249,-0.696080923080444,-0.246789559721947
0,0.984722303025134,-0.247222220356795,-0.0666666706026059,0.0448985956609249,-0.696080923080444,-0.246789559721947
0,0.984722303025134,-0.247222220356795,-0.0666666706026059,0.0448985956609249,-0.696080923080444,-0.246789559721947
0,0.984722303025134,-0.247222220356795,-0.0666666706026059,0.0616973899304867,-0.867123186588287,-0.328950941562653
0,1.10416671324184,-0.168055565350778,-0.120833338567854,0.0888808965682983,-0.676227807998657,0.134084925055504
0,1.0305556379248,-0.14722222356986,-0.14583334384257,0.107206851243973,-0.239764615893364,0.288328409194946
0,0.933333400592447,-0.0916666697993398,-0.156944454596674,0.10567969083786,0.247400417923927,0.542753756046295
0,0.933333400592447,-0.13750000469901,-0.14583334384257,0.037568211555481,0.650571465492249,0.690583169460297
0,0.93750007624221,-0.18333333959868,-0.125000002061652,0.122173048555851,0.867428660392761,0.812756180763245
0,1.03194452980806,-0.211111128639904,-0.052777782159976,0.0800233483314514,0.502131223678589,0.756862044334412
0,1.10555560512509,-0.229166674498349,-0.00138888893923146,0.0907134860754013,0.0106901414692402,0.538783133029938
0,1.18055557232538,-0.261111114877407,-0.0388888906783549,-0.019547687843442,-0.171347707509995,0.106595985591412
0,1.09166668629255,-0.259722222994153,-0.0916666697993398,-0.0678060427308083,-0.0143553335219622,0.0284052342176437
0,1.03888889197661,-0.243055569018962,-0.111111119697004,-0.0415388382971287,0.206777885556221,0.0122173046693206
0,1.03888889197661,-0.25555557165632,-0.0847222225390337,-0.0595593601465225,-0.134084925055504,-0.0592539273202419
0,1.07916665934326,-0.243055569018962,-0.0833333367337618,-0.16371189057827,-0.207694187760353,-0.214719131588936
0,1.07777786470773,-0.230555566381603,-0.1194444466846,-0.0433714315295219,0.118202425539494,-0.318566232919693
0,1.01666671909226,-0.240277785252453,-0.108333335930496,0.0360410511493683,0.266337245702743,-0.161879286170006
0,0.898611103511094,-0.229166674498349,-0.033333335301303,-0.167987942695618,0.22785273194313,0.112093769013882
0,0.913888914226889,-0.200000005729836,-0.0222222230277034,-0.477391183376312,-0.171653136610985,0.0177150927484035
0,0.973611167959101,-0.284722228268869,-0.00972222266958873,0.013744467869401,-0.02382374368608,-0.0815505087375641
0,0.993055557076942,-0.272222225631511,-0.0763888894734557,0.0998764708638191,-0.0103847095742822,-0.207999616861343
0,0.987499989543926,-0.265277790527169,-0.0791666671619817,0.096211276948452,0.237626582384109,-0.266031801700592
0,0.915277806110144,-0.20138889761309,-0.0930555616825939,0.0390953756868839,0.394008070230484,-0.716850340366364
0,0.92083337364316,-0.218055563744246,-0.0166666676506515,0.0540615729987621,0.313373863697052,-0.797179162502289
0,1.09444447005906,-0.218055563744246,-0.0111111115138517,0.193338856101036,-0.015577063895762,-0.604756593704224
0,0.990277773310434,-0.180555567988136,0.00138888893923146,0.129503428936005,-0.267864406108856,-0.611781537532806
0,0.99583334084345,-0.144444451959316,-0.03194444645704,0.0604756586253643,-0.144164204597473,-0.401949346065521
0,1.09722225382557,-0.175000000455119,-0.0569444456537738,0.0549778714776039,-0.0491746515035629,-0.381485342979431
0,1.05555559457566,-0.176388892338373,-0.0583333375370279,0.0601702257990837,0.0241291765123606,-0.355829000473023
0,1.08750001064279,-0.161111118090472,-0.0722222259796579,0.0613919571042061,0.17440202832222,-0.228769034147263
0,0.962500032893068,-0.172222228844576,0.0125000003581147,0.0461203269660473,-0.0977384373545647,-0.119424156844616
0,1.09444447005906,-0.138888896582264,-0.0486111125881959,0.0131336031481624,-0.325591176748276,-0.114842668175697
0,1.0305556379248,-0.13750000469901,0.00555555575692586,0.139582708477974,-0.459065228700638,-0.148745685815811
0,1.05555559457566,-0.13750000469901,-0.108333335930496,0.0470366254448891,-0.231212496757507,-0.11606439948082
0,1.04305556762637,-0.156944454596674,-0.166666673467524,-0.239459171891212,0.353996396064758,-0.164933621883392
0,1.04722224327614,-0.0861111144222878,-0.00972222266958873,-0.112093769013882,0.387593984603882,0.00152716308366507
0,1.00972225967599,-0.125000002061652,-0.0111111115138517,0.0922406539320946,0.24312436580658,0.0287106670439243
0,1.00833336779274,-0.118055554801345,-0.0111111115138517,0.0363464802503586,0.12156218290329,0.015577063895762
0,1.00694447590948,-0.1194444466846,0.0194444453391775,0.00885754637420177,-0.162795588374138,-0.02382374368608
0,1.01527782720901,-0.12777778582816,-0.0194444453391775,0.00763581553474069,-0.188757359981537,0.0021380283869803
0,1.0333333244436,-0.123611110178398,-0.0583333375370279,-0.0235183127224445,-0.0797179117798805,0.0152716310694814
0,1.0333333244436,-0.1194444466846,-0.0597222233422998,-0.00305432616733015,-0.0629191175103188,0.0384845100343227
0,1.02777785415829,-0.136111112815755,-0.0652777787193518,0.0244346093386412,-0.0250454749912024,0.0262672062963247
0,1.02083339474202,-0.138888896582264,-0.0541666679652478,0.0171042270958424,0.0342084541916847,0.00152716308366507
0,1.01944450285877,-0.131944449321958,-0.0694444482911319,0.0271835029125214,0.142331600189209,-0.0146607663482428
0,1.02222228662528,-0.126388893944906,-0.0486111125881959,0.0467311926186085,0.16951510310173,-0.0164933614432812
0,0.973611167959101,-0.125000002061652,-0.0708333340964038,0.0482583530247212,0.230907067656517,0.0662788823246956
0,1.05694448645892,-0.143055560076062,-0.0347222241455659,0.0849102661013603,0.0561996027827263,0.00519235478714108
0,1.00833336779274,-0.130555557438704,-0.0486111125881959,0.013744467869401,0.03176499158144,-0.0320704244077206
0,1.00277780025972,-0.112499999424294,-0.0416666683668809,-0.0106901414692402,0.0427605658769607,0.01191187184304
0,1.04027778385987,-0.17361112072783,-0.0625000010308258,0.0186313893646002,0.0998764708638191,0.0284052342176437
0,1.03194452980806,-0.151388899219622,-0.0472222237439329,0.0152716310694814,0.122783914208412,0.0397062413394451
0,1.01527782720901,-0.120833338567854,-0.00138888893923146,0.100181899964809,-0.00183259579353034,0.0152716310694814
0,1.0305556379248,-0.12777778582816,-0.0375000018340919,0.0439822971820831,0.019547687843442,-0.0033597587607801
0,1.01111115155925,-0.120833338567854,-0.00833333382532574,0.0546724386513233,-0.0146607663482428,0.00671951752156019
0,1.05000002704265,-0.150000007336368,-0.0430555572111439,0.0235183127224445,-0.0946841165423393,-0.000610865245107561
0,1.02916674604155,-0.140277788465518,-0.0666666706026059,-0.0766635909676552,0.0607810914516449,0.0329867228865623
0,1.02916674604155,-0.140277788465518,-0.0666666706026059,-0.0616973899304867,0.203112691640854,0.366824567317963
0,0.905555562927365,-0.113888891307548,-0.0416666683668809,-0.0134390350431204,0.188451930880547,0.487470477819443
0,1.02777785415829,-0.168055565350778,-0.0250000007162294,-0.0332921557128429,0.0470366254448891,0.372627794742584
0,1.07916665934326,-0.186111123365188,-0.0125000003581147,-0.00916297826915979,-0.0855211317539215,0.199752941727638
0,0.986111194908388,-0.168055565350778,-0.055555559848502,-0.0546724386513233,-0.0204639863222837,0.346666038036346
0,1.00277780025972,-0.16527778158427,-0.0472222237439329,-0.0308486949652433,0.106901414692402,0.429438263177872
0,1.00277780025972,-0.16527778158427,-0.0472222237439329,-0.00855211354792118,0.26419922709465,0.675006091594696
0,1.01527782720901,-0.198611113846581,-0.052777782159976,0.0418442711234093,0.318260788917542,0.516181111335754
0,0.877777822509998,-0.170833336961321,0.00972222266958873,-0.000916297896765172,0.250149309635162,0.478307485580444
0,1.11527784830787,-0.25555557165632,0.0250000007162294,-0.00366519158706069,0.113926365971565,0.0635299831628799
0,1.04861113515939,-0.238888893369199,0.0194444453391775,0.0711658000946045,-0.0339030213654041,-0.0800233483314514
0,1.11666674019113,-0.223611131277262,-0.0416666683668809,-0.000610865245107561,-0.0287106670439243,-0.165544480085373
0,0.95000000594378,-0.204166669223633,-0.00277777787846293,-0.128892570734024,0.166460782289505,-0.318260788917542
0,0.95000000594378,-0.204166669223633,-0.00277777787846293,-0.0329867228865623,0.256257981061935,-0.244040668010712
0,1.0305556379248,-0.186111123365188,-0.026388891079988,0.0580321997404099,0.278554558753967,0.0339030213654041
0,1.04861113515939,-0.208333344873396,0.0194444453391775,0.108428582549095,0.205250725150108,0.0253509078174829
0,1.04861113515939,-0.208333344873396,0.0194444453391775,0.0467311926186085,0.182648703455925,-0.0314595587551594
0,1.01388893532575,-0.181944447715425,-0.00555555575692586,-0.0641408488154411,0.377820163965225,0.0213802829384804
0,1.00833336779274,-0.181944447715425,0.00277777787846293,-0.0678060427308083,0.527176678180695,0.0561996027827263
0,1.04444445950963,-0.187500003092477,0.0250000007162294,-0.00733038317412138,0.431270867586136,-0.0323758572340012
0,1.00416669214298,-0.190277786858986,0.0597222233422998,0.0571159012615681,0.335670441389084,-0.0653625801205635
0,0.973611167959101,-0.197222234119292,0.0486111125881959,0.0335975885391235,0.413861215114594,0.00824668072164059
0,0.96666670854283,-0.170833336961321,0.0402777795226179,-0.0812450796365738,0.427300244569778,-0.201280102133751
0,1.14444448060849,-0.216666671860991,0.0361111129898289,-0.0592539273202419,0.402865618467331,-0.344833433628082
0,1.08333333499303,-0.197222234119292,0.0750000036681839,-0.000610865245107561,0.236404851078987,-0.363159388303757
0,1.05694448645892,-0.193055558469529,0.0847222225390337,0.0299323964864016,0.149967417120934,-0.277027398347855
0,1.04861113515939,-0.154166670830166,0.0708333340964038,-0.0232128798961639,0.219911485910416,-0.127976268529892
0,1.04444445950963,-0.15555556271342,0.0708333340964038,-0.04764748737216,0.176234617829323,-0.0659734457731247
0,1.01666671909226,-0.156944454596674,0.100000002864918,-0.0262672062963247,0.0149661982432008,-0.101709060370922
0,1.02083339474202,-0.14722222356986,0.0888888921108138,0.0106901414692402,0.0448985956609249,-0.0335975885391235
0,1.01805561097552,-0.143055560076062,0.0847222225390337,-0.0384845100343227,0.0888808965682983,-0.0497855171561241
0,1.01388893532575,-0.152777778946911,0.0833333367337618,-0.0519235469400883,0.0986547395586967,-0.0348193198442459
0,1.01805561097552,-0.161111118090472,0.0763888894734557,-0.0455094613134861,0.0821613743901253,-0.0354301854968071
0,1.02361117850853,-0.176388892338373,0.0861111144222878,-0.0277943685650826,0.037568211555481,-0.0482583530247212
0,1.01666671909226,-0.168055565350778,0.100000002864918,-0.0424551330506802,0.12705996632576,-0.017409659922123
0,1.02083339474202,-0.138888896582264,0.0819444448505077,-0.0629191175103188,0.145080491900444,-0.029626963660121
0,1.01527782720901,-0.154166670830166,0.0958333393711199,-0.0201585534960032,0.019547687843442,-0.0623082555830479
0,1.01388893532575,-0.163888889701015,0.104166672436698,0.0186313893646002,-0.137750118970871,-0.0806342139840126
0,1.01111115155925,-0.162500009973726,0.102777780553444,0.136222943663597,-0.22204951941967,-0.000916297896765172
0,1.00555558402623,-0.141666668192807,0.0986111170596459,0.0552833043038845,-0.115758962929249,-0.00305432616733015
0,1.02777785415829,-0.140277788465518,0.0597222233422998,-0.017409659922123,0.02382374368608,0.0323758572340012
0,1.0361111082101,-0.14722222356986,0.0597222233422998,-0.00366519158706069,0.0513126812875271,0.05283984541893
0,1.02916674604155,-0.154166670830166,0.0819444448505077,0.103236228227615,-0.0226020142436027,0.0461203269660473
0,1.01527782720901,-0.16527778158427,0.0972222251763917,0.175318330526352,-0.120645888149738,0.0335975885391235
0,0.993055557076942,-0.166666673467524,0.0986111170596459,0.197309479117393,-0.186313897371292,0.0458148941397667
0,1.00972225967599,-0.163888889701015,0.0777777813567098,-0.00427605677396059,-0.162184715270996,0.0910189226269722
0,1.03194452980806,-0.144444451959316,0.0569444456537738,-0.0852157026529312,-0.172263994812965,0.0708603709936142
0,1.04305556762637,-0.151388899219622,0.0638888929140799,-0.0262672062963247,-0.242208063602448,0.0797179117798805
0,1.02361117850853,-0.166666673467524,0.0819444448505077,0.08460483700037,-0.44348818063736,0.0339030213654041
0,1.00972225967599,-0.180555567988136,0.0861111144222878,0.198836639523506,-0.514653980731964,-0.0149661982432008
0,1.00555558402623,-0.159722226207217,0.0430555572111439,0.309403240680695,-0.291382730007172,0.0357356183230877
0,1.02916674604155,-0.166666673467524,0.0111111115138517,0.195476874709129,-0.0448985956609249,0.0510072484612465
0,1.02916674604155,-0.166666673467524,0.0111111115138517,0.0678060427308083,0.136833816766739,-0.00977384392172098
0,1.04027778385987,-0.156944454596674,0.0194444453391775,-0.0045814891345799,0.22174409031868,-0.0262672062963247
0,1.02500007039179,-0.148611115453114,0.052777782159976,0.0128281703218818,0.185703039169311,0.0033597587607801
0,1.02500007039179,-0.14583334384257,0.0500000014324589,-0.0897971913218498,0.149051114916802,0.0113010071218014
0,1.01527782720901,-0.170833336961321,0.0513888902767219,-0.137750118970871,0.160046696662903,0.0204639863222837
0,1.01111115155925,-0.154166670830166,-0.0402777795226179,-0.204334422945976,0.376903861761093,0.0439822971820831
0,1.0305556379248,-0.161111118090472,0.0847222225390337,-0.132863193750381,0.301767438650131,-0.0421497002243996
0,1.03888889197661,-0.163888889701015,0.0777777813567098,-0.0620028227567673,0.241597205400467,-0.017409659922123
0,1.00972225967599,-0.161111118090472,0.0916666697993398,-0.113620936870575,-0.00244346098043024,-0.00641408516094089
0,1.01666671909226,-0.163888889701015,0.0722222259796579,-0.0571159012615681,-0.0351247526705265,0.00977384392172098
0,1.02222228662528,-0.163888889701015,0.0750000036681839,-0.0485637858510017,0.0284052342176437,0.0271835029125214
0,1.01944450285877,-0.180555567988136,0.0944444474878658,0.0571159012615681,0.0500909499824047,0.00733038317412138
0,1.01805561097552,-0.176388892338373,0.0986111170596459,-0.000610865245107561,0.0183259565383196,-0.00671951752156019
0,1.02222228662528,-0.170833336961321,0.0819444448505077,0.00366519158706069,0.0305432621389627,-0.0021380283869803
0,1.02361117850853,-0.175000000455119,0.0819444448505077,0.0161879286170006,0.0522289797663689,0.0131336031481624
0,1.01805561097552,-0.169444445078067,0.0833333367337618,0.0213802829384804,0.0497855171561241,0.000305432622553781
0,1.01944450285877,-0.169444445078067,0.0805555590452358,0.0226020142436027,0.0436768643558025,0.00946841109544039
0,1.01944450285877,-0.161111118090472,0.0777777813567098,0.015577063895762,0.0626136884093285,0.0259617734700441
0,1.01944450285877,-0.161111118090472,0.0777777813567098,0.0106901414692402,0.0830776765942574,0.0262672062963247
0,1.0125000434425,-0.161111118090472,0.0777777813567098,-0.00427605677396059,0.05283984541893,0.0021380283869803
0,1.00972225967599,-0.17361112072783,0.0916666697993398,-0.00824668072164059,0.0128281703218818,-0.015577063895762
0,1.01666671909226,-0.180555567988136,0.0847222225390337,0.00763581553474069,0.0210748501121998,-0.0259617734700441
0,1.01666671909226,-0.180555567988136,0.0847222225390337,0.017409659922123,0.0311541277915239,-0.0284052342176437
0,1.05416670269241,-0.20138889761309,0.0847222225390337,0.00397062394768,0.0259617734700441,-0.0671951770782471
0,1.02500007039179,-0.161111118090472,0.0847222225390337,0.0482583530247212,0.0824668109416962,-0.0998764708638191
0,1.02500007039179,-0.161111118090472,0.0847222225390337,0.0372627787292004,0.0571159012615681,-0.110566608607769
0,1.00555558402623,-0.161111118090472,0.102777780553444,0.0366519130766392,0.015577063895762,-0.0418442711234093
0,1.00833336779274,-0.130555557438704,0.102777780553444,0.0387899428606033,-0.0445931628346443,0.0705549344420433
0,1.00833336779274,-0.130555557438704,0.102777780553444,0.0146607663482428,-0.0558941699564457,0.11117747426033
0,1.01944450285877,-0.134722233088466,0.0916666697993398,-0.00824668072164059,-0.0378736443817616,0.0855211317539215
0,1.02083339474202,-0.169444445078067,0.0777777813567098,0.0027488935738802,0.0106901414692402,0.00305432616733015
0,1.02083339474202,-0.169444445078067,0.0777777813567098,0.0277943685650826,0.00946841109544039,0.0140499006956816
0,1.01527782720901,-0.158333334323963,0.0888888921108138,0.00946841109544039,-0.000305432622553781,0.0201585534960032
0,1.01805561097552,-0.158333334323963,0.0944444474878658,0.0027488935738802,0.0021380283869803,0.00733038317412138
0,1.02361117850853,-0.162500009973726,0.0777777813567098,-0.00733038317412138,0.0207694191485643,-0.0326812900602817
0,1.02083339474202,-0.161111118090472,0.0791666671619817,-0.0580321997404099,0.120035022497177,-0.122173048555851
0,1.0305556379248,-0.156944454596674,0.0666666706026059,0.0739146918058395,0.313679307699203,-0.0455094613134861
0,1.02638896227504,-0.168055565350778,0.0916666697993398,0.0302378293126821,0.161573857069016,-0.0668897479772568
0,1.04444445950963,-0.159722226207217,0.123611110178398,-0.000305432622553781,-0.134695783257484,-0.0852157026529312
0,0.962500032893068,-0.125000002061652,0.163888889701015,0.0632245540618896,-0.472198843955994,0.138666406273842
0,0.98888888142718,-0.111111119697004,0.113888891307548,-0.0412334054708481,-0.469449937343597,0.246178686618805
0,1.01944450285877,-0.118055554801345,0.0944444474878658,-0.0629191175103188,-0.478612929582596,0.256868839263916
0,1.0513889189259,-0.176388892338373,0.0583333375370279,-0.120035022497177,-0.302683740854263,0.106901414692402
0,1.06250005399193,-0.18333333959868,0.033333335301303,0.0366519130766392,-0.0464257597923279,0.0247400421649218
0,1.03194452980806,-0.180555567988136,0.0472222237439329,-0.0448985956609249,-0.0751364231109619,-0.0461203269660473
0,0.99583334084345,-0.170833336961321,0.0944444474878658,0.0503963828086853,-0.318260788917542,-0.0320704244077206
0,1.03194452980806,-0.179166676104882,0.0486111125881959,0.156992360949516,-0.252287358045578,-0.00305432616733015
0,1.03472221632685,-0.170833336961321,0.0847222225390337,0.22724187374115,-0.554054796695709,0.0332921557128429
0,1.02222228662528,-0.187500003092477,0.052777782159976,0.213802829384804,-0.499687761068344,0.0189368221908808
0,1.01111115155925,-0.17361112072783,0.0444444460554069,0.214108273386955,-0.400116741657257,-0.013744467869401
0,1.00972225967599,-0.169444445078067,0.0430555572111439,0.16951510310173,-0.539088606834412,-0.0204639863222837
0,1.00555558402623,-0.166666673467524,0.0208333341834404,0.104763388633728,-0.472198843955994,0.0152716310694814
0,1.00138890837647,-0.159722226207217,0.0444444460554069,0.129808858036995,-0.634688973426819,0.0668897479772568
0,1.0125000434425,-0.156944454596674,0.0250000007162294,0.130114302039146,-0.69913524389267,0.128281697630882
0,1.02638896227504,-0.162500009973726,-0.027777779924251,0.113926365971565,-0.581543684005737,0.117896988987923
0,1.02777785415829,-0.170833336961321,-0.0388888906783549,0.0412334054708481,-0.457843512296677,0.078801617026329
0,1.02222228662528,-0.172222228844576,-0.0430555572111439,0.0106901414692402,-0.377514719963074,0.0558941699564457
0,1.0333333244436,-0.176388892338373,-0.0569444456537738,0.00366519158706069,-0.239764615893364,0.0207694191485643
0,1.02222228662528,-0.188888894975731,-0.0402777795226179,0.0167987942695618,-0.207083314657211,-0.0125227374956012
0,1.01944450285877,-0.188888894975731,-0.0513888902767219,0.0879645943641663,-0.141109868884087,-0.0284052342176437
0,1.02638896227504,-0.194444450352783,-0.0611111152255539,0.0870482996106148,0.00733038317412138,-0.0415388382971287
0,1.0305556379248,-0.197222234119292,-0.0694444482911319,0.0959058403968811,0.170431405305862,-0.0708603709936142
0,1.03194452980806,-0.187500003092477,-0.055555559848502,0.0714712366461754,0.216246291995048,-0.0742201283574104
0,1.01944450285877,-0.16527778158427,-0.0388888906783549,0.0381790772080422,0.107206851243973,-0.0577267669141293
0,1.01944450285877,-0.16527778158427,-0.0388888906783549,-0.00977384392172098,0.13225232064724,-0.0128281703218818
0,1.02777785415829,-0.17361112072783,-0.0611111152255539,0.0516181141138077,0.193033412098885,0.0467311926186085
0,1.01944450285877,-0.161111118090472,-0.0583333375370279,0.0635299831628799,0.404087364673615,0.0620028227567673
0,1.04722224327614,-0.190277786858986,-0.0597222233422998,-0.00519235478714108,0.494800835847855,-0.0589484944939613
0,0.997222232726705,-0.166666673467524,0.0347222241455659,0.0665843114256859,0.100181899964809,0.000305432622553781
0,1.00972225967599,-0.169444445078067,-0.00138888893923146,0.0531452745199203,0.0772744566202164,-0.0280998013913631
0,1.02222228662528,-0.16527778158427,-0.026388891079988,0.0360410511493683,0.155159771442413,-0.0122173046693206
0,1.03194452980806,-0.168055565350778,-0.03194444645704,0.00305432616733015,0.239459171891212,-0.0360410511493683
0,1.01111115155925,-0.118055554801345,0.00555555575692586,0.00702495034784079,0.328034639358521,0.127670839428902
0,1.00694447590948,-0.14722222356986,0.0222222230277034,0.00824668072164059,0.193338856101036,0.081855945289135
0,1.02500007039179,-0.170833336961321,0.00972222266958873,-0.0106901414692402,-0.0198531206697226,0.0745255574584007
0,1.02500007039179,-0.190277786858986,-0.0180555564949145,-0.0604756586253643,0.0736092627048492,0.00855211354792118
0,1.01944450285877,-0.184722231481934,-0.00972222266958873,-0.0421497002243996,0.153632611036301,-0.0409279726445675
0,1.0361111082101,-0.177777784221628,-0.0250000007162294,-0.0723875313997269,0.360105067491531,-0.0623082555830479
0,1.0125000434425,-0.179166676104882,0.0888888921108138,0.03176499158144,0.00671951752156019,-0.0320704244077206
0,1.02222228662528,-0.161111118090472,0.0125000003581147,0.0152716310694814,0.0448985956609249,-0.0287106670439243
0,1.00972225967599,-0.156944454596674,-0.00555555575692586,0.0357356183230877,0.0448985956609249,0.08460483700037
0,1.02361117850853,-0.163888889701015,-0.0152777788063885,0.0335975885391235,0.16371189057827,0.0885754600167274
0,1.0333333244436,-0.179166676104882,0.0194444453391775,0.0305432621389627,0.131030589342117,-0.00519235478714108
0,1.01805561097552,-0.166666673467524,0.00694444498106275,-0.0021380283869803,0.156076073646545,-0.00610865233466029
0,1.00277780025972,-0.156944454596674,0.0513888902767219,-0.0488692186772823,0.416304677724838,0.11606439948082
0,0.99583334084345,-0.161111118090472,0.0444444460554069,-0.011606439948082,0.0739146918058395,0.154243469238281
0,1.04166667574312,-0.19166667874224,0.0194444453391775,-0.02382374368608,0.126143679022789,0.0656680166721344
0,1.03194452980806,-0.193055558469529,0.0152777788063885,-0.0369573459029198,0.150883719325066,-0.0507018156349659
0,0.991666665193688,-0.172222228844576,0.0111111115138517,-0.0387899428606033,0.0662788823246956,-0.0103847095742822
0,1.00277780025972,-0.166666673467524,0.0236111118719664,-0.127670839428902,0.237321153283119,0.0592539273202419
0,1.01944450285877,-0.175000000455119,0.0250000007162294,-0.0387899428606033,0.275805652141571,0.0687223374843597
0,1.02916674604155,-0.186111123365188,0.0486111125881959,-0.00733038317412138,0.211053937673569,0.0558941699564457
0,1.02916674604155,-0.186111123365188,0.0486111125881959,0.0232128798961639,0.00763581553474069,0.0222965814173222
0,1.00138890837647,-0.197222234119292,0.0763888894734557,0.0323758572340012,-0.0415388382971287,0.00183259579353034
0,0.99583334084345,-0.193055558469529,0.0680555564078778,0.0247400421649218,-0.02382374368608,-0.0161879286170006
0,1.01527782720901,-0.186111123365188,0.03194444645704,-0.0299323964864016,0.120035022497177,-0.00885754637420177
0,1.0361111082101,-0.17361112072783,0.0194444453391775,-0.0320704244077206,0.19578230381012,-0.0335975885391235
0,1.04444445950963,-0.184722231481934,0.0416666683668809,-0.0103847095742822,0.116980694234371,-0.0452040284872055
0,1.01111115155925,-0.17361112072783,0.0652777787193518,-0.0021380283869803,0.0418442711234093,-0.00366519158706069
0,1.00694447590948,-0.176388892338373,0.0625000010308258,-0.00427605677396059,0.0109955742955208,-0.00305432616733015
0,1.00972225967599,-0.177777784221628,0.0652777787193518,-0.0222965814173222,0.0406225398182869,-0.0134390350431204
0,1.02361117850853,-0.168055565350778,0.0472222237439329,-0.0696386396884918,0.18020524084568,-0.0164933614432812
0,1.0125000434425,-0.176388892338373,0.0722222259796579,-0.0540615729987621,0.0409279726445675,0.00427605677396059
0,1.00277780025972,-0.180555567988136,0.0777777813567098,0.017409659922123,-0.120951317250729,0.00885754637420177
0,1.00555558402623,-0.188888894975731,0.0805555590452358,0.0775798857212067,-0.173485726118088,0.0271835029125214
0,1.01666671909226,-0.190277786858986,0.0666666706026059,0.110261179506779,-0.138055548071861,0.01588249579072
0,1.06250005399193,-0.184722231481934,0.0138888899621255,0.0229074470698834,0.24342979490757,-0.0323758572340012
0,1.06250005399193,-0.170833336961321,0.00555555575692586,-0.0580321997404099,0.574518740177155,-0.0497855171561241
0,1.0361111082101,-0.187500003092477,0.0500000014324589,-0.143858760595322,0.562301456928253,-0.130419731140137
0,1.00416669214298,-0.197222234119292,0.106944444047242,-0.137750118970871,0.289550125598908,-0.149967417120934
0,0.99583334084345,-0.200000005729836,0.1194444466846,-0.114842668175697,0.0555887371301651,-0.176845490932465
0,1.00833336779274,-0.169444445078067,0.0680555564078778,-0.12156218290329,0.196087747812271,-0.119424156844616
0,1.00416669214298,-0.150000007336368,0.100000002864918,-0.0656680166721344,0.172263994812965,-0.0198531206697226
0,1.00138890837647,-0.170833336961321,0.120833338567854,-0.0778853222727776,-0.0146607663482428,-0.021685715764761
0,1.01527782720901,-0.187500003092477,0.0763888894734557,-0.0198531206697226,-0.0827722400426865,-0.0500909499824047
0,1.02916674604155,-0.175000000455119,0.0597222233422998,-0.131641462445259,0.0595593601465225,-0.0152716310694814
0,0.961111141009813,-0.122222230451108,0.120833338567854,-0.0830776765942574,-0.200363799929619,0.176540061831474
0,0.980555627375371,-0.134722233088466,0.123611110178398,-0.00488692196086049,-0.274278491735458,0.210748508572578
0,1.04305556762637,-0.195833342236038,0.0500000014324589,-0.0424551330506802,-0.0103847095742822,0.0348193198442459
0,1.05277781080915,-0.197222234119292,0.0500000014324589,-0.0406225398182869,0.257174253463745,-0.101709060370922
0,1.00555558402623,-0.206944452990142,0.1194444466846,0.106290549039841,0.117591559886932,-0.132557764649391
0,0.986111194908388,-0.172222228844576,0.111111119697004,0.0412334054708481,0.00885754637420177,-0.087659165263176
0,0.986111194908388,-0.172222228844576,0.111111119697004,0.0314595587551594,0.0387899428606033,0.0360410511493683
0,1.00000001649321,-0.151388899219622,0.0902777839940679,0.0167987942695618,0.0595593601465225,0.0558941699564457
0,1.00277780025972,-0.163888889701015,0.0916666697993398,0.0363464802503586,0.0326812900602817,0.00641408516094089
0,1.00833336779274,-0.180555567988136,0.0875000002275597,-0.00733038317412138,0.0733038261532784,-0.120951317250729
0,1.00972225967599,-0.168055565350778,0.100000002864918,-0.04764748737216,-0.0384845100343227,-0.103236228227615
0,1.00694447590948,-0.161111118090472,0.105555564319952,0.0339030213654041,-0.0329867228865623,0.0259617734700441
0,1.01944450285877,-0.14722222356986,0.122222230451108,0.0342084541916847,-0.0574213340878487,0.145996794104576
0,1.01111115155925,-0.170833336961321,0.0875000002275597,0.019547687843442,-0.0180205255746841,0.116980694234371
0,1.0361111082101,-0.190277786858986,0.0861111144222878,0.0720821022987366,0.0720821022987366,-0.182343274354935
0,1.02222228662528,-0.163888889701015,0.0750000036681839,-0.0580321997404099,-0.312152147293091,-0.0427605658769607
0,0.98888888142718,-0.118055554801345,0.0583333375370279,0.0226020142436027,0.118813291192055,0.186924770474434
0,0.990277773310434,-0.177777784221628,0.106944444047242,-0.0152716310694814,-0.326202034950256,0.0901026204228401
0,0.968055600426084,-0.154166670830166,0.141666668192807,-0.0561996027827263,-0.261755764484406,0.134084925055504
0,1.09861114570882,-0.175000000455119,0.0680555564078778,-0.0748309940099716,0.152716308832169,-0.0907134860754013
0,1.08472222687628,-0.202777789496344,0.052777782159976,-0.0696386396884918,0.291688144207001,-0.167377084493637
0,1.00833336779274,-0.177777784221628,0.0944444474878658,0.0931569486856461,0.0213802829384804,-0.070249505341053
0,0.959722249126559,-0.170833336961321,0.130555557438704,0.155159771442413,-0.184786736965179,0.0204639863222837
0,1.00833336779274,-0.138888896582264,0.0916666697993398,0.0913243517279625,-0.0919352173805237,0.0601702257990837
0,1.00972225967599,-0.152777778946911,0.0888888921108138,0.0867428630590439,-0.116675265133381,0.151494577527046
0,1.02916674604155,-0.179166676104882,0.0861111144222878,0.102319926023483,-0.0647517144680023,0.0598647929728031
0,1.0333333244436,-0.179166676104882,0.102777780553444,-0.0592539273202419,-0.118507854640484,-0.0131336031481624
0,0.990277773310434,-0.14722222356986,0.112499999424294,0.0925460830330849,-0.234572261571884,0.115453533828259
0,1.01111115155925,-0.161111118090472,0.0847222225390337,-0.00763581553474069,-0.186008468270302,0.0626136884093285
0,1.04861113515939,-0.18333333959868,0.055555559848502,-0.0113010071218014,0.0400116741657257,0.0100792767480016
0,1.0305556379248,-0.193055558469529,0.0583333375370279,-0.00397062394768,0.104457959532738,-0.0232128798961639
0,1.0305556379248,-0.177777784221628,0.0652777787193518,-0.114842668175697,0.155159771442413,-0.0714712366461754
0,1.00555558402623,-0.187500003092477,0.0597222233422998,-0.0943786799907684,0.187535628676414,0.0201585534960032
0,1.00000001649321,-0.175000000455119,0.0930555616825939,-0.0507018156349659,-0.0855211317539215,0.0128281703218818
0,1.00972225967599,-0.175000000455119,0.0819444448505077,-0.0995710343122482,-0.0665843114256859,0.0464257597923279
0,1.00833336779274,-0.170833336961321,0.0666666706026059,-0.0345138870179653,-0.0400116741657257,-0.00702495034784079
0,1.02500007039179,-0.170833336961321,0.0597222233422998,-0.0800233483314514,0.0314595587551594,-0.03176499158144
0,1.02777785415829,-0.170833336961321,0.0513888902767219,-0.0842994004487991,0.0894917547702789,-0.0473420582711697
0,0.983333411141879,-0.151388899219622,0.00694444498106275,0.0467311926186085,0.0742201283574104,0.0439822971820831
0,1.00694447590948,-0.184722231481934,0.0708333340964038,0.0671951770782471,0.0305432621389627,-0.0186313893646002
0,0.931944508709193,-0.18333333959868,0.0680555564078778,0.00122173049021512,0.328645497560501,-0.0626136884093285
0,0.976388951725609,-0.154166670830166,0.113888891307548,0.140499010682106,-0.0335975885391235,0.0128281703218818
0,1.02222228662528,-0.163888889701015,0.0777777813567098,-0.00702495034784079,-0.0339030213654041,0.0384845100343227
0,1.00694447590948,-0.16527778158427,0.0958333393711199,-0.0430659987032413,-0.0427605658769607,-0.00152716308366507
0,1.02361117850853,-0.148611115453114,0.0777777813567098,-0.0965167060494423,-0.0812450796365738,0.0580321997404099
0,1.01527782720901,-0.170833336961321,0.0944444474878658,-0.0513126812875271,-0.21135938167572,0.0207694191485643
0,1.00277780025972,-0.166666673467524,0.0916666697993398,-0.228463605046272,-0.0345138870179653,-0.0378736443817616
0,0.99583334084345,-0.176388892338373,0.100000002864918,-0.354607284069061,-0.164628177881241,-0.096211276948452
0,1.02777785415829,-0.176388892338373,0.0583333375370279,-0.226020142436027,-0.142637029290199,-0.0180205255746841
0,1.0361111082101,-0.193055558469529,0.0652777787193518,0.0149661982432008,0.0442877300083637,-0.000916297896765172
0,1.0125000434425,-0.197222234119292,0.0736111117849297,0.165849909186363,0.0320704244077206,0.0103847095742822
0,1.00277780025972,-0.170833336961321,0.0916666697993398,0.0797179117798805,-0.08460483700037,0.0552833043038845
0,1.01111115155925,-0.180555567988136,0.0777777813567098,-0.105068825185299,-0.167682513594627,0.0189368221908808
0,1.01944450285877,-0.18333333959868,0.0638888929140799,-0.0812450796365738,-0.113620936870575,0.00549778714776039
0,1.01944450285877,-0.197222234119292,0.0472222237439329,0.0167987942695618,-0.0824668109416962,0.0235183127224445
0,1.04861113515939,-0.20138889761309,0.0208333341834404,0.0400116741657257,0.0998764708638191,0.00488692196086049
0,1.04583335139288,-0.190277786858986,0.0486111125881959,-0.0882700309157372,0.141720741987228,-0.0757472887635231
0,1.04583335139288,-0.190277786858986,0.0486111125881959,-0.230907067656517,0.0103847095742822,-0.0140499006956816
0,0.984722303025134,-0.158333334323963,0.0916666697993398,-0.206777885556221,-0.253509074449539,0.0442877300083637
0,0.984722303025134,-0.158333334323963,0.0916666697993398,0.000610865245107561,-0.0992656052112579,0.0436768643558025
0,1.02500007039179,-0.18333333959868,0.0458333348996699,0.102319926023483,0.0351247526705265,0.00397062394768
0,1.03194452980806,-0.166666673467524,0.0541666679652478,0.0503963828086853,0.0354301854968071,-0.027488935738802
0,1.01388893532575,-0.152777778946911,0.0847222225390337,-0.0708603709936142,-0.0558941699564457,-0.0033597587607801
0,1.01388893532575,-0.152777778946911,0.0847222225390337,-0.00397062394768,-0.106901414692402,0.0287106670439243
0,1.01944450285877,-0.20138889761309,0.0388888906783549,0.131946891546249,-0.0213802829384804,0.0503963828086853
0,1.03750000009336,-0.231944458264858,0.026388891079988,0.30695977807045,0.142026171088219,-0.00488692196086049
0,1.03750000009336,-0.231944458264858,0.026388891079988,0.574824213981628,0.413555771112442,-0.0632245540618896
0,1.04166667574312,-0.229166674498349,0.0347222241455659,0.417220950126648,0.394924372434616,-0.10598511993885
0,1.00555558402623,-0.186111123365188,0.0805555590452358,0.150578290224075,0.11087204515934,-0.110261179506779
0,0.979166735492117,-0.136111112815755,0.113888891307548,0.0198531206697226,-0.129503428936005,-0.00885754637420177
0,0.987499989543926,-0.166666673467524,0.116666675074056,-0.236404851078987,-0.0827722400426865,0.136528387665749
0,1.08472222687628,-0.17361112072783,0.0986111170596459,0.131336033344269,0.143247902393341,0.0403171069920063
0,1.07777786470773,-0.168055565350778,0.0472222237439329,0.0394008085131645,0.412028610706329,-0.081855945289135
0,1.02222228662528,-0.169444445078067,0.0833333367337618,-0.0675006061792374,0.203418120741844,-0.0452040284872055
0,0.958333357243305,-0.170833336961321,0.108333335930496,0.0332921557128429,0.00885754637420177,0.00122173049021512
0,0.993055557076942,-0.16527778158427,0.102777780553444,0.0161879286170006,0.0189368221908808,-0.0021380283869803
0,1.01666671909226,-0.170833336961321,0.0888888921108138,0.00488692196086049,0.0736092627048492,-0.0265726372599602
0,1.01666671909226,-0.170833336961321,0.0916666697993398,0.00977384392172098,0.0445931628346443,-0.0271835029125214
0,1.01527782720901,-0.169444445078067,0.0958333393711199,0.0235183127224445,0.0265726372599602,-0.0152716310694814
0,1.01666671909226,-0.170833336961321,0.0888888921108138,0.0247400421649218,0.0332921557128429,-0.0204639863222837
0,1.01666671909226,-0.170833336961321,0.0916666697993398,0.0415388382971287,0.0445931628346443,-0.0213802829384804
0,1.01805561097552,-0.17361112072783,0.0916666697993398,0.0525344125926495,0.0513126812875271,-0.0247400421649218
0,1.01666671909226,-0.175000000455119,0.0847222225390337,0.0473420582711697,0.0485637858510017,-0.0134390350431204
0,1.01805561097552,-0.170833336961321,0.100000002864918,0.0455094613134861,0.0436768643558025,-0.0177150927484035
0,1.01527782720901,-0.175000000455119,0.0986111170596459,0.0507018156349659,0.037568211555481,-0.0161879286170006
0,1.01805561097552,-0.177777784221628,0.111111119697004,0.04764748737216,0.0381790772080422,-0.01588249579072
0,1.01527782720901,-0.179166676104882,0.101388894748172,0.0638354197144508,0.0580321997404099,-0.00824668072164059
0,1.01666671909226,-0.179166676104882,0.115277783190802,0.0855211317539215,0.0448985956609249,-0.00397062394768
0,1.01527782720901,-0.18333333959868,0.102777780553444,0.0952949747443199,0.0445931628346443,-0.01191187184304
0,1.01527782720901,-0.177777784221628,0.104166672436698,0.105374254286289,0.0452040284872055,-0.0167987942695618
0,1.01527782720901,-0.175000000455119,0.10972222781375,0.104763388633728,0.0299323964864016,0.00152716308366507
5,1.0125000434425,-0.176388892338373,0.105555564319952,0.112093769013882,0.0314595587551594,0.00671951752156019
5,1.01527782720901,-0.186111123365188,0.10972222781375,0.134390354156494,0.0339030213654041,0.00580321997404099
5,1.01527782720901,-0.184722231481934,0.105555564319952,0.150883719325066,0.0290160998702049,0.0189368221908808
5,1.00972225967599,-0.187500003092477,0.115277783190802,0.200974673032761,0.0134390350431204,0.0394008085131645
5,1.00694447590948,-0.19166667874224,0.116666675074056,0.249233022332191,0.0021380283869803,0.0439822971820831
5,1.00972225967599,-0.187500003092477,0.120833338567854,0.30695977807045,-0.0210748501121998,0.0494800843298435
5,1.01111115155925,-0.184722231481934,0.118055554801345,0.35430184006691,-0.0222965814173222,0.0604756586253643
5,1.0125000434425,-0.175000000455119,0.113888891307548,0.384234249591827,-0.0357356183230877,0.0494800843298435
5,1.01527782720901,-0.16527778158427,0.102777780553444,0.397367835044861,-0.0397062413394451,0.0448985956609249
5,1.01527782720901,-0.156944454596674,0.113888891307548,0.381485342979431,-0.0241291765123606,0.0284052342176437
5,1.01944450285877,-0.148611115453114,0.112499999424294,0.367435455322266,-0.0259617734700441,0.0244346093386412
5,1.01527782720901,-0.14722222356986,0.112499999424294,0.339335650205612,-0.0167987942695618,0.0140499006956816
5,1.01527782720901,-0.14583334384257,0.115277783190802,0.324369430541992,-0.00305432616733015,-0.00580321997404099
5,1.01527782720901,-0.133333341205212,0.111111119697004,0.299934834241867,0.00733038317412138,-0.0259617734700441
5,1.01805561097552,-0.12916666555545,0.126388893944906,0.254730820655823,0.000305432622553781,-0.0177150927484035
5,1.01527782720901,-0.123611110178398,0.118055554801345,0.221438646316528,-0.0167987942695618,-0.0204639863222837
5,1.02083339474202,-0.1194444466846,0.116666675074056,0.189062789082527,-0.00152716308366507,-0.0125227374956012
5,1.02083339474202,-0.115277783190802,0.120833338567854,0.143553331494331,0.00244346098043024,-0.0244346093386412
5,1.01111115155925,-0.113888891307548,0.120833338567854,0.121867619454861,-0.0213802829384804,-0.0131336031481624
5,1.0125000434425,-0.112499999424294,0.125000002061652,0.0971275717020035,-0.0464257597923279,0.0106901414692402
5,1.01944450285877,-0.104166672436698,0.118055554801345,0.0345138870179653,-0.0345138870179653,0.00885754637420177
5,1.01944450285877,-0.115277783190802,0.122222230451108,-0.0171042270958424,-0.0290160998702049,-0.00244346098043024
5,1.01805561097552,-0.123611110178398,0.111111119697004,-0.0690277740359306,-0.0293215326964855,-0.0149661982432008
5,1.02083339474202,-0.130555557438704,0.105555564319952,-0.112399205565453,-0.0198531206697226,-0.017409659922123
5,1.02500007039179,-0.144444451959316,0.108333335930496,-0.135917514562607,0.0167987942695618,-0.0244346093386412
5,1.01527782720901,-0.16527778158427,0.108333335930496,-0.122783914208412,0.00641408516094089,-0.0201585534960032
5,1.01111115155925,-0.17361112072783,0.118055554801345,-0.103236228227615,-0.0192422550171614,-0.0210748501121998
5,1.00416669214298,-0.17361112072783,0.123611110178398,-0.0558941699564457,-0.0311541277915239,-0.0192422550171614
5,1.00972225967599,-0.168055565350778,0.118055554801345,-0.0305432621389627,-0.0464257597923279,-0.00641408516094089
5,1.00277780025972,-0.161111118090472,0.12916666555545,-0.0152716310694814,-0.0491746515035629,0.0134390350431204
5,1.00277780025972,-0.159722226207217,0.134722233088466,0.0021380283869803,-0.0635299831628799,0.0262672062963247
5,1.00416669214298,-0.154166670830166,0.140277788465518,-0.0241291765123606,-0.0626136884093285,0.0323758572340012
5,1.01944450285877,-0.14583334384257,0.113888891307548,-0.0583376325666905,-0.0497855171561241,0.0265726372599602
5,1.02222228662528,-0.156944454596674,0.10972222781375,-0.0894917547702789,-0.000305432622553781,0.0271835029125214
5,1.01805561097552,-0.166666673467524,0.10972222781375,-0.117286130785942,0.0109955742955208,0.0106901414692402
5,1.01944450285877,-0.162500009973726,0.106944444047242,-0.12705996632576,0.0109955742955208,-0.000916297896765172
5,1.01944450285877,-0.162500009973726,0.106944444047242,-0.137139245867729,0.0198531206697226,-0.00824668072164059
5,1.01944450285877,-0.172222228844576,0.10972222781375,-0.133168622851372,0.0357356183230877,-0.0387899428606033
5,1.01944450285877,-0.163888889701015,0.111111119697004,-0.124005645513535,0.0335975885391235,-0.0503963828086853
5,1.01944450285877,-0.163888889701015,0.111111119697004,-0.113315500319004,0.0250454749912024,-0.0293215326964855
5,1.00694447590948,-0.166666673467524,0.100000002864918,-0.0894917547702789,-0.0027488935738802,-0.0229074470698834
5,1.00833336779274,-0.161111118090472,0.100000002864918,-0.0589484944939613,-0.0204639863222837,-0.0207694191485643
5,1.00833336779274,-0.161111118090472,0.100000002864918,-0.04764748737216,-0.0146607663482428,-0.0140499006956816
5,1.00833336779274,-0.161111118090472,0.100000002864918,-0.0598647929728031,-0.00152716308366507,-0.021685715764761
5,1.0125000434425,-0.163888889701015,0.120833338567854,-0.0671951770782471,-0.0287106670439243,-0.00152716308366507
5,1.01388893532575,-0.166666673467524,0.120833338567854,-0.0332921557128429,-0.0488692186772823,0.0143553335219622
5,1.01388893532575,-0.166666673467524,0.120833338567854,-0.0192422550171614,-0.0357356183230877,0.0219911485910416
5,1.01944450285877,-0.162500009973726,0.113888891307548,-0.0152716310694814,-0.0180205255746841,0.00824668072164059
5,1.01527782720901,-0.15555556271342,0.111111119697004,0.0045814891345799,-0.0161879286170006,0.0177150927484035
5,1.01527782720901,-0.15555556271342,0.111111119697004,0.029626963660121,-0.0192422550171614,0.0381790772080422
5,1.01666671909226,-0.152777778946911,0.111111119697004,0.0290160998702049,-0.02382374368608,0.0427605658769607
5,1.01388893532575,-0.138888896582264,0.104166672436698,0.0186313893646002,-0.0326812900602817,0.0329867228865623
5,1.01388893532575,-0.138888896582264,0.104166672436698,0.00580321997404099,-0.0427605658769607,0.0323758572340012
5,1.0125000434425,-0.115277783190802,0.101388894748172,-0.0244346093386412,-0.0534507073462009,0.0369573459029198
5,1.01527782720901,-0.101388894748172,0.0986111170596459,-0.0711658000946045,-0.0464257597923279,0.0400116741657257
5,1.02083339474202,-0.0875000002275597,0.0972222251763917,-0.156076073646545,-0.0247400421649218,0.0256563406437635
5,1.01527782720901,-0.0666666706026059,0.111111119697004,-0.22754730284214,-0.0219911485910416,0.0290160998702049
5,1.0125000434425,-0.0680555564078778,0.101388894748172,-0.342695415019989,-0.00946841109544039,0.0363464802503586
5,1.01805561097552,-0.0819444448505077,0.0972222251763917,-0.473726004362106,0.0302378293126821,0.0314595587551594
5,1.02083339474202,-0.116666675074056,0.104166672436698,-0.561079740524292,0.0632245540618896,0.0100792767480016
5,1.02500007039179,-0.162500009973726,0.0833333367337618,-0.565355777740479,0.0940732508897781,-0.00183259579353034
5,1.02083339474202,-0.206944452990142,0.0833333367337618,-0.515264809131622,0.0986547395586967,-0.0100792767480016
5,1.02222228662528,-0.234722242031366,0.0819444448505077,-0.40225476026535,0.0980438739061356,-0.0177150927484035
5,1.01527782720901,-0.269444466176932,0.0986111170596459,-0.193644285202026,0.0681114718317986,-0.0308486949652433
5,1.00833336779274,-0.305555557893823,0.102777780553444,0.00366519158706069,0.027488935738802,-0.0354301854968071
5,1.00555558402623,-0.305555557893823,0.108333335930496,0.199447497725487,-0.0241291765123606,-0.0290160998702049
5,1.00000001649321,-0.308333341660331,0.10972222781375,0.425773084163666,-0.0772744566202164,0.0167987942695618
5,1.00277780025972,-0.295833339022973,0.0972222251763917,0.59315013885498,-0.133168622851372,0.0571159012615681
5,1.00416669214298,-0.284722228268869,0.0888888921108138,0.736703515052795,-0.124311074614525,0.0583376325666905
5,1.0125000434425,-0.25555557165632,0.0819444448505077,0.776104271411896,-0.0650571510195732,0.00885754637420177
5,1.00833336779274,-0.20138889761309,0.0750000036681839,0.743422985076904,-0.0479529201984406,-0.011606439948082
5,1.00972225967599,-0.175000000455119,0.0875000002275597,0.718377530574799,-0.0568104684352875,0.0198531206697226
5,1.02222228662528,-0.152777778946911,0.0763888894734557,0.679587602615356,-0.0561996027827263,0.0693332031369209
5,1.03750000009336,-0.138888896582264,0.0777777813567098,0.654542088508606,-0.0229074470698834,0.0956004112958908
5,1.03472221632685,-0.122222230451108,0.0680555564078778,0.64079761505127,-0.00519235478714108,0.0867428630590439
5,1.01527782720901,-0.120833338567854,0.0944444474878658,0.588874101638794,-0.0390953756868839,0.0684169083833694
5,1.00416669214298,-0.111111119697004,0.104166672436698,0.541226625442505,-0.0613919571042061,0.0626136884093285
5,1.00833336779274,-0.108333335930496,0.0944444474878658,0.467922776937485,-0.0497855171561241,0.0485637858510017
5,1.01805561097552,-0.0986111170596459,0.0861111144222878,0.394618958234787,-0.021685715764761,0.0433714315295219
5,1.02222228662528,-0.105555564319952,0.0875000002275597,0.326507478952408,-0.00549778714776039,0.0320704244077206
5,1.02916674604155,-0.113888891307548,0.0888888921108138,0.250454753637314,0.00549778714776039,0.0299323964864016
5,1.02222228662528,-0.118055554801345,0.0986111170596459,0.212581098079681,0.04764748737216,-0.00305432616733015
5,1.00694447590948,-0.111111119697004,0.108333335930496,0.210443079471588,0.0345138870179653,0.00152716308366507
5,1.01388893532575,-0.106944444047242,0.112499999424294,0.17470745742321,0.0235183127224445,0.00244346098043024
5,1.01944450285877,-0.101388894748172,0.102777780553444,0.0983493030071259,0.0311541277915239,0.00733038317412138
5,1.01805561097552,-0.100000002864918,0.108333335930496,0.0442877300083637,0.0280998013913631,0.0109955742955208
5,1.0125000434425,-0.101388894748172,0.108333335930496,-0.0271835029125214,0.0314595587551594,0.013744467869401
5,1.00972225967599,-0.104166672436698,0.113888891307548,-0.0977384373545647,0.04764748737216,-0.00519235478714108
5,1.01527782720901,-0.101388894748172,0.120833338567854,-0.154548913240433,0.0335975885391235,-0.0125227374956012
5,1.01527782720901,-0.101388894748172,0.120833338567854,-0.234877690672875,0.0390953756868839,-0.0299323964864016
5,1.01527782720901,-0.0986111170596459,0.113888891307548,-0.313984721899033,0.0412334054708481,-0.0323758572340012
5,1.00972225967599,-0.101388894748172,0.113888891307548,-0.397062420845032,0.0311541277915239,-0.0424551330506802
5,1.00972225967599,-0.101388894748172,0.113888891307548,-0.449902266263962,0.00885754637420177,-0.0387899428606033
5,1.02500007039179,-0.123611110178398,0.104166672436698,-0.50793445110321,0.0256563406437635,-0.0583376325666905
5,1.02083339474202,-0.140277788465518,0.101388894748172,-0.525954961776733,0.0751364231109619,-0.0781907513737679
5,1.02083339474202,-0.140277788465518,0.101388894748172,-0.516486585140228,0.0659734457731247,-0.0699440687894821
5,1.0125000434425,-0.152777778946911,0.0986111170596459,-0.520151734352112,0.0503963828086853,-0.0598647929728031
5,1.02222228662528,-0.163888889701015,0.0944444474878658,-0.494189977645874,0.0357356183230877,-0.0397062413394451
5,1.02222228662528,-0.163888889701015,0.0944444474878658,-0.48685958981514,0.0293215326964855,-0.0729983970522881
5,1.02916674604155,-0.179166676104882,0.0833333367337618,-0.445015341043472,0.0696386396884918,-0.0784961804747581
5,1.00972225967599,-0.184722231481934,0.104166672436698,-0.422107875347138,0.0378736443817616,-0.0971275717020035
5,1.00972225967599,-0.184722231481934,0.104166672436698,-0.364075690507889,0.0360410511493683,-0.0708603709936142
5,1.00277780025972,-0.170833336961321,0.108333335930496,-0.339335650205612,0.00549778714776039,-0.0458148941397667
5,1.00416669214298,-0.16527778158427,0.102777780553444,-0.32742378115654,0.000916297896765172,-0.0186313893646002
5,1.00972225967599,-0.170833336961321,0.104166672436698,-0.297796815633774,0.00183259579353034,-0.00977384392172098
5,1.0125000434425,-0.181944447715425,0.116666675074056,-0.272445887327194,-0.00702495034784079,-0.00122173049021512
5,1.01527782720901,-0.190277786858986,0.118055554801345,-0.250149309635162,-0.00916297826915979,-0.00488692196086049
5,1.0125000434425,-0.188888894975731,0.118055554801345,-0.218689754605293,-0.0128281703218818,0.00855211354792118
5,1.01805561097552,-0.197222234119292,0.123611110178398,-0.158214092254639,-0.0103847095742822,0.00610865233466029
5,1.01111115155925,-0.202777789496344,0.111111119697004,-0.115758962929249,-0.011606439948082,0.00397062394768
5,1.00972225967599,-0.202777789496344,0.112499999424294,-0.0678060427308083,-0.0100792767480016,0.00610865233466029
5,1.00555558402623,-0.190277786858986,0.111111119697004,-0.0387899428606033,-0.0290160998702049,0.0284052342176437
5,1.01666671909226,-0.19166667874224,0.120833338567854,-0.011606439948082,-0.0348193198442459,0.03176499158144
5,1.01527782720901,-0.187500003092477,0.118055554801345,0.0103847095742822,-0.0305432621389627,0.0397062413394451
5,1.01805561097552,-0.18333333959868,0.108333335930496,0.0222965814173222,-0.0262672062963247,0.0522289797663689
5,1.01527782720901,-0.187500003092477,0.113888891307548,0.0445931628346443,-0.0323758572340012,0.0577267669141293
5,1.01805561097552,-0.194444450352783,0.10972222781375,0.0601702257990837,-0.037568211555481,0.0470366254448891
5,1.01944450285877,-0.193055558469529,0.118055554801345,0.0647517144680023,-0.0280998013913631,0.0265726372599602
5,1.01527782720901,-0.184722231481934,0.111111119697004,0.0946841165423393,-0.015577063895762,0.0222965814173222
5,1.0125000434425,-0.18333333959868,0.10972222781375,0.119729585945606,-0.0167987942695618,0.0360410511493683
5,1.01388893532575,-0.180555567988136,0.102777780553444,0.145691365003586,-0.0201585534960032,0.0418442711234093
5,1.01944450285877,-0.186111123365188,0.104166672436698,0.153632611036301,-0.0021380283869803,0.0458148941397667
5,1.02083339474202,-0.180555567988136,0.100000002864918,0.163406446576118,0.00946841109544039,0.0381790772080422
5,1.01527782720901,-0.176388892338373,0.106944444047242,0.201280102133751,0.0045814891345799,0.0305432621389627
5,1.00833336779274,-0.166666673467524,0.112499999424294,0.223271250724793,-0.00733038317412138,0.0311541277915239
5,1.01388893532575,-0.161111118090472,0.101388894748172,0.220827788114548,-0.0161879286170006,0.0400116741657257
5,1.01388893532575,-0.163888889701015,0.0944444474878658,0.214413702487946,-0.0045814891345799,0.0424551330506802
5,1.02083339474202,-0.161111118090472,0.0888888921108138,0.219300627708435,0.00183259579353034,0.0345138870179653
5,1.01944450285877,-0.169444445078067,0.0916666697993398,0.220522359013557,-0.000916297896765172,0.0348193198442459
5,1.01944450285877,-0.168055565350778,0.0986111170596459,0.228769034147263,-0.011606439948082,0.0299323964864016
5,1.01388893532575,-0.16527778158427,0.0986111170596459,0.233350530266762,-0.0180205255746841,0.0229074470698834
5,1.01527782720901,-0.154166670830166,0.105555564319952,0.213497400283814,-0.0161879286170006,0.0348193198442459
5,1.01805561097552,-0.156944454596674,0.0972222251763917,0.205556154251099,-0.0271835029125214,0.0406225398182869
5,1.01944450285877,-0.158333334323963,0.0916666697993398,0.202807262539864,-0.0149661982432008,0.0326812900602817
5,1.01944450285877,-0.159722226207217,0.0916666697993398,0.201585531234741,-0.0140499006956816,0.0400116741657257
5,1.01944450285877,-0.161111118090472,0.0819444448505077,0.187841057777405,-0.0180205255746841,0.0424551330506802
5,1.01666671909226,-0.159722226207217,0.0819444448505077,0.173180297017098,-0.0219911485910416,0.0354301854968071
5,1.01666671909226,-0.159722226207217,0.0819444448505077,0.15851953625679,-0.0335975885391235,0.0268780700862408
5,1.02222228662528,-0.161111118090472,0.0916666697993398,0.145385921001434,-0.0293215326964855,0.0354301854968071
5,1.01944450285877,-0.161111118090472,0.0847222225390337,0.124005645513535,-0.0192422550171614,0.0436768643558025
5,1.01388893532575,-0.16527778158427,0.0819444448505077,0.113926365971565,-0.0244346093386412,0.0372627787292004
5,1.01527782720901,-0.156944454596674,0.0847222225390337,0.0821613743901253,-0.0290160998702049,0.0357356183230877
5,1.01666671909226,-0.156944454596674,0.0944444474878658,0.0616973899304867,-0.0339030213654041,0.0348193198442459
5,1.02361117850853,-0.161111118090472,0.0847222225390337,0.0387899428606033,-0.0229074470698834,0.0372627787292004
5,1.01805561097552,-0.166666673467524,0.0944444474878658,0.027488935738802,-0.01191187184304,0.03176499158144
5,1.01388893532575,-0.175000000455119,0.0972222251763917,0.0332921557128429,-0.0167987942695618,0.0226020142436027
5,1.01527782720901,-0.170833336961321,0.0916666697993398,0.0262672062963247,-0.0265726372599602,0.0106901414692402
5,1.01527782720901,-0.176388892338373,0.0861111144222878,0.00610865233466029,-0.0241291765123606,0.0198531206697226
5,1.01805561097552,-0.177777784221628,0.0777777813567098,-0.00152716308366507,-0.0125227374956012,0.0183259565383196
5,1.01527782720901,-0.184722231481934,0.0916666697993398,-0.000305432622553781,-0.00549778714776039,0.01191187184304
5,1.00972225967599,-0.179166676104882,0.0888888921108138,-0.0125227374956012,-0.00946841109544039,0.00580321997404099
5,1.01527782720901,-0.176388892338373,0.0902777839940679,-0.00671951752156019,-0.00671951752156019,0.00763581553474069
5,1.01527782720901,-0.176388892338373,0.0902777839940679,-0.0229074470698834,-0.0027488935738802,0.00152716308366507
5,1.0125000434425,-0.16527778158427,0.0958333393711199,-0.029626963660121,-0.0122173046693206,0.0131336031481624
5,1.01388893532575,-0.170833336961321,0.0944444474878658,-0.0519235469400883,-0.00733038317412138,0.0122173046693206
5,1.01388893532575,-0.170833336961321,0.0944444474878658,-0.0561996027827263,-0.00671951752156019,0.0167987942695618
5,1.01527782720901,-0.179166676104882,0.0944444474878658,-0.0647517144680023,0.0100792767480016,0.00488692196086049
5,1.01944450285877,-0.184722231481934,0.0930555616825939,-0.0592539273202419,0.00519235478714108,0.00946841109544039
5,1.01944450285877,-0.184722231481934,0.0930555616825939,-0.0531452745199203,0.00305432616733015,0.000916297896765172
5,1.0125000434425,-0.180555567988136,0.0972222251763917,-0.0491746515035629,0.00183259579353034,-0.00244346098043024
5,1.01527782720901,-0.179166676104882,0.100000002864918,-0.0516181141138077,-0.00366519158706069,-0.00305432616733015
5,1.01527782720901,-0.179166676104882,0.100000002864918,-0.0403171069920063,-0.00610865233466029,0.000305432622553781
5,1.0125000434425,-0.177777784221628,0.100000002864918,-0.0366519130766392,-0.00519235478714108,0.0045814891345799
5,1.01944450285877,-0.170833336961321,0.0861111144222878,-0.0424551330506802,0.0033597587607801,-0.00152716308366507
5,1.01944450285877,-0.170833336961321,0.0861111144222878,-0.0351247526705265,0.00183259579353034,0.000916297896765172
5,1.01527782720901,-0.179166676104882,0.0958333393711199,-0.0397062413394451,-0.000916297896765172,-0.0027488935738802
5,1.0125000434425,-0.180555567988136,0.0972222251763917,-0.0302378293126821,0.00183259579353034,-0.000305432622553781
5,1.01527782720901,-0.181944447715425,0.0958333393711199,-0.0314595587551594,-0.00580321997404099,0.00733038317412138
5,1.0125000434425,-0.18333333959868,0.100000002864918,-0.0284052342176437,-0.00916297826915979,0.0100792767480016
5,1.0125000434425,-0.18333333959868,0.100000002864918,-0.0113010071218014,-0.00671951752156019,0.00763581553474069
5,1.00972225967599,-0.193055558469529,0.0861111144222878,-0.0045814891345799,-0.00671951752156019,0.00977384392172098
5,1.01527782720901,-0.190277786858986,0.0930555616825939,0.00733038317412138,-0.0128281703218818,0.00580321997404099
5,1.01527782720901,-0.193055558469529,0.0930555616825939,0.0244346093386412,-0.00885754637420177,0.0106901414692402
5,1.0125000434425,-0.190277786858986,0.0986111170596459,0.0271835029125214,-0.00397062394768,-0.00122173049021512
5,1.0125000434425,-0.188888894975731,0.0944444474878658,0.0503963828086853,-0.00794124789535999,0.00794124789535999
5,1.0125000434425,-0.188888894975731,0.0944444474878658,0.0552833043038845,-0.00946841109544039,0.00152716308366507
5,1.01111115155925,-0.187500003092477,0.0902777839940679,0.0626136884093285,-0.00671951752156019,0.00641408516094089
5,1.01666671909226,-0.187500003092477,0.100000002864918,0.0659734457731247,-0.00824668072164059,0.00733038317412138
5,1.01666671909226,-0.187500003092477,0.100000002864918,0.0671951770782471,-0.000610865245107561,0.0152716310694814
5,1.01944450285877,-0.193055558469529,0.0972222251763917,0.0687223374843597,0.00580321997404099,0.00885754637420177
5,1.01805561097552,-0.19166667874224,0.0986111170596459,0.0861319974064827,0.00916297826915979,-0.00122173049021512
5,1.01805561097552,-0.187500003092477,0.101388894748172,0.0754418596625328,-0.00855211354792118,0.0106901414692402
5,1.01527782720901,-0.18333333959868,0.100000002864918,0.0800233483314514,-0.0125227374956012,0.017409659922123
5,1.01527782720901,-0.179166676104882,0.101388894748172,0.0815505087375641,-0.0027488935738802,0.011606439948082
5,1.01527782720901,-0.180555567988136,0.0944444474878658,0.0784961804747581,0.00244346098043024,0.00702495034784079
5,1.01666671909226,-0.188888894975731,0.0944444474878658,0.0696386396884918,0.00916297826915979,0.0106901414692402
5,1.01944450285877,-0.187500003092477,0.0972222251763917,0.0791070461273193,0.00733038317412138,0.0021380283869803
5,1.0125000434425,-0.18333333959868,0.0944444474878658,0.0864374339580536,0.0109955742955208,0.0106901414692402
5,1.01805561097552,-0.180555567988136,0.101388894748172,0.0842994004487991,-0.000305432622553781,0.00916297826915979
5,1.01388893532575,-0.18333333959868,0.101388894748172,0.0842994004487991,0.00733038317412138,0.00305432616733015
5,1.01388893532575,-0.18333333959868,0.0972222251763917,0.0775798857212067,0.0106901414692402,0.00885754637420177
5,1.0125000434425,-0.181944447715425,0.0916666697993398,0.0849102661013603,0.0189368221908808,0.0100792767480016
5,1.01527782720901,-0.177777784221628,0.0944444474878658,0.0873537287116051,0.0134390350431204,0.00397062394768
5,1.01388893532575,-0.180555567988136,0.0972222251763917,0.0907134860754013,0.0213802829384804,0.000916297896765172
5,1.00972225967599,-0.176388892338373,0.0986111170596459,0.0861319974064827,0.019547687843442,-0.00885754637420177
5,1.01111115155925,-0.17361112072783,0.101388894748172,0.0852157026529312,0.0219911485910416,0.0027488935738802
5,1.01388893532575,-0.172222228844576,0.102777780553444,0.0812450796365738,0.027488935738802,0.0128281703218818
5,1.01805561097552,-0.179166676104882,0.105555564319952,0.0839939713478088,0.0201585534960032,0.00671951752156019
5,1.01111115155925,-0.177777784221628,0.101388894748172,0.0842994004487991,0.0177150927484035,-0.00183259579353034
5,1.0125000434425,-0.17361112072783,0.112499999424294,0.0653625801205635,0.01191187184304,-0.000610865245107561
5,1.01111115155925,-0.176388892338373,0.105555564319952,0.0568104684352875,0.00824668072164059,-0.0045814891345799
5,1.01388893532575,-0.179166676104882,0.0916666697993398,0.0601702257990837,0.0256563406437635,-0.00916297826915979
5,1.0125000434425,-0.175000000455119,0.101388894748172,0.0546724386513233,0.0299323964864016,0.000610865245107561
5,1.0125000434425,-0.172222228844576,0.104166672436698,0.0424551330506802,0.0222965814173222,-0.00610865233466029
5,1.01944450285877,-0.175000000455119,0.0944444474878658,0.0384845100343227,0.0259617734700441,-0.0134390350431204
5,1.01666671909226,-0.175000000455119,0.105555564319952,0.0366519130766392,0.0372627787292004,-0.0171042270958424
5,1.01666671909226,-0.176388892338373,0.104166672436698,0.0287106670439243,0.0290160998702049,-0.0143553335219622
5,1.01944450285877,-0.166666673467524,0.106944444047242,0.0103847095742822,0.0326812900602817,-0.00733038317412138
5,1.01527782720901,-0.169444445078067,0.0958333393711199,0.0103847095742822,0.0357356183230877,-0.0100792767480016
5,1.00972225967599,-0.166666673467524,0.106944444047242,0.00549778714776039,0.0403171069920063,-0.00855211354792118
5,1.00972225967599,-0.168055565350778,0.108333335930496,-0.00671951752156019,0.0345138870179653,-0.011606439948082
5,1.0125000434425,-0.166666673467524,0.102777780553444,-0.0131336031481624,0.0342084541916847,-0.00885754637420177
5,1.0125000434425,-0.163888889701015,0.108333335930496,-0.0189368221908808,0.0387899428606033,-0.00946841109544039
5,1.0125000434425,-0.15555556271342,0.111111119697004,-0.0268780700862408,0.0305432621389627,-0.00733038317412138
5,1.00555558402623,-0.168055565350778,0.116666675074056,-0.0265726372599602,0.0210748501121998,0.00794124789535999
5,1.01111115155925,-0.166666673467524,0.113888891307548,-0.0256563406437635,0.0177150927484035,0.0027488935738802
5,1.01527782720901,-0.180555567988136,0.108333335930496,-0.0268780700862408,0.0192422550171614,0.00519235478714108
5,0.997222232726705,-0.180555567988136,0.111111119697004,-0.0229074470698834,0.01191187184304,-0.00427605677396059
5,1.00972225967599,-0.17361112072783,0.113888891307548,-0.0247400421649218,0.0109955742955208,-0.00488692196086049
5,1.01527782720901,-0.170833336961321,0.116666675074056,-0.0354301854968071,0.013744467869401,-0.00183259579353034
5,1.0125000434425,-0.169444445078067,0.118055554801345,-0.0433714315295219,0.0180205255746841,-0.0131336031481624
5,1.01111115155925,-0.176388892338373,0.116666675074056,-0.0348193198442459,0.00702495034784079,-0.00610865233466029
5,1.00972225967599,-0.17361112072783,0.113888891307548,-0.0326812900602817,0.0134390350431204,-0.00549778714776039
5,1.00972225967599,-0.176388892338373,0.126388893944906,-0.0305432621389627,0.011606439948082,-0.00916297826915979
5,1.00972225967599,-0.166666673467524,0.131944449321958,-0.0293215326964855,0.017409659922123,-0.00641408516094089
5,1.01527782720901,-0.170833336961321,0.126388893944906,-0.0329867228865623,0.0128281703218818,-0.0027488935738802
5,1.01388893532575,-0.175000000455119,0.116666675074056,-0.0308486949652433,0.0125227374956012,-0.00519235478714108
5,1.0125000434425,-0.170833336961321,0.122222230451108,-0.0244346093386412,0.00855211354792118,-0.00152716308366507
5,1.01111115155925,-0.170833336961321,0.125000002061652,-0.0262672062963247,0.00488692196086049,-0.00671951752156019
5,1.01805561097552,-0.166666673467524,0.125000002061652,-0.0268780700862408,0.00641408516094089,0.0045814891345799
5,1.0125000434425,-0.172222228844576,0.120833338567854,-0.0192422550171614,0.00610865233466029,-0.0128281703218818
5,1.01527782720901,-0.179166676104882,0.113888891307548,-0.0213802829384804,0.00427605677396059,-0.0146607663482428
5,1.01388893532575,-0.176388892338373,0.115277783190802,-0.0131336031481624,0.00549778714776039,-0.0045814891345799
5,1.01666671909226,-0.17361112072783,0.122222230451108,-0.000916297896765172,-0.00152716308366507,-0.0045814891345799
5,1.0125000434425,-0.175000000455119,0.108333335930496,-0.00671951752156019,-0.0021380283869803,-0.0106901414692402
5,1.01527782720901,-0.17361112072783,0.118055554801345,-0.0140499006956816,-0.00427605677396059,-0.0161879286170006
5,1.0125000434425,-0.170833336961321,0.120833338567854,-0.00702495034784079,-0.00244346098043024,-0.0131336031481624
5,1.01388893532575,-0.170833336961321,0.113888891307548,-0.0128281703218818,0.00580321997404099,-0.0122173046693206
5,1.0125000434425,-0.168055565350778,0.1194444466846,-0.00977384392172098,-0.00610865233466029,-0.015577063895762
5,1.01388893532575,-0.166666673467524,0.118055554801345,-0.00946841109544039,-0.0146607663482428,-0.0122173046693206
5,1.00972225967599,-0.166666673467524,0.115277783190802,-0.00977384392172098,-0.0290160998702049,-0.0143553335219622
5,1.00555558402623,-0.168055565350778,0.136111112815755,0.00977384392172098,-0.11087204515934,0.00641408516094089
5,1.01388893532575,-0.180555567988136,0.130555557438704,0.0442877300083637,-0.269391566514969,-0.00305432616733015
5,1.02361117850853,-0.186111123365188,0.0958333393711199,0.0302378293126821,-0.245262399315834,-0.0348193198442459
5,1.01666671909226,-0.180555567988136,0.0805555590452358,-0.0027488935738802,-0.120645888149738,-0.0696386396884918
5,1.0125000434425,-0.179166676104882,0.0847222225390337,-0.0253509078174829,-0.0293215326964855,-0.0687223374843597
5,1.00277780025972,-0.188888894975731,0.10972222781375,-0.017409659922123,-0.0656680166721344,-0.0696386396884918
5,1.01805561097552,-0.16527778158427,0.0888888921108138,-0.00916297826915979,-0.0839939713478088,-0.0549778714776039
5,1.02500007039179,-0.15555556271342,0.0875000002275597,-0.0222965814173222,-0.0326812900602817,-0.00488692196086049
5,1.02500007039179,-0.152777778946911,0.0888888921108138,-0.0268780700862408,0.011606439948082,0.0259617734700441
5,1.01527782720901,-0.14722222356986,0.0972222251763917,-0.0164933614432812,-0.00794124789535999,0.0500909499824047
5,1.00138890837647,-0.156944454596674,0.104166672436698,-0.00763581553474069,-0.0913243517279625,0.064446285367012
5,1.02222228662528,-0.17361112072783,0.0819444448505077,-0.00519235478714108,-0.0885754600167274,0.0418442711234093
5,1.02500007039179,-0.186111123365188,0.0750000036681839,-0.0113010071218014,-0.0320704244077206,0.00610865233466029
5,1.02500007039179,-0.186111123365188,0.0750000036681839,-0.00977384392172098,0.0125227374956012,-0.0455094613134861
5,1.01944450285877,-0.190277786858986,0.0916666697993398,-0.000305432622553781,-0.000305432622553781,-0.0577267669141293
5,1.0125000434425,-0.159722226207217,0.0986111170596459,0.00366519158706069,-0.0219911485910416,-0.0601702257990837
5,1.01944450285877,-0.143055560076062,0.0805555590452358,-0.0177150927484035,0.00366519158706069,-0.0394008085131645
5,1.02500007039179,-0.144444451959316,0.0861111144222878,-0.0229074470698834,0.0342084541916847,-0.013744467869401
5,1.01388893532575,-0.14722222356986,0.0819444448505077,-0.0149661982432008,0.0406225398182869,0.013744467869401
5,1.00555558402623,-0.152777778946911,0.0916666697993398,0.00855211354792118,0.027488935738802,0.0390953756868839
5,1.0125000434425,-0.162500009973726,0.0944444474878658,0.0103847095742822,0.0323758572340012,0.0406225398182869
5,1.02222228662528,-0.163888889701015,0.0875000002275597,0.01588249579072,0.0293215326964855,0.0287106670439243
5,1.02222228662528,-0.163888889701015,0.0875000002275597,0.0143553335219622,0.0171042270958424,0.00916297826915979
5,1.02777785415829,-0.169444445078067,0.0847222225390337,0.0125227374956012,0.00824668072164059,-0.0045814891345799
5,1.01805561097552,-0.159722226207217,0.0916666697993398,0.00794124789535999,0.0183259565383196,-0.0277943685650826
5,1.01805561097552,-0.159722226207217,0.0916666697993398,0.00916297826915979,0.0299323964864016,-0.0244346093386412
5,1.01388893532575,-0.162500009973726,0.0944444474878658,0.00641408516094089,0.017409659922123,-0.0363464802503586
5,1.00972225967599,-0.161111118090472,0.0944444474878658,0.0100792767480016,0.00519235478714108,-0.0311541277915239
5,1.01805561097552,-0.16527778158427,0.102777780553444,0.0226020142436027,-0.0510072484612465,-0.0125227374956012
5,1.01805561097552,-0.166666673467524,0.0944444474878658,0.0259617734700441,-0.0891863256692886,-0.00794124789535999
5,1.01388893532575,-0.17361112072783,0.0944444474878658,0.0131336031481624,-0.0815505087375641,-0.021685715764761
5,1.01666671909226,-0.18333333959868,0.0861111144222878,0.017409659922123,-0.0458148941397667,-0.0470366254448891
5,1.01944450285877,-0.187500003092477,0.0791666671619817,0.0229074470698834,-0.0198531206697226,-0.0687223374843597
5,1.01111115155925,-0.176388892338373,0.0833333367337618,0.0177150927484035,-0.0241291765123606,-0.0494800843298435
5,1.01111115155925,-0.161111118090472,0.0986111170596459,0.0241291765123606,-0.017409659922123,-0.0247400421649218
5,1.02083339474202,-0.150000007336368,0.0888888921108138,0.00733038317412138,-0.015577063895762,0.0149661982432008
5,1.02083339474202,-0.143055560076062,0.0875000002275597,0.00794124789535999,0.0128281703218818,0.0485637858510017
5,1.01666671909226,-0.13750000469901,0.0888888921108138,0.0045814891345799,0.0222965814173222,0.0641408488154411
5,1.00972225967599,-0.14722222356986,0.0916666697993398,-0.00183259579353034,0.0302378293126821,0.0769690200686455
5,1.01527782720901,-0.154166670830166,0.0861111144222878,-0.0210748501121998,0.0565050356090069,0.0928515195846558
5,1.01944450285877,-0.154166670830166,0.0888888921108138,-0.00733038317412138,0.027488935738802,0.0794124826788902
5,1.02500007039179,-0.163888889701015,0.108333335930496,0.0045814891345799,-0.0601702257990837,0.0546724386513233
5,1.02222228662528,-0.184722231481934,0.100000002864918,0.00519235478714108,-0.0852157026529312,-0.00183259579353034
5,1.02222228662528,-0.187500003092477,0.0833333367337618,-0.00152716308366507,0.000610865245107561,-0.0623082555830479
5,1.00555558402623,-0.188888894975731,0.0888888921108138,0.00977384392172098,0.0128281703218818,-0.0794124826788902
5,1.00277780025972,-0.177777784221628,0.0944444474878658,0.00397062394768,0.00366519158706069,-0.0827722400426865
5,1.01944450285877,-0.14583334384257,0.0930555616825939,-0.0152716310694814,0.0122173046693206,-0.0400116741657257
5,1.02500007039179,-0.140277788465518,0.0875000002275597,-0.0152716310694814,0.0339030213654041,-0.01191187184304
5,1.02500007039179,-0.138888896582264,0.0875000002275597,-0.017409659922123,0.0421497002243996,0.00610865233466029
5,1.01388893532575,-0.140277788465518,0.101388894748172,-0.0204639863222837,0.0552833043038845,0.0366519130766392
5,1.00972225967599,-0.144444451959316,0.0972222251763917,-0.0339030213654041,0.0812450796365738,0.0482583530247212
5,1.00416669214298,-0.143055560076062,0.0986111170596459,-0.0381790772080422,0.0937678143382072,0.0537561401724815
5,1.02083339474202,-0.163888889701015,0.0736111117849297,-0.0455094613134861,0.104152522981167,0.0626136884093285
5,1.02083339474202,-0.179166676104882,0.111111119697004,-0.0106901414692402,-0.0357356183230877,0.0305432621389627
5,1.02500007039179,-0.195833342236038,0.10972222781375,0.00152716308366507,-0.160046696662903,-0.0345138870179653
5,1.02500007039179,-0.206944452990142,0.0902777839940679,0.0122173046693206,-0.133168622851372,-0.0769690200686455
5,1.02638896227504,-0.195833342236038,0.0708333340964038,0.00855211354792118,0.0400116741657257,-0.113315500319004
5,1.00555558402623,-0.170833336961321,0.0902777839940679,-0.00702495034784079,0.0210748501121998,-0.108734011650086
5,0.994444448960196,-0.144444451959316,0.106944444047242,-0.0247400421649218,-0.0253509078174829,-0.0394008085131645
5,1.0125000434425,-0.131944449321958,0.102777780553444,-0.0360410511493683,-0.00977384392172098,0.00855211354792118
5,1.02916674604155,-0.144444451959316,0.0902777839940679,-0.0335975885391235,0.0271835029125214,0.0277943685650826
5,1.01944450285877,-0.14583334384257,0.0916666697993398,-0.037568211555481,0.0360410511493683,0.0491746515035629
5,1.00972225967599,-0.152777778946911,0.0847222225390337,-0.0354301854968071,0.0577267669141293,0.0668897479772568
5,1.0125000434425,-0.161111118090472,0.0888888921108138,-0.0384845100343227,0.0839939713478088,0.0595593601465225
5,1.01805561097552,-0.170833336961321,0.0902777839940679,-0.0452040284872055,0.118813291192055,0.0488692186772823
5,1.02222228662528,-0.163888889701015,0.0888888921108138,-0.0360410511493683,0.0968221426010132,0.0555887371301651
5,1.02222228662528,-0.166666673467524,0.0930555616825939,-0.0201585534960032,0.0885754600167274,0.0458148941397667
5,1.01527782720901,-0.17361112072783,0.100000002864918,-0.00519235478714108,0.0198531206697226,0.00885754637420177
5,1.0125000434425,-0.176388892338373,0.108333335930496,0.015577063895762,-0.0122173046693206,-0.00549778714776039
5,1.01944450285877,-0.175000000455119,0.0972222251763917,0.0122173046693206,0.00366519158706069,-0.0369573459029198
5,1.02083339474202,-0.172222228844576,0.0916666697993398,0.00366519158706069,0.0406225398182869,-0.0500909499824047
5,1.00972225967599,-0.151388899219622,0.108333335930496,-0.00977384392172098,0.04764748737216,-0.0390953756868839
5,1.00694447590948,-0.151388899219622,0.108333335930496,-0.00763581553474069,-0.0106901414692402,0.00580321997404099
5,1.01527782720901,-0.152777778946911,0.111111119697004,-0.019547687843442,-0.0164933614432812,0.0183259565383196
5,1.0125000434425,-0.156944454596674,0.108333335930496,-0.0229074470698834,0.00794124789535999,0.021685715764761
5,1.0125000434425,-0.163888889701015,0.106944444047242,-0.0125227374956012,0.00152716308366507,0.0265726372599602
5,1.01805561097552,-0.163888889701015,0.10972222781375,-0.0128281703218818,0.0201585534960032,0.0207694191485643
5,1.02222228662528,-0.16527778158427,0.0986111170596459,-0.0198531206697226,0.0335975885391235,0.0109955742955208
5,1.01944450285877,-0.161111118090472,0.0986111170596459,-0.0146607663482428,0.0256563406437635,0.00885754637420177
5,1.01944450285877,-0.161111118090472,0.0986111170596459,-0.0143553335219622,0.02382374368608,-0.00549778714776039
5,1.01388893532575,-0.162500009973726,0.101388894748172,-0.0207694191485643,0.00794124789535999,-0.00397062394768
5,1.01666671909226,-0.163888889701015,0.104166672436698,-0.0265726372599602,0.01588249579072,-0.00946841109544039
5,1.01666671909226,-0.163888889701015,0.104166672436698,-0.0299323964864016,0.00977384392172098,-0.0100792767480016
5,1.00972225967599,-0.162500009973726,0.0986111170596459,-0.0177150927484035,0.00152716308366507,-0.000916297896765172
5,1.00555558402623,-0.168055565350778,0.0986111170596459,-0.0271835029125214,-0.00641408516094089,-0.0033597587607801
5,1.00555558402623,-0.168055565350778,0.0986111170596459,-0.0323758572340012,0.00305432616733015,-0.00763581553474069
5,1.01666671909226,-0.172222228844576,0.0972222251763917,-0.0284052342176437,0.00885754637420177,-0.0109955742955208
5,1.01944450285877,-0.163888889701015,0.0916666697993398,-0.0277943685650826,-0.00366519158706069,-0.013744467869401
5,1.01944450285877,-0.163888889701015,0.0916666697993398,-0.0326812900602817,0.00519235478714108,-0.00916297826915979
5,1.02083339474202,-0.163888889701015,0.0930555616825939,-0.0439822971820831,0.00580321997404099,-0.00763581553474069
5,1.01805561097552,-0.163888889701015,0.0902777839940679,-0.0537561401724815,0.0109955742955208,-0.0149661982432008
5,1.01527782720901,-0.169444445078067,0.0916666697993398,-0.0378736443817616,0.0177150927484035,-0.0167987942695618
5,1.01527782720901,-0.169444445078067,0.102777780553444,-0.0250454749912024,0.0134390350431204,-0.00641408516094089
5,1.01527782720901,-0.169444445078067,0.101388894748172,-0.0213802829384804,0.00305432616733015,-0.0109955742955208
5,1.01388893532575,-0.163888889701015,0.0986111170596459,-0.01588249579072,-0.0149661982432008,0.00946841109544039
5,1.01805561097552,-0.158333334323963,0.104166672436698,-0.0149661982432008,-0.0045814891345799,0.000610865245107561
5,1.01944450285877,-0.156944454596674,0.100000002864918,-0.0167987942695618,-0.00183259579353034,0.00702495034784079
5,1.01527782720901,-0.163888889701015,0.104166672436698,-0.0284052342176437,0.000610865245107561,-0.00610865233466029
5,1.0125000434425,-0.154166670830166,0.0986111170596459,-0.0372627787292004,0.0140499006956816,0.000916297896765172
5,1.01527782720901,-0.162500009973726,0.100000002864918,-0.0482583530247212,0.0033597587607801,-0.00122173049021512
5,1.02222228662528,-0.161111118090472,0.0958333393711199,-0.0494800843298435,0.00702495034784079,-0.00641408516094089
5,1.02083339474202,-0.163888889701015,0.0986111170596459,-0.0448985956609249,0.0021380283869803,-0.000916297896765172
5,1.0125000434425,-0.166666673467524,0.0958333393711199,-0.0497855171561241,-0.00152716308366507,-0.00366519158706069
5,1.01944450285877,-0.169444445078067,0.102777780553444,-0.0424551330506802,-0.0106901414692402,-0.0027488935738802
5,1.0125000434425,-0.170833336961321,0.101388894748172,-0.0421497002243996,0.01191187184304,-0.0033597587607801
5,1.01388893532575,-0.172222228844576,0.0986111170596459,-0.0378736443817616,0.00397062394768,-0.00824668072164059
5,1.01805561097552,-0.169444445078067,0.102777780553444,-0.0335975885391235,0.00763581553474069,-0.0027488935738802
5,1.01527782720901,-0.169444445078067,0.0972222251763917,-0.0302378293126821,0.0027488935738802,-0.0113010071218014
5,1.01666671909226,-0.163888889701015,0.0972222251763917,-0.029626963660121,-0.00733038317412138,-0.00183259579353034
5,1.0125000434425,-0.166666673467524,0.105555564319952,-0.021685715764761,-0.00366519158706069,-0.000305432622553781
5,1.01805561097552,-0.17361112072783,0.111111119697004,-0.0235183127224445,0.00366519158706069,-0.015577063895762
5,1.01805561097552,-0.169444445078067,0.108333335930496,-0.0207694191485643,-0.00152716308366507,-0.00855211354792118
5,1.01527782720901,-0.161111118090472,0.111111119697004,-0.0164933614432812,0.0021380283869803,-0.00519235478714108
5,1.01944450285877,-0.166666673467524,0.104166672436698,-0.0109955742955208,-0.0106901414692402,-0.00916297826915979
5,1.01805561097552,-0.169444445078067,0.0986111170596459,-0.0106901414692402,-0.00488692196086049,-0.00305432616733015
5,1.01388893532575,-0.17361112072783,0.0986111170596459,-0.00305432616733015,-0.000916297896765172,-0.00183259579353034
5,1.01805561097552,-0.170833336961321,0.0986111170596459,0.000305432622553781,-0.00549778714776039,-0.00671951752156019
5,1.0125000434425,-0.166666673467524,0.0902777839940679,0.00427605677396059,-0.0045814891345799,0.00977384392172098
5,1.0125000434425,-0.168055565350778,0.0986111170596459,0.011606439948082,-0.00794124789535999,-0.00824668072164059
5,1.0125000434425,-0.163888889701015,0.100000002864918,0.01191187184304,-0.0103847095742822,0.00244346098043024
5,1.01666671909226,-0.166666673467524,0.0986111170596459,0.0143553335219622,-0.00855211354792118,-0.00183259579353034
5,1.01805561097552,-0.162500009973726,0.0972222251763917,0.013744467869401,-0.000916297896765172,-0.0021380283869803
5,1.01527782720901,-0.161111118090472,0.0930555616825939,0.017409659922123,0.00519235478714108,-0.000916297896765172
5,1.01388893532575,-0.162500009973726,0.0986111170596459,0.0339030213654041,0.00824668072164059,-0.00397062394768
5,1.01388893532575,-0.161111118090472,0.0986111170596459,0.0311541277915239,-0.0021380283869803,-0.00946841109544039
5,1.01527782720901,-0.161111118090472,0.0944444474878658,0.0351247526705265,-0.0149661982432008,-0.000916297896765172
5,1.0125000434425,-0.158333334323963,0.0930555616825939,0.029626963660121,-0.0103847095742822,0.00610865233466029
5,1.01527782720901,-0.152777778946911,0.0916666697993398,0.019547687843442,-0.00488692196086049,0.00733038317412138
5,1.01944450285877,-0.158333334323963,0.0958333393711199,0.0201585534960032,-0.0045814891345799,0.0027488935738802
5,1.01527782720901,-0.159722226207217,0.101388894748172,0.0219911485910416,-0.013744467869401,0.00427605677396059
5,1.0125000434425,-0.159722226207217,0.106944444047242,0.0149661982432008,-0.0177150927484035,-0.0027488935738802
5,1.01666671909226,-0.161111118090472,0.0958333393711199,0.00977384392172098,-0.013744467869401,-0.00152716308366507
5,1.01527782720901,-0.162500009973726,0.0944444474878658,0.00671951752156019,0.0027488935738802,-0.00183259579353034
5,1.01666671909226,-0.156944454596674,0.0888888921108138,0.0021380283869803,-0.0033597587607801,-0.0033597587607801
5,1.01527782720901,-0.162500009973726,0.0944444474878658,0.0131336031481624,-0.00885754637420177,-0.0103847095742822
5,1.02222228662528,-0.166666673467524,0.0972222251763917,0.0122173046693206,0.0021380283869803,-0.00733038317412138
5,1.02222228662528,-0.162500009973726,0.102777780553444,0.013744467869401,0.00397062394768,-0.011606439948082
5,1.01388893532575,-0.161111118090472,0.104166672436698,0.0128281703218818,-0.00397062394768,-0.00641408516094089
5,1.0125000434425,-0.156944454596674,0.0958333393711199,0.00244346098043024,-0.000916297896765172,0.000610865245107561
5,1.02222228662528,-0.15555556271342,0.104166672436698,0.00610865233466029,-0.0045814891345799,0.00427605677396059
5,1.02083339474202,-0.161111118090472,0.0902777839940679,-0.00244346098043024,-0.00244346098043024,0.00183259579353034
5,1.01388893532575,-0.163888889701015,0.0930555616825939,-0.0021380283869803,-0.00122173049021512,0.0122173046693206
5,1.01527782720901,-0.162500009973726,0.104166672436698,-0.00671951752156019,-0.000305432622553781,-0.00641408516094089
5,1.0125000434425,-0.163888889701015,0.104166672436698,-0.00794124789535999,0.00702495034784079,-0.00366519158706069
5,1.01944450285877,-0.163888889701015,0.108333335930496,-0.00580321997404099,-0.00305432616733015,-0.0109955742955208
5,1.01527782720901,-0.161111118090472,0.10972222781375,0.000610865245107561,-0.000916297896765172,-0.00427605677396059
5,1.01388893532575,-0.156944454596674,0.0986111170596459,-0.000610865245107561,-0.00122173049021512,-0.00122173049021512
5,1.01388893532575,-0.16527778158427,0.101388894748172,-0.00152716308366507,0.0027488935738802,-0.00122173049021512
5,1.01527782720901,-0.168055565350778,0.0986111170596459,0.00519235478714108,0.00152716308366507,-0.00824668072164059
5,1.01527782720901,-0.16527778158427,0.101388894748172,0.00855211354792118,0.00549778714776039,-0.00763581553474069
5,1.01388893532575,-0.161111118090472,0.101388894748172,0.0128281703218818,0.00366519158706069,-0.00763581553474069
5,1.01527782720901,-0.156944454596674,0.106944444047242,0.0149661982432008,-0.0152716310694814,-0.00916297826915979
5,1.01527782720901,-0.156944454596674,0.0930555616825939,0.00855211354792118,-0.00610865233466029,-0.00488692196086049
5,1.01527782720901,-0.162500009973726,0.100000002864918,0.0103847095742822,-0.0021380283869803,-0.00305432616733015
5,1.01527782720901,-0.159722226207217,0.0972222251763917,0.01191187184304,0.00641408516094089,-0.00824668072164059
5,1.01527782720901,-0.15555556271342,0.0986111170596459,0.00885754637420177,0.00183259579353034,-0.00305432616733015
5,1.0125000434425,-0.159722226207217,0.0986111170596459,0.013744467869401,-0.000610865245107561,-0.00305432616733015
5,1.0125000434425,-0.159722226207217,0.0986111170596459,0.0213802829384804,-0.000916297896765172,-0.00305432616733015
5,1.01944450285877,-0.158333334323963,0.100000002864918,0.0128281703218818,-0.0113010071218014,0.0033597587607801
5,1.01805561097552,-0.161111118090472,0.0944444474878658,0.00794124789535999,-0.000305432622553781,0.00610865233466029
5,1.01527782720901,-0.170833336961321,0.102777780553444,0.0122173046693206,0.0109955742955208,-0.00641408516094089
5,1.01666671909226,-0.15555556271342,0.0944444474878658,0.0152716310694814,0.00397062394768,-0.00183259579353034
5,1.01805561097552,-0.154166670830166,0.0972222251763917,0.0045814891345799,0.00855211354792118,-0.00763581553474069
5,1.01388893532575,-0.150000007336368,0.0888888921108138,-0.00427605677396059,0.00763581553474069,-0.00946841109544039
5,1.01388893532575,-0.152777778946911,0.0944444474878658,0.00549778714776039,0.0106901414692402,-0.0113010071218014
5,1.01527782720901,-0.15555556271342,0.0986111170596459,-0.0103847095742822,0.00763581553474069,-0.015577063895762
5,1.01527782720901,-0.15555556271342,0.0986111170596459,-0.0149661982432008,0.011606439948082,-0.0100792767480016
5,1.02083339474202,-0.15555556271342,0.0944444474878658,-0.0146607663482428,0.0131336031481624,-0.00580321997404099
5,1.01666671909226,-0.161111118090472,0.0972222251763917,-0.0210748501121998,0.0143553335219622,-0.0103847095742822
5,1.01666671909226,-0.161111118090472,0.0972222251763917,-0.0161879286170006,0.0250454749912024,-0.0113010071218014
5,1.01527782720901,-0.162500009973726,0.101388894748172,-0.0268780700862408,0.0247400421649218,-0.0109955742955208
5,1.01666671909226,-0.154166670830166,0.102777780553444,-0.0171042270958424,0.0189368221908808,-0.011606439948082
5,1.01666671909226,-0.154166670830166,0.102777780553444,-0.0290160998702049,0.0109955742955208,-0.00580321997404099
5,1.01805561097552,-0.154166670830166,0.0833333367337618,-0.0247400421649218,0.0287106670439243,-0.00671951752156019
5,1.01666671909226,-0.162500009973726,0.0847222225390337,-0.0232128798961639,0.0207694191485643,-0.0103847095742822
5,1.01666671909226,-0.162500009973726,0.0847222225390337,-0.00427605677396059,-0.00397062394768,-0.0109955742955208
5,1.01666671909226,-0.16527778158427,0.0958333393711199,0.00488692196086049,0.0100792767480016,0.0021380283869803
5,1.01944450285877,-0.161111118090472,0.102777780553444,0.00733038317412138,0.00671951752156019,-0.00885754637420177
5,1.01527782720901,-0.158333334323963,0.105555564319952,0.0100792767480016,0.0109955742955208,-0.00610865233466029
5,1.01944450285877,-0.156944454596674,0.106944444047242,0.0140499006956816,0.0033597587607801,-0.00122173049021512
5,1.01666671909226,-0.156944454596674,0.104166672436698,0.0146607663482428,-0.000305432622553781,0.00580321997404099
5,1.01527782720901,-0.14722222356986,0.0986111170596459,0.0045814891345799,0.013744467869401,-0.000305432622553781
5,1.01388893532575,-0.150000007336368,0.0986111170596459,0.00702495034784079,0.0290160998702049,-0.000305432622553781
5,1.01805561097552,-0.148611115453114,0.108333335930496,0.00427605677396059,0.0149661982432008,-0.00183259579353034
5,1.01805561097552,-0.148611115453114,0.108333335930496,0.00763581553474069,0.00366519158706069,-0.0106901414692402
5,1.0125000434425,-0.14583334384257,0.101388894748172,-0.00641408516094089,0.00488692196086049,-0.000916297896765172
5,1.01805561097552,-0.150000007336368,0.0986111170596459,-0.0287106670439243,0.0152716310694814,0.00305432616733015
5,1.01805561097552,-0.150000007336368,0.0986111170596459,-0.0210748501121998,0.0412334054708481,-0.00244346098043024
5,1.01666671909226,-0.151388899219622,0.105555564319952,-0.0253509078174829,0.0339030213654041,-0.0183259565383196
5,1.01805561097552,-0.14722222356986,0.101388894748172,-0.0271835029125214,0.0290160998702049,-0.0152716310694814
5,1.01805561097552,-0.14722222356986,0.101388894748172,-0.0332921557128429,0.0167987942695618,-0.0113010071218014
5,1.01666671909226,-0.141666668192807,0.101388894748172,-0.0366519130766392,0.0161879286170006,0.000305432622553781
5,1.01527782720901,-0.150000007336368,0.0986111170596459,-0.0329867228865623,0.0192422550171614,-0.0033597587607801
5,1.01527782720901,-0.150000007336368,0.0986111170596459,-0.0280998013913631,0.0207694191485643,-0.0125227374956012
5,1.01805561097552,-0.154166670830166,0.102777780553444,-0.0210748501121998,0.0189368221908808,-0.0140499006956816
5,1.01388893532575,-0.156944454596674,0.104166672436698,-0.0109955742955208,0.0146607663482428,-0.00794124789535999
5,1.01388893532575,-0.156944454596674,0.104166672436698,-0.00763581553474069,0.00916297826915979,0.00488692196086049
5,1.01527782720901,-0.152777778946911,0.104166672436698,-0.013744467869401,0.00702495034784079,-0.0021380283869803
5,1.01111115155925,-0.156944454596674,0.113888891307548,-0.0131336031481624,0.00733038317412138,0.0109955742955208
5,1.01666671909226,-0.158333334323963,0.112499999424294,-0.00733038317412138,0.00733038317412138,0.0021380283869803
5,1.01805561097552,-0.159722226207217,0.106944444047242,0.00824668072164059,0.00671951752156019,0.00671951752156019
5,1.01527782720901,-0.163888889701015,0.105555564319952,0.0100792767480016,0.00641408516094089,0.013744467869401
5,1.0125000434425,-0.156944454596674,0.106944444047242,0.0128281703218818,0.0128281703218818,0.0183259565383196
5,1.01111115155925,-0.161111118090472,0.112499999424294,0.0192422550171614,0.00397062394768,0.01191187184304
5,1.01527782720901,-0.156944454596674,0.105555564319952,0.0305432621389627,0.00519235478714108,0.0229074470698834
5,1.01805561097552,-0.156944454596674,0.111111119697004,0.0348193198442459,0.00366519158706069,0.0143553335219622
5,1.01666671909226,-0.154166670830166,0.10972222781375,0.0394008085131645,-0.000916297896765172,0.0229074470698834
5,1.01388893532575,-0.15555556271342,0.106944444047242,0.0436768643558025,-0.00244346098043024,0.015577063895762
5,1.0125000434425,-0.154166670830166,0.108333335930496,0.0464257597923279,-0.0113010071218014,0.0167987942695618
5,1.01527782720901,-0.156944454596674,0.101388894748172,0.0488692186772823,-0.00366519158706069,0.0183259565383196
5,1.01805561097552,-0.15555556271342,0.106944444047242,0.0494800843298435,-0.00152716308366507,0.0131336031481624
5,1.01388893532575,-0.150000007336368,0.108333335930496,0.0525344125926495,-0.0113010071218014,0.0180205255746841
5,1.0125000434425,-0.14722222356986,0.108333335930496,0.0467311926186085,-0.0128281703218818,0.00519235478714108
5,1.00972225967599,-0.144444451959316,0.108333335930496,0.0369573459029198,-0.0149661982432008,0.0128281703218818
5,1.0125000434425,-0.143055560076062,0.111111119697004,0.03176499158144,-0.0198531206697226,0.00885754637420177
5,1.0125000434425,-0.148611115453114,0.105555564319952,0.017409659922123,-0.0167987942695618,0.00488692196086049
5,1.01388893532575,-0.148611115453114,0.104166672436698,0.0140499006956816,-0.0177150927484035,0.00580321997404099
5,1.01527782720901,-0.150000007336368,0.112499999424294,0.000305432622553781,-0.0125227374956012,0.0045814891345799
5,1.01805561097552,-0.154166670830166,0.108333335930496,-0.0021380283869803,-0.00305432616733015,0.0045814891345799
5,1.01527782720901,-0.152777778946911,0.102777780553444,-0.0033597587607801,-0.00763581553474069,-0.00305432616733015
5,1.0125000434425,-0.156944454596674,0.101388894748172,-0.0152716310694814,-0.00733038317412138,-0.000610865245107561
5,1.01805561097552,-0.161111118090472,0.102777780553444,-0.0293215326964855,-0.00641408516094089,-0.00305432616733015
5,1.01527782720901,-0.154166670830166,0.104166672436698,-0.0241291765123606,-0.00519235478714108,0.0027488935738802
5,1.01388893532575,-0.156944454596674,0.10972222781375,-0.0268780700862408,-0.00488692196086049,0.0113010071218014
5,1.01944450285877,-0.161111118090472,0.102777780553444,-0.0354301854968071,-0.01191187184304,0.0131336031481624
5,1.01527782720901,-0.163888889701015,0.105555564319952,-0.0397062413394451,-0.00610865233466029,0.00733038317412138
5,1.0125000434425,-0.161111118090472,0.0958333393711199,-0.0390953756868839,-0.00549778714776039,0.00519235478714108
5,1.01805561097552,-0.156944454596674,0.101388894748172,-0.0394008085131645,-0.0021380283869803,0.013744467869401
5,1.01944450285877,-0.159722226207217,0.0986111170596459,-0.0488692186772823,-0.00549778714776039,0.00549778714776039
5,1.01527782720901,-0.156944454596674,0.0972222251763917,-0.0510072484612465,-0.00397062394768,0.00671951752156019
5,1.0125000434425,-0.156944454596674,0.106944444047242,-0.0513126812875271,-0.00610865233466029,0.00397062394768
5,1.01666671909226,-0.162500009973726,0.105555564319952,-0.0491746515035629,-0.00152716308366507,0.00549778714776039
5,1.01527782720901,-0.156944454596674,0.102777780553444,-0.0421497002243996,-0.00305432616733015,0.013744467869401
5,1.01527782720901,-0.161111118090472,0.102777780553444,-0.0406225398182869,-0.0021380283869803,0.00427605677396059
5,1.01944450285877,-0.162500009973726,0.102777780553444,-0.0311541277915239,-0.00549778714776039,0.0021380283869803
5,1.01666671909226,-0.16527778158427,0.104166672436698,-0.0305432621389627,0.00397062394768,-0.000610865245107561
5,1.01805561097552,-0.166666673467524,0.0986111170596459,-0.01191187184304,-0.00488692196086049,-0.0027488935738802
5,1.01388893532575,-0.163888889701015,0.101388894748172,-0.00549778714776039,0.00794124789535999,-0.0045814891345799
5,1.01527782720901,-0.162500009973726,0.108333335930496,0.0045814891345799,-0.00488692196086049,-0.00519235478714108
5,1.01527782720901,-0.162500009973726,0.111111119697004,0.0201585534960032,-0.00733038317412138,-0.00488692196086049
5,1.0125000434425,-0.15555556271342,0.111111119697004,0.0164933614432812,-0.0122173046693206,0.00488692196086049
5,1.01805561097552,-0.156944454596674,0.112499999424294,0.0183259565383196,-0.015577063895762,0.00641408516094089
5,1.01388893532575,-0.158333334323963,0.108333335930496,0.0171042270958424,-0.0180205255746841,0.00855211354792118
5,1.01527782720901,-0.166666673467524,0.111111119697004,0.0339030213654041,-0.00305432616733015,0.00824668072164059
5,1.01527782720901,-0.169444445078067,0.105555564319952,0.0409279726445675,0.0033597587607801,-0.00427605677396059
5,1.0125000434425,-0.163888889701015,0.100000002864918,0.0580321997404099,-0.00549778714776039,-0.00855211354792118
5,1.01388893532575,-0.166666673467524,0.106944444047242,0.0641408488154411,-0.00702495034784079,0.00610865233466029
5,1.01527782720901,-0.168055565350778,0.112499999424294,0.0659734457731247,-0.00763581553474069,0.00916297826915979
5,1.01805561097552,-0.161111118090472,0.104166672436698,0.0696386396884918,-0.0125227374956012,-0.00580321997404099
5,1.02083339474202,-0.154166670830166,0.102777780553444,0.0714712366461754,-0.00733038317412138,0.00794124789535999
5,1.01527782720901,-0.15555556271342,0.0916666697993398,0.0803287774324417,-0.00488692196086049,0.0149661982432008
5,1.02083339474202,-0.150000007336368,0.0930555616825939,0.0678060427308083,-0.0122173046693206,0.0103847095742822
5,1.02083339474202,-0.150000007336368,0.0944444474878658,0.0699440687894821,-0.00549778714776039,0.00671951752156019
5,1.01527782720901,-0.154166670830166,0.0958333393711199,0.0580321997404099,-0.00916297826915979,0.017409659922123
5,1.0125000434425,-0.154166670830166,0.0958333393711199,0.0574213340878487,-0.0131336031481624,0.0241291765123606
5,1.0125000434425,-0.161111118090472,0.0944444474878658,0.0577267669141293,-0.0143553335219622,0.0192422550171614
5,1.01666671909226,-0.150000007336368,0.0902777839940679,0.0513126812875271,-0.0100792767480016,0.0167987942695618
5,1.01805561097552,-0.14722222356986,0.104166672436698,0.0470366254448891,-0.00885754637420177,0.0146607663482428
5,1.01805561097552,-0.14722222356986,0.104166672436698,0.0400116741657257,-0.0109955742955208,0.0109955742955208
5,1.01944450285877,-0.150000007336368,0.102777780553444,0.0167987942695618,-0.00946841109544039,0.0125227374956012
5,1.01944450285877,-0.150000007336368,0.100000002864918,0.01191187184304,-0.0113010071218014,-0.00183259579353034
5,1.01805561097552,-0.150000007336368,0.101388894748172,0.0027488935738802,-0.00519235478714108,0.0125227374956012
5,1.01527782720901,-0.15555556271342,0.0888888921108138,-0.0164933614432812,0.00152716308366507,0.00122173049021512
5,1.01527782720901,-0.158333334323963,0.0958333393711199,-0.0201585534960032,-0.00366519158706069,0.000305432622553781
5,1.01527782720901,-0.158333334323963,0.0958333393711199,-0.0308486949652433,0.00183259579353034,-0.00427605677396059
5,1.0125000434425,-0.154166670830166,0.104166672436698,-0.0433714315295219,0.00641408516094089,-0.00152716308366507
5,1.01527782720901,-0.16527778158427,0.0972222251763917,-0.0412334054708481,-0.000305432622553781,0.0021380283869803
5,1.01527782720901,-0.16527778158427,0.0972222251763917,-0.0381790772080422,0.00397062394768,-0.00366519158706069
5,1.01527782720901,-0.15555556271342,0.104166672436698,-0.0418442711234093,-0.0027488935738802,-0.00580321997404099
5,1.01388893532575,-0.159722226207217,0.105555564319952,-0.0500909499824047,0.000610865245107561,-0.000610865245107561
5,1.01388893532575,-0.159722226207217,0.105555564319952,-0.0461203269660473,-0.00519235478714108,0.00244346098043024
5,1.01527782720901,-0.163888889701015,0.0930555616825939,-0.0494800843298435,0.00794124789535999,-0.00244346098043024
5,1.01666671909226,-0.168055565350778,0.100000002864918,-0.0522289797663689,0.013744467869401,-0.00702495034784079
5,1.01944450285877,-0.16527778158427,0.0916666697993398,-0.0534507073462009,0.01191187184304,-0.00885754637420177
5,1.01527782720901,-0.169444445078067,0.0944444474878658,-0.0479529201984406,0.0109955742955208,-0.00794124789535999
5,1.01527782720901,-0.166666673467524,0.101388894748172,-0.0412334054708481,0.0113010071218014,-0.017409659922123
5,1.01111115155925,-0.166666673467524,0.0986111170596459,-0.0348193198442459,0.0106901414692402,-0.011606439948082
5,1.01805561097552,-0.168055565350778,0.100000002864918,-0.0271835029125214,0.0103847095742822,-0.019547687843442
5,1.0125000434425,-0.163888889701015,0.100000002864918,-0.0287106670439243,0.021685715764761,-0.0100792767480016
5,1.0125000434425,-0.163888889701015,0.101388894748172,-0.0247400421649218,0.0146607663482428,-0.0149661982432008
5,1.01388893532575,-0.162500009973726,0.108333335930496,-0.0219911485910416,0.01191187184304,-0.000610865245107561
5,1.01805561097552,-0.163888889701015,0.108333335930496,-0.00397062394768,0.0149661982432008,0.0106901414692402
5,1.01805561097552,-0.169444445078067,0.115277783190802,0.00580321997404099,0.0146607663482428,0.00152716308366507
5,1.01527782720901,-0.163888889701015,0.108333335930496,0.0201585534960032,0.0134390350431204,-0.00152716308366507
5,1.0125000434425,-0.169444445078067,0.102777780553444,0.0226020142436027,0.0161879286170006,0.00427605677396059
5,1.0125000434425,-0.166666673467524,0.108333335930496,0.0314595587551594,0.00824668072164059,-0.00183259579353034
5,1.01527782720901,-0.169444445078067,0.102777780553444,0.04764748737216,0.0103847095742822,0.0122173046693206
5,1.01944450285877,-0.163888889701015,0.104166672436698,0.0507018156349659,0.00916297826915979,0.00122173049021512
5,1.01944450285877,-0.161111118090472,0.102777780553444,0.0613919571042061,0.0146607663482428,-0.00671951752156019
5,1.01527782720901,-0.163888889701015,0.104166672436698,0.070249505341053,0.0149661982432008,0.000305432622553781
5,1.01666671909226,-0.162500009973726,0.104166672436698,0.0791070461273193,0.0149661982432008,-0.00855211354792118
5,1.01527782720901,-0.158333334323963,0.0986111170596459,0.0791070461273193,0.013744467869401,-0.00488692196086049
5,1.01111115155925,-0.144444451959316,0.104166672436698,0.0766635909676552,0.000610865245107561,0.011606439948082
5,1.01527782720901,-0.143055560076062,0.100000002864918,0.0684169083833694,-0.000916297896765172,0.0149661982432008
5,1.01944450285877,-0.151388899219622,0.100000002864918,0.0620028227567673,0.00549778714776039,0.0140499006956816
5,1.01805561097552,-0.156944454596674,0.104166672436698,0.0571159012615681,0.0103847095742822,0.00397062394768
5,1.01666671909226,-0.150000007336368,0.0944444474878658,0.0546724386513233,0.00305432616733015,0.0189368221908808
5,1.01527782720901,-0.14722222356986,0.0888888921108138,0.0427605658769607,0.00183259579353034,0.0280998013913631
5,1.01805561097552,-0.152777778946911,0.104166672436698,0.0485637858510017,0.00305432616733015,0.0189368221908808
5,1.01527782720901,-0.15555556271342,0.104166672436698,0.0473420582711697,0.00427605677396059,0.00916297826915979
5,1.02083339474202,-0.156944454596674,0.101388894748172,0.0470366254448891,0.00824668072164059,0.00488692196086049
5,1.01805561097552,-0.154166670830166,0.111111119697004,0.0412334054708481,-0.00366519158706069,0.00946841109544039
5,1.0125000434425,-0.161111118090472,0.106944444047242,0.0412334054708481,-0.00366519158706069,0.00671951752156019
5,1.01388893532575,-0.156944454596674,0.108333335930496,0.0351247526705265,-0.000610865245107561,0.00244346098043024
5,1.01666671909226,-0.151388899219622,0.102777780553444,0.0256563406437635,0.00580321997404099,0.01191187184304
5,1.0125000434425,-0.144444451959316,0.104166672436698,0.019547687843442,0.00305432616733015,0.0113010071218014
5,1.0125000434425,-0.131944449321958,0.108333335930496,0.0152716310694814,-0.00641408516094089,0.0219911485910416
5,1.01527782720901,-0.141666668192807,0.101388894748172,-0.000916297896765172,-0.0143553335219622,0.0125227374956012
5,1.01666671909226,-0.144444451959316,0.0944444474878658,-0.013744467869401,-0.00610865233466029,0.00885754637420177
5,1.01388893532575,-0.14722222356986,0.102777780553444,-0.0256563406437635,-0.00366519158706069,0.00794124789535999
5,1.0125000434425,-0.148611115453114,0.0986111170596459,-0.0323758572340012,-0.0033597587607801,0.0113010071218014
5,1.01527782720901,-0.154166670830166,0.102777780553444,-0.0314595587551594,0.000305432622553781,0.00549778714776039
5,1.01527782720901,-0.150000007336368,0.10972222781375,-0.0311541277915239,-0.00244346098043024,0.0100792767480016
5,1.01388893532575,-0.15555556271342,0.112499999424294,-0.0357356183230877,0.0045814891345799,0.00763581553474069
5,1.0125000434425,-0.158333334323963,0.113888891307548,-0.0366519130766392,-0.00794124789535999,0.01588249579072
5,1.0125000434425,-0.159722226207217,0.100000002864918,-0.0363464802503586,-0.00702495034784079,0.0113010071218014
5,1.0125000434425,-0.158333334323963,0.108333335930496,-0.029626963660121,-0.0109955742955208,0.00733038317412138
5,1.01666671909226,-0.161111118090472,0.108333335930496,-0.0226020142436027,-0.00824668072164059,0.0198531206697226
5,1.01805561097552,-0.158333334323963,0.102777780553444,-0.0134390350431204,-0.00733038317412138,0.00977384392172098
5,1.0125000434425,-0.161111118090472,0.102777780553444,-0.0210748501121998,-0.0177150927484035,0.0180205255746841
5,1.0125000434425,-0.17361112072783,0.108333335930496,-0.00702495034784079,-0.00885754637420177,0.0201585534960032
5,1.01666671909226,-0.172222228844576,0.106944444047242,0.00183259579353034,-0.0109955742955208,0.011606439948082
5,1.00972225967599,-0.17361112072783,0.102777780553444,0.017409659922123,-0.0103847095742822,0.00610865233466029
5,1.0125000434425,-0.161111118090472,0.106944444047242,0.0293215326964855,-0.0167987942695618,0.00641408516094089
