Activity,acc_x,acc_y,acc_z,gyro_x,gyro_y,gyro_z
0,0.600000029345471,0.113888891307548,0.769444450111609,0.0311541277915239,0.0424551330506802,0.157297804951668
0,0.591666678045946,0.108333335930496,0.779166693294388,0.0448985956609249,0.0842994004487991,0.125532805919647
0,0.565277780887976,0.0972222251763917,0.777777801411134,0.156076073646545,0.0314595587551594,-0.0201585534960032
0,0.565277780887976,0.0972222251763917,0.777777801411134,0.156076073646545,0.0314595587551594,-0.0201585534960032
0,0.550000018796039,0.102777780553444,0.823611136310804,0.113620936870575,0.0534507073462009,-0.0488692186772823
0,0.54027777561326,0.0972222251763917,0.827777811960566,0.0140499006956816,0.0152716310694814,-0.109650313854218
0,0.536111148587356,0.0986111170596459,0.833333379493583,-0.0540615729987621,-0.0836885422468185,-0.171958565711975
0,0.545833343146276,0.101388894748172,0.836111163260091,-0.0387899428606033,-0.0794124826788902,-0.2165517359972
0,0.555555586329055,0.108333335930496,0.819444460661041,-0.0326812900602817,-0.0888808965682983,-0.266031801700592
0,0.569444456537738,0.115277783190802,0.808333374218867,-0.0885754600167274,-0.0665843114256859,-0.28008171916008
0,0.625000034620187,0.134722233088466,0.779166693294388,-0.102319926023483,-0.0146607663482428,-0.226020142436027
0,0.643055580478633,0.13750000469901,0.779166693294388,-0.0620028227567673,0.0974330082535744,-0.148134827613831
0,0.643055580478633,0.13750000469901,0.779166693294388,-0.0467311926186085,0.12705996632576,-0.0546724386513233
0,0.643055580478633,0.13750000469901,0.779166693294388,-0.0726929605007172,0.0513126812875271,-0.0161879286170006
0,0.643055580478633,0.13750000469901,0.779166693294388,-0.015577063895762,0.0824668109416962,0.0125227374956012
0,0.643055580478633,0.13750000469901,0.779166693294388,0.00152716308366507,0.0711658000946045,0.0607810914516449
0,0.659722234453824,0.156944454596674,0.798611131036088,-0.0140499006956816,0.0253509078174829,0.146913096308708
0,0.65833334257057,0.156944454596674,0.813888941751883,-0.00641408516094089,0.021685715764761,0.226325571537018
0,0.654166666920807,0.161111118090472,0.805555590452358,0.0250454749912024,0.0213802829384804,0.300545692443848
0,0.625000034620187,0.140277788465518,0.795833347269579,0.0366519130766392,0.0745255574584007,0.284357786178589
0,0.597222245578963,0.118055554801345,0.795833347269579,0.0357356183230877,0.148440256714821,0.229685336351395
0,0.575000024070755,0.104166672436698,0.798611131036088,0.00519235478714108,0.05283984541893,0.177150920033455
0,0.545833343146276,0.0944444474878658,0.808333374218867,0.0226020142436027,-0.0250454749912024,0.0842994004487991
0,0.529166689171085,0.0833333367337618,0.808333374218867,0.0351247526705265,-0.0870482996106148,-0.0638354197144508
0,0.525000013521323,0.0750000036681839,0.801388914802596,0.0109955742955208,-0.0696386396884918,-0.142942473292351
0,0.558333370095563,0.102777780553444,0.806944482335612,-0.0106901414692402,-0.137750118970871,-0.233350530266762
0,0.558333370095563,0.102777780553444,0.806944482335612,-0.0106901414692402,-0.137750118970871,-0.233350530266762
0,0.597222245578963,0.118055554801345,0.804166698569104,-0.00519235478714108,-0.159435823559761,-0.211664810776711
0,0.636111121062362,0.136111112815755,0.793055563503071,-0.00702495034784079,-0.0354301854968071,-0.115148097276688
0,0.670833369519857,0.144444451959316,0.791666671619817,-0.00916297826915979,0.0287106670439243,0.00183259579353034
0,0.663888910103586,0.138888896582264,0.781944477060896,-0.02382374368608,0.0210748501121998,0.11636982858181
0,0.644444472361887,0.133333341205212,0.775000017644626,-0.0192422550171614,0.0629191175103188,0.172569438815117
0,0.630555602153203,0.125000002061652,0.781944477060896,-0.0180205255746841,0.10598511993885,0.170431405305862
0,0.598611137462217,0.10972222781375,0.791666671619817,0.0256563406437635,0.0653625801205635,0.141109868884087
0,0.562499997121468,0.0944444474878658,0.811111157985375,0.0675006061792374,-0.00549778714776039,0.0736092627048492
0,0.53750004047061,0.0819444448505077,0.833333379493583,0.0262672062963247,-0.0455094613134861,-0.0201585534960032
0,0.515277818962402,0.0736111117849297,0.818055568777787,-0.0329867228865623,-0.0794124826788902,-0.140804439783096
0,0.509722251429385,0.0666666706026059,0.825000028194058,-0.0033597587607801,-0.129503428936005,-0.311235845088959
0,0.523611121638068,0.0833333367337618,0.82222224442755,-0.000305432622553781,-0.161268427968025,-0.401338458061218
0,0.545833343146276,0.0916666697993398,0.818055568777787,-0.0708603709936142,-0.182954147458077,-0.441044718027115
0,0.584722267253534,0.1194444466846,0.793055563503071,-0.120340451598167,-0.133779495954514,-0.427300244569778
0,0.670833369519857,0.150000007336368,0.78333336894415,-0.148440256714821,-0.0128281703218818,-0.238542884588242
0,0.725000007095193,0.175000000455119,0.751388904253164,-0.124005645513535,0.0045814891345799,0.0778853222727776
0,0.702777785586986,0.161111118090472,0.736111142161226,-0.0678060427308083,0.0784961804747581,0.251981914043427
0,0.645833364245141,0.120833338567854,0.723611115211939,-0.0387899428606033,0.186619326472282,0.171958565711975
0,0.575000024070755,0.0819444448505077,0.775000017644626,0.0546724386513233,0.23823744058609,0.0226020142436027
0,0.470833327322128,0.0430555572111439,0.877777822509998,0.207694187760353,0.140193566679955,-0.191200822591782
0,0.400000011459671,0.033333335301303,0.947222222177272,0.182037845253944,-0.412028610706329,-0.656069278717041
0,0.400000011459671,0.033333335301303,0.947222222177272,-0.150883719325066,-0.639270484447479,-0.950506329536438
0,0.42916666807222,0.0638888929140799,0.969444492309338,-0.53328537940979,-0.504269242286682,-1.17255580425262
0,0.488888921804431,0.108333335930496,0.922222265526414,-0.756251156330109,-0.26969701051712,-1.24463796615601
0,0.647222256128395,0.180555567988136,0.825000028194058,-0.676227807998657,-0.310014098882675,-0.616668462753296
0,0.880555606276507,0.236111109602691,0.569444456537738,0.200363799929619,-0.0507018156349659,0.324980318546295
0,0.901388887277602,0.243055569018962,0.493055597454194,1.06321096420288,0.341168224811554,0.966694235801697
0,0.901388887277602,0.243055569018962,0.493055597454194,0.874148190021515,0.423329621553421,1.03419482707977
0,0.752777796136418,0.208333344873396,0.584722267253534,0.325285732746124,1.25196826457977,0.738841533660889
0,0.562499997121468,0.120833338567854,0.784722260827405,0.294437050819397,1.05160450935364,0.207083314657211
0,0.351388892793493,0.0680555564078778,0.936111184358955,0.253203630447388,0.0632245540618896,-0.341473668813705
0,0.277777793164528,0.0486111125881959,1.04305556762637,0.0659734457731247,-0.521373510360718,-0.797179162502289
0,0.298611122789481,0.0722222259796579,1.06805562152495,-0.484110713005066,-0.446847915649414,-1.18538403511047
0,0.352777784676747,0.104166672436698,1.01666671909226,-0.89308500289917,-0.120035022497177,-1.40865528583527
0,0.490277813687686,0.158333334323963,0.931944508709193,-1.18660569190979,0.278249114751816,-1.30419731140137
0,0.615277791437408,0.188888894975731,0.805555590452358,-1.18599486351013,0.168598800897598,-0.846353769302368
0,0.666666693870094,0.188888894975731,0.716666704419527,-0.718072116374969,0.0815505087375641,-0.613614141941071
0,0.648611148011649,0.156944454596674,0.702777785586986,-0.206472456455231,-0.0113010071218014,-0.608727216720581
0,0.640277796712124,0.161111118090472,0.734722250277972,-0.0629191175103188,-0.0189368221908808,-0.632245540618896
0,0.629166710269949,0.16527778158427,0.775000017644626,-0.21135938167572,-0.0855211317539215,-0.670119166374207
0,0.611111115787646,0.168055565350778,0.791666671619817,-0.348498612642288,0.131336033344269,-0.628885746002197
0,0.581944483487025,0.158333334323963,0.786111152710659,-0.428216546773911,0.0714712366461754,-0.610559821128845
0,0.56666667277123,0.159722226207217,0.788888936477167,-0.401338458061218,0.0601702257990837,-0.44898596405983
0,0.577777807837263,0.130555557438704,0.787500044593913,-0.196087747812271,0.112704634666443,-0.347276896238327
0,0.548611126912784,0.0819444448505077,0.820833352544296,0.0907134860754013,0.145691365003586,-0.561996042728424
0,0.548611126912784,0.241666677135707,0.854166660494678,-0.200974673032761,-0.448375076055527,0.29046642780304
0,0.709722245003256,0.262500006760661,0.906944454810619,-0.414777487516403,-0.859792828559875,0.239764615893364
0,0.688888915378302,0.220833347510754,0.844444514559616,-0.294437050819397,-0.499687761068344,0.0940732508897781
0,0.663888910103586,0.179166676104882,0.765277823085705,-0.413861215114594,0.107206851243973,-0.000916297896765172
0,0.587500002396184,0.113888891307548,0.762500039319197,-0.366213709115982,0.279470860958099,-0.228463605046272
0,0.509722251429385,0.0888888921108138,0.761111147435943,-0.0534507073462009,0.391564607620239,-0.336586743593216
0,0.449999997697174,0.105555564319952,0.770833341994863,0.164628177881241,0.0470366254448891,-0.28008171916008
0,0.477777786738398,0.118055554801345,0.781944477060896,0.159741267561913,-0.423024177551269,-0.147523954510689
0,0.490277813687686,0.125000002061652,0.773611125761372,0.168293371796608,-0.564744889736176,-0.0919352173805237
0,0.538888932353864,0.134722233088466,0.729166682744956,0.135917514562607,-0.432492583990097,-0.13744467496872
0,0.644444472361887,0.156944454596674,0.747222228603401,0.000916297896765172,-0.0910189226269722,-0.30757063627243
0,0.630555602153203,0.161111118090472,0.759722255552688,-0.149661988019943,0.0842994004487991,-0.348498612642288
0,0.56666667277123,0.17361112072783,0.773611125761372,-0.269391566514969,0.299323976039886,-0.258090555667877
0,0.554166694445801,0.179166676104882,0.779166693294388,-0.250760197639465,0.311235845088959,-0.215635433793068
0,0.558333370095563,0.170833336961321,0.779166693294388,-0.228463605046272,0.167682513594627,-0.198836639523506
0,0.541666667496514,0.112499999424294,0.847222298326124,-0.0803287774324417,0.411417752504349,-0.0946841165423393
0,0.576388915954009,0.181944447715425,0.85138887672817,-0.0522289797663689,0.382096201181412,-0.181426972150803
0,0.570833348420992,0.187500003092477,0.880555606276507,-0.165544480085373,0.261144906282425,-0.136528387665749
0,0.533333364820847,0.163888889701015,0.849999984844916,-0.409279704093933,0.505491018295288,0.0265726372599602
0,0.561111153862072,0.176388892338373,0.854166660494678,-0.281303435564041,0.35430184006691,-0.0833831056952477
0,0.572222240304247,0.166666673467524,0.861111119910949,-0.335975885391235,0.568715572357178,-0.0769690200686455
0,0.600000029345471,0.180555567988136,0.855555552377932,-0.21685716509819,-0.0925460830330849,-0.177456349134445
0,0.588888894279438,0.152777778946911,0.841666730793107,-0.186619326472282,-0.363464832305908,-0.247400417923927
0,0.561111153862072,0.140277788465518,0.84583340644287,-0.111788339912891,-0.419664412736893,-0.262366622686386
0,0.544444451263022,0.154166670830166,0.837500055143345,-0.0299323964864016,-0.357356160879135,-0.255036234855652
0,0.534722256704101,0.168055565350778,0.813888941751883,-0.0595593601465225,-0.406225383281708,-0.155465200543404
0,0.562499997121468,0.162500009973726,0.815277785011279,-0.159435823559761,-0.495411723852158,-0.0781907513737679
0,0.604166704995233,0.156944454596674,0.815277785011279,-0.228158175945282,-0.478307485580444,-0.0806342139840126
0,0.576388915954009,0.161111118090472,0.805555590452358,-0.284357786178589,-0.44409903883934,-0.0681114718317986
0,0.58611111051293,0.156944454596674,0.795833347269579,-0.298713117837906,-0.357967019081116,-0.0592539273202419
0,0.572222240304247,0.154166670830166,0.795833347269579,-0.291382730007172,-0.344833433628082,-0.00824668072164059
0,0.572222240304247,0.14583334384257,0.794444455386325,-0.229074463248253,-0.341473668813705,0.0229074470698834
0,0.602777813111979,0.148611115453114,0.788888936477167,-0.108123145997524,-0.357356160879135,-0.0253509078174829
0,0.611111115787646,0.140277788465518,0.780555585177642,-0.109039448201656,-0.281303435564041,-0.0852157026529312
0,0.611111115787646,0.140277788465518,0.780555585177642,-0.10048733651638,-0.328950941562653,-0.155770644545555
0,0.63888890482887,0.180555567988136,0.825000028194058,-0.0791070461273193,-0.244040668010712,-0.251676470041275
0,0.644444472361887,0.166666673467524,0.826388920077312,-0.0500909499824047,-0.240680903196335,-0.255647093057633
0,0.644444472361887,0.166666673467524,0.826388920077312,-0.117286130785942,-0.371100634336472,-0.251981914043427
0,0.676388937052873,0.12777778582816,0.795833347269579,-0.0681114718317986,-0.236404851078987,-0.330783516168594
0,0.673611153286365,0.12777778582816,0.790277828360421,-0.0299323964864016,0.101709060370922,-0.436463207006455
0,0.673611153286365,0.12777778582816,0.790277828360421,0.00671951752156019,0.281608879566193,-0.494189977645874
0,0.661111126337078,0.156944454596674,0.791666671619817,0.0839939713478088,0.262672066688538,-0.588568687438965
0,0.661111126337078,0.156944454596674,0.791666671619817,0.167071640491486,0.162184715270996,-0.63896507024765
0,0.641666688595378,0.170833336961321,0.791666671619817,-0.0412334054708481,0.190895393490791,-0.272140473127365
0,0.509722251429385,0.281944444502361,0.718055596302781,-0.235183119773865,-0.0421497002243996,0.0418442711234093
0,0.52083333787156,0.148611115453114,0.747222228603401,-0.175623759627342,0.12156218290329,-0.0992656052112579
0,0.581944483487025,0.166666673467524,0.758333363669434,-0.229379892349243,-0.0525344125926495,0.0293215326964855
0,0.568055564654484,0.175000000455119,0.763888931202451,-0.0720821022987366,-0.306043475866318,0.17440202832222
0,0.559722261978817,0.169444445078067,0.763888931202451,0.0620028227567673,-0.119729585945606,0.0937678143382072
0,0.630555602153203,0.161111118090472,0.773611125761372,0.0568104684352875,0.166460782289505,0.145691365003586
0,0.545833343146276,0.179166676104882,0.752777796136418,-0.0277943685650826,-0.149051114916802,0.32742378115654
0,0.625000034620187,0.141666668192807,0.755555579902926,-0.0827722400426865,-0.291688144207001,0.357661604881287
0,0.5930555699292,0.125000002061652,0.75000001236991,-0.129503428936005,-0.399200439453125,0.445015341043472
0,0.584722267253534,0.1194444466846,0.762500039319197,-0.213802829384804,-0.408974289894104,0.325591176748276
0,0.670833369519857,0.101388894748172,0.745833336720147,-0.257479697465897,-0.316428184509277,0.255647093057633
0,0.647222256128395,0.10972222781375,0.763888931202451,-0.160352125763893,-0.0873537287116051,0.193033412098885
0,0.676388937052873,0.100000002864918,0.772222233878117,-0.0690277740359306,0.182648703455925,0.0510072484612465
0,0.675000045169619,0.0986111170596459,0.798611131036088,0.00305432616733015,0.422413319349289,-0.110566608607769
0,0.697222266677827,0.0888888921108138,0.804166698569104,-0.00763581553474069,0.427605658769607,-0.212581098079681
0,0.702777785586986,0.0652777787193518,0.820833352544296,0.000610865245107561,0.479529231786728,-0.317344486713409
0,0.712500028769764,0.0513888902767219,0.82222224442755,-0.0442877300083637,0.603534877300262,-0.430965423583984
0,0.670833369519857,0.0847222225390337,0.788888936477167,-0.167377084493637,0.762359797954559,-0.43860125541687
0,0.568055564654484,0.0986111170596459,0.786111152710659,-0.215635433793068,0.653931260108948,-0.267253547906876
0,0.427777776188966,0.12777778582816,0.804166698569104,-0.310930401086807,0.110261179506779,0.166155353188515
0,0.580555591603771,0.115277783190802,0.768055606852213,-0.244651526212692,0.337503045797348,-0.0400116741657257
0,0.625000034620187,0.111111119697004,0.804166698569104,-0.193949714303017,0.64079761505127,-0.135917514562607
0,0.581944483487025,0.0944444474878658,0.819444460661041,-0.142026171088219,0.76052725315094,-0.13744467496872
0,0.575000024070755,0.0819444448505077,0.82222224442755,-0.21685716509819,0.663094222545624,-0.0045814891345799
0,0.458333348996699,0.0777777813567098,0.759722255552688,-0.492051959037781,0.0235183127224445,0.325896620750427
0,0.504166683896369,0.0763888894734557,0.791666671619817,-0.530536472797394,-0.318566232919693,0.32742378115654
0,0.53750004047061,0.0583333375370279,0.798611131036088,-0.294437050819397,-0.466090172529221,0.255647093057633
0,0.544444451263022,0.0930555616825939,0.923611157409668,0.0888808965682983,-0.415082931518555,0.220827788114548
0,0.544444451263022,0.0930555616825939,0.923611157409668,0.16890424489975,-0.324674874544144,0.183870434761047
0,0.58611111051293,0.104166672436698,0.940277860008718,0.236710280179977,-0.0882700309157372,0.0839939713478088
0,0.544444451263022,0.12777778582816,0.805555590452358,-0.02382374368608,0.191811680793762,0.0855211317539215
0,0.505555575779623,0.0944444474878658,0.733333358394718,-0.320704251527786,0.0277943685650826,0.255647093057633
0,0.495833332596844,0.0652777787193518,0.754166688019672,-0.432798027992248,-0.230601623654366,0.525344133377075
0,0.525000013521323,0.0708333340964038,0.786111152710659,-0.422107875347138,-0.386372268199921,0.601091384887695
0,0.584722267253534,0.0583333375370279,0.820833352544296,-0.411723166704178,-0.125532805919647,0.562301456928253
0,0.647222256128395,0.0180555564949145,0.870833363093728,-0.298713117837906,0.04764748737216,0.345138877630234
0,0.66527780198684,-0.0125000003581147,0.881944498159761,-0.114231802523136,0.0241291765123606,0.155159771442413
0,0.620833358970425,0.00555555575692586,0.787500044593913,-0.13744467496872,0.250760197639465,-0.0604756586253643
0,0.536111148587356,-0.00694444498106275,0.779166693294388,-0.249843880534172,0.353080123662949,-0.0134390350431204
0,0.515277818962402,-0.0194444453391775,0.834722271376837,-0.208610475063324,-0.0635299831628799,0.196698606014252
0,0.541666667496514,-0.029166668768514,0.86805557932722,-0.153938040137291,-0.408057987689972,0.281303435564041
0,0.554166694445801,-0.00972222266958873,0.86805557932722,0.0259617734700441,-0.473115146160126,0.330172657966614
0,0.54027777561326,0.0180555564949145,0.745833336720147,-0.141720741987228,-0.123089343309402,0.343611687421799
0,0.500000008246606,-0.00277777787846293,0.752777796136418,-0.211664810776711,0.122173048555851,0.340557366609573
0,0.506944467662877,-0.055555559848502,0.752777796136418,-0.242513507604599,-0.155770644545555,0.520762622356415
0,0.522222229754814,-0.0722222259796579,0.754166688019672,-0.32284227013588,-0.383012503385544,0.605367481708527
0,0.522222229754814,-0.0722222259796579,0.754166688019672,-0.393091797828674,-0.252287358045578,0.589484989643097
0,0.572222240304247,-0.026388891079988,0.837500055143345,-0.372016936540604,-0.188757359981537,0.521068036556244
0,0.527777797287831,-0.0166666676506515,0.791666671619817,-0.520151734352112,-0.0427605658769607,0.635299861431122
0,0.798611131036088,-0.188888894975731,0.618055575203916,-0.751669704914093,0.320704251527786,0.376293003559113
0,0.804166698569104,-0.236111109602691,0.690277807261557,-0.883311152458191,1.23394775390625,-0.496633440256119
0,0.606944488761742,-0.308333341660331,0.719444488186035,-0.748920798301697,1.13223874568939,-0.635910749435425
0,0.618055575203916,-0.329166671285285,0.652777823661411,-0.976468086242676,-0.0641408488154411,-0.726013362407684
0,0.618055575203916,-0.329166671285285,0.652777823661411,-1.29472887516022,-1.27701377868652,-0.693026602268219
0,0.812500049868629,-0.379166681834717,0.486111138037923,-1.69423472881317,-2.12794899940491,0.0849102661013603
0,0.812500049868629,-0.379166681834717,0.486111138037923,-2.24034833908081,-3.5613443851471,0.575129628181458
0,0.827777811960566,-0.468055592179478,0.516666662221798,-2.84082889556885,-4.83866357803345,0.404698222875595
0,0.865277795560711,-0.591666678045946,0.505555575779623,-3.26904535293579,-5.92508745193482,-0.526260435581207
0,0.954166681593543,-0.625000034620187,0.554166694445801,-3.5979962348938,-6.86673641204834,-1.75257241725922
0,0.820833352544296,-0.490277813687686,0.545833343146276,-3.8435640335083,-6.25342750549316,-1.4957035779953
0,1.00000001649321,-0.53750004047061,0.498611116363352,-4.45687294006348,-2.67558979988098,-1.67835223674774
0,0.805555590452358,-0.548611126912784,0.473611111088636,-4.76871967315674,-2.4346034526825,-2.06838965415955
0,0.805555590452358,-0.548611126912784,0.473611111088636,-4.07233333587646,-4.69785928726196,-1.2855658531189
0,0.915277806110144,-0.449999997697174,0.17361112072783,-3.56959104537964,-3.82829260826111,-1.49051117897034
0,0.940277860008718,-0.298611122789481,-0.0500000014324589,-3.52408170700073,-3.87899422645569,-1.39888143539429
0,0.940277860008718,-0.298611122789481,-0.0500000014324589,-3.69756722450256,-3.44619631767273,-0.894306719303131
0,0.961111141009813,-0.0833333367337618,-0.200000005729836,-3.20734786987305,-3.10075187683106,-0.397978693246841
0,0.961111141009813,-0.0833333367337618,-0.200000005729836,-1.68385004997253,-1.58580613136292,-0.943481385707855
0,0.905555562927365,-0.0722222259796579,-0.238888893369199,-0.659734487533569,-1.44958317279816,-1.95965576171875
0,0.815277785011279,-0.0722222259796579,-0.2194444556275,-0.786489009857178,-1.166752576828,-1.8112154006958
0,0.929166724942685,0.288888903918631,-0.426388884305712,-1.55831718444824,-1.00517880916596,-0.558330833911896
0,0.979166735492117,0.308333341660331,-0.458333348996699,-2.0512855052948,-1.88177037239075,0.0629191175103188
0,0.979166735492117,0.308333341660331,-0.458333348996699,-1.72813773155212,-1.67102181911469,0.150883719325066
0,0.905555562927365,0.226388890731841,-0.222222239394008,-0.691193997859955,0.0879645943641663,-0.029626963660121
0,0.873611146860236,0.150000007336368,-0.14722222356986,0.448680520057678,0.890641510486603,-0.0494800843298435
0,0.95000000594378,0.120833338567854,-0.188888894975731,0.955087780952454,1.133460521698,0.884838283061981
0,1.23611115040783,0.0444444460554069,-0.383333357484479,-2.57449150085449,0.806342124938965,2.44590449333191
0,1.59861115395543,0.20972223675665,-0.479166678621653,-2.57510232925415,-1.54762709140778,1.48959493637085
0,1.25000006924037,0.0194444453391775,-0.25555557165632,-1.74066054821014,-0.558636248111725,-0.38117989897728
0,1.1083333888916,-0.144444451959316,-0.19166667874224,-1.2779301404953,-1.166752576828,-1.24249994754791
0,0.86805557932722,0.0416666683668809,-0.272222225631511,-0.758694648742676,-0.464257597923279,-0.0855211317539215
0,0.805555590452358,0.152777778946911,-0.343055565805897,0.105374254286289,-0.0745255574584007,0.494189977645874
0,1.0513889189259,0.027777779924251,-0.525000013521323,-0.0113010071218014,-0.244651526212692,0.488692194223404
0,1.02222228662528,0.033333335301303,-0.538888932353864,0.184786736965179,-0.165544480085373,0.733343720436096
0,0.902777779160856,0.0361111129898289,-0.495833332596844,0.102319926023483,-0.0516181141138077,0.625831425189972
0,0.884722281926269,0.0166666676506515,-0.522222229754814,0.0613919571042061,0.333226978778839,0.458148926496506
0,0.893055633225794,0.00694444498106275,-0.505555575779623,-0.132863193750381,0.717766642570496,0.0934623852372169
0,0.887500065692777,-0.0888888921108138,-0.365277787314105,-0.269391566514969,1.66094255447388,0.15851953625679
0,0.887500065692777,-0.0888888921108138,-0.365277787314105,-0.269391566514969,1.66094255447388,0.15851953625679
0,0.887500065692777,-0.0888888921108138,-0.365277787314105,-0.459370672702789,1.74432575702667,-0.137750118970871
0,0.887500065692777,-0.0888888921108138,-0.365277787314105,-0.459370672702789,1.74432575702667,-0.137750118970871
0,1.14166669684199,0.0166666676506515,-0.363888895430851,-0.459370672702789,1.74432575702667,-0.137750118970871
0,1.14166669684199,0.0166666676506515,-0.363888895430851,-0.365602850914002,1.7324138879776,-0.486248731613159
0,1.10138892947533,0.0430555572111439,-0.331944455051793,-0.21685716509819,1.61726570129395,-0.318871647119522
0,0.92083337364316,-0.029166668768514,-0.218055563744246,-0.148134827613831,1.59924519062042,-0.465173870325089
0,0.923611157409668,0.027777779924251,-0.187500003092477,-0.308486938476563,0.881783962249756,-0.891252398490906
0,0.98888888142718,-0.00972222266958873,-0.118055554801345,-0.111482910811901,0.39675697684288,-0.898888230323792
0,1.06666672964169,0.03194444645704,-0.180555567988136,-0.0250454749912024,0.192422553896904,-0.478002041578293
0,1.0513889189259,0.156944454596674,-0.236111109602691,0.330478101968765,0.20616702735424,0.0671951770782471
0,1.12777777800944,0.0444444460554069,-0.212499996211229,0.201585531234741,0.0610865242779255,-0.0186313893646002
0,1.10416671324184,0.0361111129898289,-0.229166674498349,0.454789161682129,0.74006325006485,0.412334054708481
0,1.01527782720901,0.202777789496344,-0.269444466176932,0.121867619454861,0.410501450300217,1.18355143070221
0,1.01388893532575,0.166666673467524,-0.226388890731841,0.0467311926186085,0.12705996632576,1.15209186077118
0,1.03888889197661,0.03194444645704,-0.12916666555545,-0.0775798857212067,0.0534507073462009,1.40926611423492
0,1.04166667574312,-0.0652777787193518,-0.113888891307548,0.122478485107422,0.487165033817291,1.16827976703644
0,0.948611114060526,0.033333335301303,-0.175000000455119,-0.019547687843442,-0.0409279726445675,0.399200439453125
0,1.00555558402623,-0.0152777788063885,-0.236111109602691,-0.0665843114256859,0.128892570734024,0.445931643247604
0,0.890277849459286,0.00555555575692586,-0.206944452990142,-0.123394779860973,0.203418120741844,0.440433830022812
0,0.894444525109048,-0.0958333393711199,-0.169444445078067,-0.0503963828086853,0.141415297985077,0.187230199575424
0,0.962500032893068,-0.0763888894734557,-0.152777778946911,-0.0678060427308083,0.0604756586253643,0.219300627708435
0,1.02638896227504,-0.0625000010308258,-0.161111118090472,-0.0815505087375641,0.0507018156349659,0.234572261571884
0,0.96666670854283,-0.0236111118719664,-0.163888889701015,-0.125227376818657,0.0143553335219622,0.512515962123871
0,0.945833330294018,-0.0180555564949145,-0.163888889701015,-0.100181899964809,-0.153938040137291,0.762359797954559
0,0.916666697993398,-0.0875000002275597,-0.125000002061652,0.0305432621389627,-0.235793977975845,0.982576727867126
0,0.98888888142718,-0.0708333340964038,-0.170833336961321,0.0027488935738802,-0.239764615893364,0.933096647262573
0,1.16388896697405,-0.148611115453114,-0.180555567988136,0.0736092627048492,-0.233961388468742,0.436157792806625
0,1.14444448060849,-0.158333334323963,-0.159722226207217,0.134084925055504,-0.405919969081879,0.182648703455925
0,1.15000004814151,-0.140277788465518,-0.150000007336368,0.118202425539494,-0.446542501449585,-0.00671951752156019
0,1.11111117265811,-0.224999998848587,-0.216666671860991,0.150578290224075,-0.395535260438919,-0.208305045962334
0,1.05416670269241,-0.126388893944906,-0.156944454596674,0.240986332297325,-0.838717997074127,-0.176540061831474
0,0.970833384192592,-0.136111112815755,-0.177777784221628,-0.0925460830330849,-0.268780708312988,-0.132863193750381
0,0.976388951725609,-0.0402777795226179,-0.388888900705567,-0.226631000638008,1.69056951999664,0.146913096308708
0,0.973611167959101,-0.161111118090472,-0.358333352209763,-0.272751331329346,2.62336087226868,0.0656680166721344
0,0.96666670854283,-0.13750000469901,-0.262500006760661,-0.260534018278122,3.61235165596008,0.0189368221908808
0,1.04722224327614,-0.125000002061652,0.206944452990142,-0.325285732746124,1.88726818561554,0.117896988987923
0,1.07777786470773,-0.172222228844576,0.394444468238583,0.0210748501121998,-1.16491997241974,0.013744467869401
0,0.983333411141879,-0.16527778158427,0.0888888921108138,-0.00824668072164059,0.408668845891953,-0.0833831056952477
0,1.02083339474202,-0.159722226207217,-0.0625000010308258,-0.28008171916008,0.962112784385681,-0.167071640491486
0,1.14027780495873,-0.156944454596674,0.0541666679652478,0.0665843114256859,0.0769690200686455,-0.0290160998702049
0,1.07500008094122,-0.136111112815755,-0.029166668768514,0.0323758572340012,0.0140499006956816,-0.0299323964864016
0,1.01944450285877,-0.136111112815755,-0.0388888906783549,0.013744467869401,0.145385921001434,-0.0448985956609249
0,1.01527782720901,-0.113888891307548,-0.033333335301303,0.0690277740359306,0.133474051952362,-0.00763581553474069
0,1.00972225967599,-0.1194444466846,-0.03194444645704,0.017409659922123,0.0879645943641663,0.00580321997404099
0,1.01527782720901,-0.122222230451108,0.00972222266958873,-0.124005645513535,0.0784961804747581,-0.0164933614432812
0,1.04861113515939,-0.156944454596674,-0.12777778582816,-0.192727982997894,0.637743294239044,-0.0540615729987621
0,1.00138890837647,-0.118055554801345,-0.0666666706026059,-0.204639852046967,0.83627450466156,-0.027488935738802
0,0.98888888142718,-0.10972222781375,0.00972222266958873,-0.146913096308708,0.674089789390564,0.0192422550171614
0,1.03750000009336,-0.12916666555545,0.0458333348996699,-0.0537561401724815,0.306043475866318,-0.0186313893646002
0,1.04722224327614,-0.125000002061652,0.052777782159976,0.147218525409698,0.0592539273202419,-0.029626963660121
0,0.92083337364316,-0.0875000002275597,0.141666668192807,0.313068449497223,-0.135001212358475,0.0430659987032413
0,0.968055600426084,-0.125000002061652,-0.0652777787193518,-0.0100792767480016,0.144469633698463,-0.0342084541916847
0,1.10416671324184,-0.150000007336368,0.026388891079988,0.127670839428902,0.204945296049118,-0.251981914043427
0,1.09305557817581,-0.140277788465518,0.0180555564949145,0.204028993844986,0.168293371796608,-0.5128213763237
0,1.00000001649321,-0.108333335930496,0.029166668768514,0.213191971182823,0.172569438815117,-0.389426589012146
0,0.933333400592447,-0.0791666671619817,0.0486111125881959,0.187841057777405,-0.0952949747443199,-0.336892187595367
0,0.925000049292922,-0.159722226207217,0.0486111125881959,-0.109955742955208,0.316733628511429,-0.894917607307434
0,0.886111173809523,-0.112499999424294,0.0166666676506515,-0.0522289797663689,0.147218525409698,-0.624304294586182
0,0.970833384192592,-0.0666666706026059,0.0736111117849297,0.112399205565453,-0.000610865245107561,-0.721126437187195
0,0.952777789710289,0.00138888893923146,0.12777778582816,0.242513507604599,-0.525649547576904,-0.124921940267086
0,1.04166667574312,-0.0152777788063885,0.029166668768514,0.205556154251099,-0.497244298458099,0.205556154251099
0,1.14444448060849,-0.0513888902767219,-0.0111111115138517,-0.00580321997404099,-0.145385921001434,0.223271250724793
0,1.02500007039179,-0.0444444460554069,-0.00555555575692586,-0.0717766657471657,-0.121256753802299,0.307265222072601
0,0.93750007624221,-0.055555559848502,0.0680555564078778,0.116675265133381,-0.161573857069016,0.547335267066956
0,0.863888903677457,-0.0361111129898289,0.0513888902767219,0.255341678857803,-0.260228604078293,1.29106366634369
0,0.85138887672817,-0.0986111170596459,-0.03194444645704,0.199447497725487,0.029626963660121,1.25135743618011
0,1.17361111290911,-0.180555567988136,-0.0500000014324589,0.226631000638008,-0.0806342139840126,1.11849427223206
0,1.18055557232538,-0.181944447715425,-0.055555559848502,0.124005645513535,0.276721954345703,0.545502662658691
0,1.1236111996074,-0.179166676104882,-0.0569444456537738,-0.0531452745199203,0.48197266459465,0.295658767223358
0,1.20555562622396,-0.181944447715425,-0.029166668768514,-0.138055548071861,0.658818185329437,0.193338856101036
0,1.1083333888916,-0.190277786858986,0.0652777787193518,-0.0870482996106148,0.183259576559067,0.0711658000946045
0,1.11527784830787,-0.205555561106887,0.0652777787193518,0.109344877302647,0.114231802523136,-0.0647517144680023
0,1.07500008094122,-0.17361112072783,0.03194444645704,0.0268780700862408,0.0714712366461754,-0.0968221426010132
0,1.07361118905796,-0.148611115453114,0.0250000007162294,0.00427605677396059,-0.00183259579353034,-0.165239050984383
0,1.03194452980806,-0.16527778158427,0.0361111129898289,0.0568104684352875,-0.0103847095742822,-0.198531210422516
0,1.00138890837647,-0.161111118090472,0.0444444460554069,0.106901414692402,-0.037568211555481,-0.182343274354935
0,1.00416669214298,-0.154166670830166,0.0388888906783549,0.106290549039841,-0.0455094613134861,-0.260228604078293
0,1.0305556379248,-0.151388899219622,0.0236111118719664,0.0623082555830479,0.0033597587607801,-0.331394404172897
0,1.04722224327614,-0.13750000469901,0.0416666683668809,0.0971275717020035,-0.109039448201656,-0.177456349134445
0,1.01944450285877,-0.13750000469901,0.0180555564949145,0.128892570734024,-0.129197999835014,-0.0937678143382072
0,1.00138890837647,-0.108333335930496,0.0875000002275597,0.218078896403313,-0.136222943663597,-0.115758962929249
0,1.00833336779274,-0.125000002061652,0.0416666683668809,0.222965821623802,-0.0708603709936142,-0.0806342139840126
0,1.02222228662528,-0.150000007336368,0.00833333382532574,0.0748309940099716,-0.141109868884087,0.0387899428606033
0,1.02500007039179,-0.138888896582264,-0.00277777787846293,-0.05283984541893,-0.120645888149738,0.090408056974411
0,0.993055557076942,-0.13750000469901,0.029166668768514,-0.535117983818054,0.188146501779556,-0.081855945289135
0,1.02777785415829,-0.131944449321958,0.030555557612777,0.0598647929728031,0.0339030213654041,-0.0323758572340012
0,1.02777785415829,-0.131944449321958,0.030555557612777,0.0482583530247212,0.0922406539320946,0.00885754637420177
0,1.03750000009336,-0.12916666555545,0.0180555564949145,0.0445931628346443,0.0494800843298435,0.0302378293126821
0,1.02638896227504,-0.143055560076062,0.03194444645704,0.117591559886932,-0.0277943685650826,0.0125227374956012
0,1.02638896227504,-0.143055560076062,0.03194444645704,0.118507854640484,-0.0345138870179653,-0.0424551330506802
0,1.0333333244436,-0.120833338567854,0.029166668768514,0.134390354156494,-0.167682513594627,-0.0647517144680023
0,1.08472222687628,-0.123611110178398,0.0166666676506515,0.0546724386513233,0.0739146918058395,-0.0021380283869803
0,1.07361118905796,-0.115277783190802,0.00972222266958873,0.109039448201656,0.225714713335037,0.0583376325666905
0,1.04166667574312,-0.125000002061652,0.00833333382532574,0.200974673032761,0.191506251692772,-0.00610865233466029
0,0.970833384192592,-0.130555557438704,0.033333335301303,0.114231802523136,-0.0464257597923279,-0.0415388382971287
0,0.969444492309338,-0.144444451959316,0.0625000010308258,0.0479529201984406,-0.12705996632576,-0.0699440687894821
0,1.05416670269241,-0.138888896582264,0.0625000010308258,0.0113010071218014,0.116675265133381,-0.0189368221908808
0,1.06111116210868,-0.131944449321958,-0.0138888899621255,-0.0723875313997269,0.263588339090347,-0.0729983970522881
0,1.01944450285877,-0.130555557438704,0.00972222266958873,-0.0394008085131645,0.196087747812271,-0.112704634666443
0,0.959722249126559,-0.144444451959316,0.0708333340964038,0.019547687843442,-0.199447497725487,-0.01191187184304
0,0.973611167959101,-0.136111112815755,0.0680555564078778,-0.00977384392172098,-0.367740869522095,0.04764748737216
0,1.04166667574312,-0.120833338567854,0.0236111118719664,-0.00855211354792118,-0.292909890413284,0.021685715764761
0,1.04861113515939,-0.12777778582816,-0.0180555564949145,-0.0629191175103188,-0.159435823559761,-0.0522289797663689
0,1.04861113515939,-0.131944449321958,-0.0180555564949145,-0.00305432616733015,0.0681114718317986,-0.0696386396884918
0,1.00833336779274,-0.134722233088466,0.03194444645704,0.0351247526705265,-0.0241291765123606,0.0387899428606033
0,1.01388893532575,-0.131944449321958,0.029166668768514,0.0723875313997269,-0.0815505087375641,0.0565050356090069
0,1.02916674604155,-0.13750000469901,0.0236111118719664,0.123394779860973,-0.0986547395586967,-0.0125227374956012
0,1.03888889197661,-0.131944449321958,0.00555555575692586,0.0241291765123606,0.015577063895762,-0.0595593601465225
0,1.02638896227504,-0.12916666555545,0.00277777787846293,-0.0369573459029198,-0.0455094613134861,-0.0574213340878487
0,1.00972225967599,-0.112499999424294,0.0222222230277034,-0.0320704244077206,-0.172874867916107,-0.0348193198442459
0,0.997222232726705,-0.122222230451108,0.027777779924251,-0.0397062413394451,-0.408057987689972,-0.0870482996106148
0,1.0333333244436,-0.130555557438704,0.0138888899621255,-0.163101017475128,-0.428216546773911,-0.0598647929728031
0,1.06527783775844,-0.118055554801345,-0.0416666683668809,-0.218078896403313,-0.102014496922493,-0.00794124789535999
0,1.04861113515939,-0.130555557438704,-0.055555559848502,-0.329867243766785,0.315817326307297,0.0424551330506802
0,1.0513889189259,-0.144444451959316,-0.0652777787193518,-0.46059238910675,0.669813752174377,0.149661988019943
0,1.04861113515939,-0.159722226207217,0.0416666683668809,-0.270307868719101,0.288939267396927,0.22235494852066
0,1.07777786470773,-0.150000007336368,0.0388888906783549,-0.0345138870179653,-0.0809396430850029,0.00763581553474069
0,1.0361111082101,-0.138888896582264,0.00416666691266287,-0.0250454749912024,-0.0485637858510017,-0.0632245540618896
0,1.1291666698927,-0.156944454596674,-0.256944463539574,0.183259576559067,1.25532805919647,0.0836885422468185
0,0.909722238577127,-0.131944449321958,0.0694444482911319,-0.021685715764761,0.00152716308366507,-0.00763581553474069
0,0.980555627375371,-0.130555557438704,0.0375000018340919,-0.02382374368608,0.0152716310694814,-0.00733038317412138
0,1.00972225967599,-0.126388893944906,0.0402777795226179,-0.00519235478714108,-0.0354301854968071,-0.000305432622553781
0,1.00972225967599,-0.130555557438704,0.0444444460554069,-0.0198531206697226,0.011606439948082,-0.0354301854968071
0,1.01111115155925,-0.12916666555545,0.0222222230277034,-0.0656680166721344,0.013744467869401,0.0167987942695618
0,1.01666671909226,-0.13750000469901,0.029166668768514,-0.0284052342176437,-0.0241291765123606,0.029626963660121
0,1.02500007039179,-0.140277788465518,0.0194444453391775,-0.0464257597923279,0.0027488935738802,0.013744467869401
0,1.0361111082101,-0.136111112815755,0.0236111118719664,-0.0348193198442459,0.00122173049021512,-0.0149661982432008
0,1.03194452980806,-0.136111112815755,0.03194444645704,-0.0186313893646002,0.0745255574584007,-0.000610865245107561
0,1.00972225967599,-0.14722222356986,0.0361111129898289,-0.00152716308366507,0.0229074470698834,0.000916297896765172
0,1.0305556379248,-0.14583334384257,0.027777779924251,0.0222965814173222,0.0403171069920063,0.00427605677396059
0,1.01388893532575,-0.134722233088466,0.030555557612777,0.017409659922123,0.019547687843442,-0.0259617734700441
0,1.0361111082101,-0.113888891307548,0.0166666676506515,0.0452040284872055,0.0045814891345799,0.0186313893646002
0,1.01527782720901,-0.136111112815755,0.0250000007162294,0.0183259565383196,0.0204639863222837,0.0207694191485643
0,1.02222228662528,-0.13750000469901,0.03194444645704,0.0354301854968071,-0.00122173049021512,-0.0033597587607801
0,1.01111115155925,-0.118055554801345,0.026388891079988,0.0522289797663689,0.0519235469400883,-0.00763581553474069
0,1.00694447590948,-0.118055554801345,0.0222222230277034,-0.16371189057827,-0.201890960335732,-0.0213802829384804
0,1.06527783775844,-0.12916666555545,-0.0194444453391775,-0.0754418596625328,0.0919352173805237,0.0161879286170006
0,1.00277780025972,-0.12777778582816,0.0652777787193518,-0.155159771442413,0.0372627787292004,0.0204639863222837
0,0.990277773310434,-0.12777778582816,0.0111111115138517,-0.295353353023529,-0.0638354197144508,-0.015577063895762
0,0.961111141009813,-0.0680555564078778,-0.0583333375370279,-0.305432617664337,0.424245923757553,-0.0143553335219622
0,1.05555559457566,-0.106944444047242,-0.00138888893923146,-0.309708684682846,0.460286974906921,-0.00641408516094089
0,1.03472221632685,-0.111111119697004,0.03194444645704,-0.302989155054092,0.311846703290939,0.0320704244077206
0,1.01111115155925,-0.14583334384257,0.0722222259796579,-0.23273965716362,0.0277943685650826,-0.0519235469400883
0,1.02222228662528,-0.156944454596674,0.0541666679652478,0.0305432621389627,0.208305045962334,-0.0143553335219622
0,1.02500007039179,-0.141666668192807,0.0486111125881959,-0.00305432616733015,0.28008171916008,0.0479529201984406
0,0.979166735492117,-0.13750000469901,0.0777777813567098,-0.103236228227615,0.0629191175103188,-0.037568211555481
0,0.986111194908388,-0.193055558469529,0.101388894748172,0.224798411130905,-0.207388743758202,-0.0968221426010132
0,0.958333357243305,-0.140277788465518,0.0388888906783549,-0.000610865245107561,-0.448069661855698,-0.0537561401724815
0,1.00694447590948,-0.143055560076062,0.0458333348996699,0.00397062394768,-0.614835858345032,-0.076052725315094
0,1.07222229717471,-0.123611110178398,0.055555559848502,0.0849102661013603,-0.415999233722687,-0.0177150927484035
0,1.02500007039179,-0.150000007336368,0.0652777787193518,0.22754730284214,-0.646295428276062,-0.115453533828259
0,1.0361111082101,-0.123611110178398,0.00277777787846293,0.324674874544144,-0.595593631267548,-0.0394008085131645
0,1.08194444310977,-0.106944444047242,-0.0486111125881959,0.16890424489975,-0.148745685815811,-0.0201585534960032
0,1.01805561097552,-0.0986111170596459,-0.0736111117849297,-0.00946841109544039,0.178983509540558,0.0125227374956012
0,1.04166667574312,-0.108333335930496,-0.0458333348996699,-0.183259576559067,0.204334422945976,0.0335975885391235
0,1.02361117850853,-0.105555564319952,0.00277777787846293,-0.149356558918953,0.439822971820831,0.0595593601465225
0,0.977777843608863,-0.143055560076062,0.0750000036681839,0.0378736443817616,0.271529614925385,-0.0100792767480016
0,1.00694447590948,-0.136111112815755,0.0486111125881959,0.0824668109416962,0.0335975885391235,-0.0439822971820831
0,1.04305556762637,-0.134722233088466,0.0111111115138517,0.0198531206697226,-0.0803287774324417,-0.0360410511493683
0,1.0513889189259,-0.111111119697004,0.0208333341834404,0.0186313893646002,0.0302378293126821,-0.0354301854968071
0,1.00972225967599,-0.123611110178398,0.0194444453391775,0.0109955742955208,0.0494800843298435,-0.0259617734700441
0,1.00972225967599,-0.123611110178398,0.0194444453391775,-0.0519235469400883,-0.0458148941397667,0.00977384392172098
0,0.997222232726705,-0.116666675074056,-0.00555555575692586,-0.0177150927484035,0.0620028227567673,0.0696386396884918
0,0.993055557076942,-0.130555557438704,0.0222222230277034,-0.0638354197144508,-0.163406446576118,0.0482583530247212
0,0.993055557076942,-0.130555557438704,0.0222222230277034,0.00519235478714108,-0.254425376653671,-0.03176499158144
0,1.04027778385987,-0.1194444466846,-0.0194444453391775,0.0360410511493683,-0.192727982997894,-0.0513126812875271
0,1.03888889197661,-0.108333335930496,-0.0250000007162294,-0.04764748737216,-0.0565050356090069,-0.0470366254448891
0,1.03888889197661,-0.108333335930496,-0.0250000007162294,-0.0122173046693206,0.204028993844986,-0.00366519158706069
0,1.03194452980806,-0.111111119697004,-0.00277777787846293,0.00580321997404099,0.294742494821549,-0.000610865245107561
0,0.997222232726705,-0.116666675074056,0.0444444460554069,0.0467311926186085,0.141720741987228,0.00763581553474069
0,0.997222232726705,-0.116666675074056,0.0444444460554069,0.161573857069016,0.0146607663482428,-0.0626136884093285
0,1.06805562152495,-0.156944454596674,0.0152777788063885,0.165849909186363,0.128281697630882,-0.0146607663482428
0,1.01944450285877,-0.120833338567854,0.00555555575692586,0.175623759627342,0.230601623654366,0.0339030213654041
0,1.01944450285877,-0.120833338567854,0.00555555575692586,0.134695783257484,0.10598511993885,0.03176499158144
0,1.02222228662528,-0.0986111170596459,0.0208333341834404,0.0378736443817616,0.133779495954514,-0.0198531206697226
0,1.06388894587519,-0.115277783190802,0.0152777788063885,0.119118720293045,0.0308486949652433,0.0244346093386412
0,1.01388893532575,-0.12777778582816,0.00833333382532574,0.176845490932465,0.0311541277915239,0.0565050356090069
0,0.998611124609959,-0.133333341205212,0.0416666683668809,0.162490159273148,-0.0372627787292004,0.0448985956609249
0,1.02500007039179,-0.141666668192807,0.0194444453391775,0.159130394458771,0.114842668175697,-0.0397062413394451
0,1.03472221632685,-0.1194444466846,0.027777779924251,0.261144906282425,-0.0897971913218498,-0.0140499006956816
0,1.00000001649321,-0.14722222356986,0.0777777813567098,0.355218142271042,-0.00549778714776039,0.0424551330506802
0,1.02638896227504,-0.130555557438704,0.026388891079988,0.253814518451691,0.147523954510689,0.0678060427308083
0,1.04583335139288,-0.143055560076062,0.00138888893923146,0.347582310438156,0.394618958234787,0.0772744566202164
0,1.07777786470773,-0.134722233088466,0.0111111115138517,0.187535628676414,0.409890592098236,0.0519235469400883
0,1.00555558402623,-0.115277783190802,-0.00416666691266287,0.0711658000946045,0.0387899428606033,0.00549778714776039
0,0.93750007624221,-0.125000002061652,0.0416666683668809,0.0357356183230877,-0.0351247526705265,0.0268780700862408
0,0.959722249126559,-0.12777778582816,0.0486111125881959,0.0491746515035629,0.0180205255746841,0.0959058403968811
0,1.00138890837647,-0.13750000469901,0.0208333341834404,-0.0445931628346443,0.0244346093386412,0.0693332031369209
0,1.07083340529146,-0.131944449321958,0.0472222237439329,-0.0213802829384804,0.0684169083833694,0.0537561401724815
0,1.05555559457566,-0.151388899219622,0.0458333348996699,0.0390953756868839,0.109039448201656,0.0339030213654041
0,1.0125000434425,-0.144444451959316,0.0597222233422998,0.0323758572340012,0.115148097276688,0.0354301854968071
0,1.00694447590948,-0.134722233088466,0.055555559848502,0.058643065392971,0.245567828416824,0.0482583530247212
0,1.03472221632685,-0.133333341205212,0.0402777795226179,0.0998764708638191,0.254425376653671,-0.0821613743901253
0,1.00138890837647,-0.169444445078067,0.027777779924251,0.0714712366461754,0.136833816766739,0.00122173049021512
0,1.07500008094122,-0.120833338567854,0.106944444047242,0.313373863697052,0.39675697684288,0.19028452038765
0,0.916666697993398,-0.14722222356986,-0.0111111115138517,-0.102625362575054,-0.141109868884087,-0.0253509078174829
0,0.906944454810619,-0.143055560076062,0.0194444453391775,-0.201585531234741,-0.226631000638008,0.0592539273202419
0,1.02222228662528,-0.0625000010308258,0.03194444645704,-0.154243469238281,-0.0901026204228401,0.0222965814173222
0,1.04583335139288,-0.1194444466846,0.052777782159976,-0.195171445608139,-0.0714712366461754,0.00366519158706069
0,1.05277781080915,-0.138888896582264,0.0916666697993398,-0.0555887371301651,0.111788339912891,-0.0311541277915239
0,1.0513889189259,-0.17361112072783,0.0819444448505077,0.058643065392971,0.116980694234371,0.0219911485910416
0,1.00833336779274,-0.144444451959316,0.0930555616825939,0.0748309940099716,-0.00641408516094089,0.0632245540618896
0,1.01666671909226,-0.111111119697004,0.0777777813567098,0.0213802829384804,-0.0925460830330849,0.0794124826788902
0,1.00416669214298,-0.130555557438704,0.0458333348996699,0.00519235478714108,-0.0415388382971287,0.0604756586253643
0,1.01944450285877,-0.166666673467524,0.052777782159976,0.0146607663482428,-0.0635299831628799,0.0167987942695618
0,1.03194452980806,-0.154166670830166,0.029166668768514,0.113620936870575,-0.0836885422468185,0.00488692196086049
0,0.994444448960196,-0.118055554801345,0.0597222233422998,0.122783914208412,-0.231212496757507,0.0409279726445675
0,0.986111194908388,-0.140277788465518,0.0652777787193518,0.145385921001434,-0.246484130620956,0.0742201283574104
0,1.00416669214298,-0.161111118090472,0.0666666706026059,0.18020524084568,-0.23243422806263,0.0561996027827263
0,1.01111115155925,-0.162500009973726,0.0513888902767219,0.212886542081833,-0.195476874709129,0.000305432622553781
0,1.04583335139288,-0.118055554801345,0.0458333348996699,0.197614908218384,-0.0561996027827263,0.0574213340878487
0,1.05416670269241,-0.111111119697004,0.0375000018340919,0.113315500319004,-0.00855211354792118,0.0791070461273193
0,1.01944450285877,-0.12916666555545,0.0472222237439329,0.0959058403968811,0.0803287774324417,0.0219911485910416
0,1.01944450285877,-0.14722222356986,0.0680555564078778,0.0956004112958908,0.0812450796365738,0.0448985956609249
0,1.02361117850853,-0.141666668192807,0.0625000010308258,0.0387899428606033,0.015577063895762,0.0708603709936142
0,1.00972225967599,-0.136111112815755,0.0666666706026059,-0.0684169083833694,-0.0635299831628799,0.0610865242779255
0,0.998611124609959,-0.13750000469901,0.0763888894734557,-0.0781907513737679,-0.0907134860754013,0.0305432621389627
0,0.990277773310434,-0.140277788465518,0.0722222259796579,-0.0720821022987366,-0.138055548071861,0.00763581553474069
0,1.01944450285877,-0.13750000469901,0.055555559848502,-0.0879645943641663,-0.0891863256692886,0.0320704244077206
0,1.03888889197661,-0.14583334384257,0.052777782159976,-0.0516181141138077,-0.135917514562607,0.0604756586253643
0,1.0361111082101,-0.14722222356986,0.0597222233422998,-0.0879645943641663,-0.171958565711975,0.05283984541893
0,1.02777785415829,-0.154166670830166,0.0361111129898289,-0.0925460830330849,-0.107512280344963,0.0424551330506802
0,1.02222228662528,-0.166666673467524,0.0347222241455659,-0.0250454749912024,0.00641408516094089,-0.0284052342176437
0,1.01666671909226,-0.17361112072783,0.0430555572111439,-0.00122173049021512,-0.0394008085131645,-0.0369573459029198
0,1.02777785415829,-0.181944447715425,0.0194444453391775,-0.0265726372599602,-0.0864374339580536,-0.0293215326964855
0,1.02500007039179,-0.169444445078067,0.0402777795226179,0.00366519158706069,-0.0299323964864016,0.0210748501121998
0,0.981944519258625,-0.161111118090472,0.0694444482911319,0.0613919571042061,0.0415388382971287,0.0397062413394451
0,1.02083339474202,-0.163888889701015,-0.0125000003581147,0.0418442711234093,0.207083314657211,0.000610865245107561
0,1.06388894587519,-0.17361112072783,-0.00138888893923146,0.0146607663482428,0.216246291995048,-0.0464257597923279
0,1.01944450285877,-0.162500009973726,0.026388891079988,-0.0326812900602817,0.0882700309157372,-0.0235183127224445
0,1.00833336779274,-0.150000007336368,0.055555559848502,0.0397062413394451,0.134084925055504,0.0534507073462009
0,1.0333333244436,-0.161111118090472,0.0597222233422998,0.156381502747536,0.1795943826437,0.04764748737216
0,0.997222232726705,-0.156944454596674,0.0541666679652478,0.141720741987228,0.0647517144680023,0.013744467869401
0,0.990277773310434,-0.159722226207217,0.0236111118719664,-0.0439822971820831,-0.0516181141138077,-0.0146607663482428
0,0.993055557076942,-0.150000007336368,0.00277777787846293,-0.317955374717712,-0.133168622851372,-0.0277943685650826
0,1.02222228662528,-0.158333334323963,0.027777779924251,-0.22785273194313,-0.0839939713478088,-0.027488935738802
0,1.02361117850853,-0.151388899219622,0.0611111152255539,-0.116980694234371,-0.125227376818657,-0.0442877300083637
0,1.00972225967599,-0.143055560076062,0.0513888902767219,-0.171653136610985,-0.261144906282425,-0.00794124789535999
0,1.02777785415829,-0.154166670830166,0.0361111129898289,-0.245262399315834,-0.272445887327194,0.0607810914516449
0,1.0333333244436,-0.197222234119292,0.0347222241455659,-0.0616973899304867,-0.135306656360626,0.0516181141138077
0,1.0333333244436,-0.218055563744246,0.0472222237439329,0.218995183706284,0.0348193198442459,0.00152716308366507
0,0.991666665193688,-0.187500003092477,0.0500000014324589,0.386983126401901,-0.0314595587551594,-0.0280998013913631
0,0.973611167959101,-0.151388899219622,0.029166668768514,0.387899428606033,-0.13744467496872,-0.0045814891345799
0,1.03888889197661,-0.120833338567854,0.00277777787846293,0.214108273386955,-0.142637029290199,0.0290160998702049
0,1.06250005399193,-0.161111118090472,0.00277777787846293,0.0351247526705265,-0.0537561401724815,0.00610865233466029
0,1.04166667574312,-0.181944447715425,0.00555555575692586,0.0894917547702789,-0.0332921557128429,-0.0106901414692402
0,1.0125000434425,-0.169444445078067,0.0194444453391775,0.0351247526705265,-0.0488692186772823,0.0372627787292004
0,0.983333411141879,-0.177777784221628,0.0347222241455659,0.11087204515934,-0.0253509078174829,0.0100792767480016
0,1.01666671909226,-0.16527778158427,0.0194444453391775,0.102014496922493,-0.0427605658769607,0.0323758572340012
0,1.01388893532575,-0.180555567988136,0.0208333341834404,0.0354301854968071,-0.0726929605007172,0.0180205255746841
0,1.01944450285877,-0.180555567988136,0.027777779924251,0.0613919571042061,-0.0384845100343227,0.011606439948082
0,1.02361117850853,-0.180555567988136,0.0250000007162294,0.070249505341053,-0.0253509078174829,0.0189368221908808
0,1.02916674604155,-0.163888889701015,-0.00972222266958873,-0.0690277740359306,-0.0397062413394451,0.000305432622553781
0,1.0305556379248,-0.163888889701015,0.0222222230277034,0.0491746515035629,0.0106901414692402,0.00671951752156019
0,1.01666671909226,-0.17361112072783,0.0236111118719664,0.0458148941397667,-0.0213802829384804,0.011606439948082
0,1.01666671909226,-0.172222228844576,0.027777779924251,0.0540615729987621,-0.0183259565383196,0.01191187184304
5,1.02083339474202,-0.175000000455119,0.0222222230277034,0.0464257597923279,-0.00763581553474069,0.00671951752156019
5,1.01944450285877,-0.166666673467524,0.0236111118719664,0.0357356183230877,-0.00855211354792118,0.0033597587607801
5,1.01805561097552,-0.169444445078067,0.0222222230277034,0.0436768643558025,-0.0250454749912024,0.0131336031481624
5,1.01944450285877,-0.17361112072783,0.0194444453391775,0.0357356183230877,-0.0171042270958424,0.0021380283869803
5,1.01666671909226,-0.170833336961321,0.00694444498106275,0.0348193198442459,-0.00519235478714108,0.00855211354792118
5,1.01944450285877,-0.169444445078067,0.0111111115138517,0.0171042270958424,-0.00366519158706069,0.000610865245107561
5,1.01666671909226,-0.168055565350778,0.0250000007162294,0.013744467869401,-0.0198531206697226,0.00305432616733015
5,1.01666671909226,-0.168055565350778,0.0250000007162294,0.015577063895762,-0.0357356183230877,0.0113010071218014
5,1.01527782720901,-0.168055565350778,0.0180555564949145,0.0256563406437635,-0.0326812900602817,0.011606439948082
5,1.02222228662528,-0.17361112072783,0.0222222230277034,0.0210748501121998,-0.0323758572340012,0.0100792767480016
5,1.02222228662528,-0.17361112072783,0.0222222230277034,0.0152716310694814,-0.0235183127224445,0.0045814891345799
5,1.01944450285877,-0.17361112072783,-0.00416666691266287,0.0106901414692402,-0.0326812900602817,0.0113010071218014
5,1.02083339474202,-0.166666673467524,0.00972222266958873,-0.000305432622553781,-0.00366519158706069,0.00916297826915979
5,1.02083339474202,-0.166666673467524,0.00972222266958873,0.00305432616733015,-0.0189368221908808,0.011606439948082
5,1.01388893532575,-0.163888889701015,0.0222222230277034,0.0021380283869803,-0.029626963660121,0.00610865233466029
5,1.02083339474202,-0.163888889701015,0.00555555575692586,-0.0021380283869803,-0.0293215326964855,0.0189368221908808
5,1.02083339474202,-0.163888889701015,0.00555555575692586,-0.01191187184304,-0.0198531206697226,0.019547687843442
5,1.01944450285877,-0.170833336961321,0.0166666676506515,-0.000916297896765172,-0.017409659922123,0.0125227374956012
5,1.02222228662528,-0.177777784221628,0.00416666691266287,-0.0033597587607801,-0.0222965814173222,0.011606439948082
5,1.02222228662528,-0.177777784221628,0.00416666691266287,-0.00397062394768,-0.00885754637420177,0.0045814891345799
5,1.02083339474202,-0.169444445078067,0.00416666691266287,-0.0134390350431204,-0.0149661982432008,0.00824668072164059
5,1.01666671909226,-0.168055565350778,0.00277777787846293,-0.013744467869401,-0.0207694191485643,0.0171042270958424
5,1.01944450285877,-0.166666673467524,0.0138888899621255,-0.0033597587607801,-0.029626963660121,0.0100792767480016
5,1.02222228662528,-0.170833336961321,0.00555555575692586,-0.00610865233466029,-0.0268780700862408,0.00946841109544039
5,1.02222228662528,-0.169444445078067,0.00833333382532574,-0.0201585534960032,-0.0235183127224445,0.00855211354792118
5,1.01944450285877,-0.175000000455119,-0.00138888893923146,-0.0183259565383196,-0.0302378293126821,0.0103847095742822
5,1.01805561097552,-0.180555567988136,-0.00138888893923146,-0.00519235478714108,-0.0339030213654041,0.013744467869401
5,1.02083339474202,-0.180555567988136,0.00972222266958873,-0.00641408516094089,-0.0326812900602817,0.0106901414692402
5,1.01944450285877,-0.18333333959868,0.00555555575692586,-0.00855211354792118,-0.0280998013913631,0.0128281703218818
5,1.00972225967599,-0.17361112072783,0.00555555575692586,-0.0128281703218818,-0.0244346093386412,0.00427605677396059
5,1.01944450285877,-0.177777784221628,0.0166666676506515,-0.0131336031481624,-0.0369573459029198,0.0143553335219622
5,1.02222228662528,-0.176388892338373,0.00555555575692586,-0.01588249579072,-0.0302378293126821,0.00946841109544039
5,1.02500007039179,-0.17361112072783,0.00277777787846293,-0.0045814891345799,-0.0186313893646002,0.00824668072164059
5,1.02361117850853,-0.179166676104882,-0.0138888899621255,0.00488692196086049,-0.00946841109544039,0.00366519158706069
5,1.02083339474202,-0.180555567988136,-0.0138888899621255,0.0045814891345799,-0.01191187184304,0.0125227374956012
5,1.01944450285877,-0.176388892338373,-0.00138888893923146,0.00366519158706069,0.00152716308366507,0.000305432622553781
5,1.01944450285877,-0.17361112072783,-0.00277777787846293,0.00152716308366507,0.00763581553474069,-0.000916297896765172
5,1.02222228662528,-0.177777784221628,-0.00555555575692586,0.0128281703218818,0.00488692196086049,-0.00763581553474069
5,1.01527782720901,-0.170833336961321,-0.00555555575692586,0.00152716308366507,0.00549778714776039,-0.00519235478714108
5,1.02222228662528,-0.175000000455119,-0.00555555575692586,-0.0027488935738802,0.0146607663482428,-0.0106901414692402
5,1.02500007039179,-0.172222228844576,-0.00138888893923146,-0.00702495034784079,0.00733038317412138,-0.0164933614432812
5,1.01805561097552,-0.170833336961321,-0.00138888893923146,-0.00763581553474069,0.011606439948082,-0.0146607663482428
5,1.01388893532575,-0.170833336961321,-0.00833333382532574,-0.00549778714776039,0.0164933614432812,-0.0244346093386412
5,1.02222228662528,-0.169444445078067,-0.00277777787846293,-0.0201585534960032,0.0207694191485643,-0.0183259565383196
5,1.01944450285877,-0.170833336961321,-0.0111111115138517,-0.0189368221908808,0.0229074470698834,-0.021685715764761
5,1.01527782720901,-0.176388892338373,-0.00416666691266287,-0.0229074470698834,0.0210748501121998,-0.0280998013913631
5,1.01527782720901,-0.176388892338373,-0.00416666691266287,-0.027488935738802,0.0180205255746841,-0.0192422550171614
5,1.01666671909226,-0.177777784221628,0.00277777787846293,-0.0177150927484035,0.00885754637420177,-0.0122173046693206
5,1.01805561097552,-0.17361112072783,0.00138888893923146,-0.00763581553474069,0.00733038317412138,-0.0122173046693206
5,1.01944450285877,-0.17361112072783,-0.0180555564949145,-0.013744467869401,0.0177150927484035,-0.011606439948082
5,1.01805561097552,-0.172222228844576,-0.0125000003581147,-0.019547687843442,0.0106901414692402,-0.0103847095742822
5,1.01944450285877,-0.17361112072783,-0.00138888893923146,-0.00946841109544039,0.0134390350431204,-0.00946841109544039
5,1.01666671909226,-0.176388892338373,0.00277777787846293,-0.0109955742955208,0.00244346098043024,-0.0109955742955208
5,1.01805561097552,-0.175000000455119,0.00277777787846293,-0.0125227374956012,0.0100792767480016,-0.0140499006956816
5,1.01666671909226,-0.180555567988136,-0.00138888893923146,0.00183259579353034,0.0131336031481624,-0.01588249579072
5,1.01944450285877,-0.177777784221628,-0.00138888893923146,0.000916297896765172,0.0167987942695618,-0.00824668072164059
5,1.01805561097552,-0.176388892338373,0.00416666691266287,0.00183259579353034,0.00488692196086049,-0.0131336031481624
5,1.02222228662528,-0.180555567988136,0.00416666691266287,0.01191187184304,0.0103847095742822,-0.0027488935738802
5,1.02222228662528,-0.176388892338373,-0.00277777787846293,0.0143553335219622,0.00610865233466029,-0.0106901414692402
5,1.02222228662528,-0.17361112072783,-0.00277777787846293,0.00885754637420177,0.0113010071218014,-0.0222965814173222
5,1.0125000434425,-0.170833336961321,-0.00555555575692586,0.0106901414692402,0.00671951752156019,-0.0201585534960032
5,1.01111115155925,-0.163888889701015,-0.00416666691266287,0.00519235478714108,0.0021380283869803,-0.00427605677396059
5,1.01805561097552,-0.166666673467524,-0.00416666691266287,0.00427605677396059,0.00244346098043024,0.00580321997404099
5,1.02083339474202,-0.17361112072783,-0.00555555575692586,0.00885754637420177,0.00824668072164059,-0.00977384392172098
5,1.01666671909226,-0.175000000455119,0.00138888893923146,0.0045814891345799,0.00244346098043024,-0.0171042270958424
5,1.01527782720901,-0.169444445078067,0.00416666691266287,0.00519235478714108,0.00519235478714108,-0.0134390350431204
5,1.02500007039179,-0.170833336961321,-0.00972222266958873,-0.00885754637420177,0.0253509078174829,-0.0161879286170006
5,1.02361117850853,-0.172222228844576,-0.00972222266958873,-0.000916297896765172,0.0311541277915239,-0.00916297826915979
5,1.02222228662528,-0.175000000455119,0.00555555575692586,0.000305432622553781,0.0372627787292004,-0.0183259565383196
5,1.02777785415829,-0.179166676104882,0.00555555575692586,0.01191187184304,0.0366519130766392,-0.0143553335219622
5,1.01666671909226,-0.175000000455119,0.00416666691266287,0.00885754637420177,0.0403171069920063,-0.0241291765123606
5,1.01111115155925,-0.170833336961321,0.00138888893923146,0.00519235478714108,0.0363464802503586,-0.0128281703218818
5,1.01527782720901,-0.170833336961321,0.00555555575692586,-0.000610865245107561,0.0302378293126821,-0.0131336031481624
5,1.01944450285877,-0.17361112072783,0.0138888899621255,0.0100792767480016,0.0268780700862408,-0.00183259579353034
5,1.01527782720901,-0.176388892338373,0.00972222266958873,0.0146607663482428,0.0183259565383196,-0.00702495034784079
5,1.01527782720901,-0.179166676104882,0.0152777788063885,0.0177150927484035,0.0113010071218014,-0.00488692196086049
5,1.01944450285877,-0.181944447715425,0.0180555564949145,0.0378736443817616,0.0125227374956012,-0.0027488935738802
5,1.01805561097552,-0.177777784221628,0.00972222266958873,0.0409279726445675,0.00733038317412138,-0.00610865233466029
5,1.02361117850853,-0.17361112072783,0.00833333382532574,0.0372627787292004,0.0213802829384804,0.0021380283869803
5,1.02361117850853,-0.170833336961321,0.00277777787846293,0.0363464802503586,0.0339030213654041,0.00366519158706069
5,1.01944450285877,-0.172222228844576,0.00555555575692586,0.0235183127224445,0.0345138870179653,0.00183259579353034
5,1.0125000434425,-0.172222228844576,0.0111111115138517,0.021685715764761,0.0143553335219622,0.00824668072164059
5,1.00972225967599,-0.166666673467524,0.00972222266958873,0.0277943685650826,-0.0027488935738802,0.0161879286170006
5,1.02222228662528,-0.169444445078067,0.0125000003581147,0.0332921557128429,-0.019547687843442,0.0177150927484035
5,1.02500007039179,-0.170833336961321,0.0152777788063885,0.0345138870179653,-0.00702495034784079,0.0204639863222837
5,1.01944450285877,-0.175000000455119,0.0194444453391775,0.0323758572340012,-0.00610865233466029,0.0128281703218818
5,1.01666671909226,-0.169444445078067,0.00277777787846293,0.0271835029125214,0.0033597587607801,0.00610865233466029
5,1.01805561097552,-0.163888889701015,0.00138888893923146,0.0201585534960032,0.01191187184304,0.0021380283869803
5,1.01944450285877,-0.163888889701015,0.0125000003581147,0.00641408516094089,0.015577063895762,-0.000305432622553781
5,1.02222228662528,-0.16527778158427,0.00277777787846293,-0.0122173046693206,0.0201585534960032,0.00397062394768
5,1.01944450285877,-0.163888889701015,0.00277777787846293,-0.011606439948082,0.0177150927484035,-0.00183259579353034
5,1.01666671909226,-0.158333334323963,-0.00277777787846293,-0.0106901414692402,0.0122173046693206,0.00519235478714108
5,1.01805561097552,-0.163888889701015,0.0125000003581147,-0.015577063895762,0.00733038317412138,0.0113010071218014
5,1.01666671909226,-0.179166676104882,0.0166666676506515,-0.0103847095742822,-0.00977384392172098,0.0167987942695618
5,1.01944450285877,-0.176388892338373,0.0166666676506515,-0.00488692196086049,-0.0122173046693206,0.00366519158706069
5,1.02083339474202,-0.17361112072783,0.00694444498106275,-0.00152716308366507,-0.0171042270958424,0.00824668072164059
5,1.02361117850853,-0.176388892338373,0.00972222266958873,-0.00610865233466029,-0.0149661982432008,0.00641408516094089
5,1.02222228662528,-0.17361112072783,0.00694444498106275,0.000305432622553781,0.000610865245107561,-0.0134390350431204
5,1.01805561097552,-0.172222228844576,0.0125000003581147,0.00488692196086049,0.0033597587607801,-0.0109955742955208
5,1.01805561097552,-0.17361112072783,0.0152777788063885,0.0122173046693206,0.00641408516094089,-0.00366519158706069
5,1.01666671909226,-0.176388892338373,0.0208333341834404,0.0109955742955208,0.00122173049021512,-0.0131336031481624
5,1.01805561097552,-0.176388892338373,0.00277777787846293,0.0204639863222837,-0.00763581553474069,-0.00977384392172098
5,1.01805561097552,-0.176388892338373,0.00277777787846293,0.0171042270958424,-0.0109955742955208,0.0103847095742822
5,1.01527782720901,-0.179166676104882,0.00833333382532574,0.0122173046693206,-0.0134390350431204,0.0100792767480016
5,1.0125000434425,-0.180555567988136,0.00416666691266287,0.0207694191485643,-0.00946841109544039,0.00702495034784079
5,1.0125000434425,-0.180555567988136,0.00416666691266287,0.0183259565383196,-0.0122173046693206,0.00305432616733015
5,1.01944450285877,-0.18333333959868,0.00138888893923146,0.0302378293126821,-0.0164933614432812,0.019547687843442
5,1.01666671909226,-0.187500003092477,0.00138888893923146,0.0268780700862408,-0.00977384392172098,0.0143553335219622
5,1.01666671909226,-0.187500003092477,0.00138888893923146,0.03176499158144,-0.0113010071218014,0.00824668072164059
5,1.01944450285877,-0.18333333959868,0.00277777787846293,0.0378736443817616,-0.00397062394768,0.0131336031481624
5,1.02500007039179,-0.176388892338373,0.00277777787846293,0.0394008085131645,0.00916297826915979,0.011606439948082
5,1.02500007039179,-0.176388892338373,0.00277777787846293,0.0305432621389627,0.0167987942695618,-0.0021380283869803
5,1.01805561097552,-0.179166676104882,-0.00138888893923146,0.0409279726445675,0.0021380283869803,-0.00244346098043024
5,1.0125000434425,-0.168055565350778,0.00694444498106275,0.0378736443817616,-0.00885754637420177,-0.00122173049021512
5,1.0125000434425,-0.168055565350778,0.00694444498106275,0.0345138870179653,-0.0192422550171614,0.00733038317412138
5,1.01944450285877,-0.172222228844576,0.00833333382532574,0.0284052342176437,-0.0189368221908808,0.0140499006956816
5,1.02083339474202,-0.179166676104882,0.00555555575692586,0.0284052342176437,-0.021685715764761,0.0128281703218818
5,1.01805561097552,-0.181944447715425,0.00972222266958873,0.0265726372599602,-0.0201585534960032,0.00794124789535999
5,1.01944450285877,-0.169444445078067,0.0208333341834404,0.019547687843442,-0.0210748501121998,0.0241291765123606
5,1.02222228662528,-0.170833336961321,0.00416666691266287,0.0113010071218014,-0.0201585534960032,0.0164933614432812
5,1.02222228662528,-0.172222228844576,0.00694444498106275,0.0183259565383196,-0.0222965814173222,0.00733038317412138
5,1.02500007039179,-0.17361112072783,0.00277777787846293,0.017409659922123,-0.0125227374956012,0.00885754637420177
5,1.02222228662528,-0.180555567988136,0.00694444498106275,0.00183259579353034,-0.00763581553474069,0.0027488935738802
5,1.01944450285877,-0.17361112072783,0.00555555575692586,0.00366519158706069,-0.000916297896765172,0.00305432616733015
5,1.01666671909226,-0.172222228844576,0.00555555575692586,0.00702495034784079,-0.00366519158706069,-0.00549778714776039
5,1.01944450285877,-0.166666673467524,0.0111111115138517,0.00702495034784079,-0.00244346098043024,0.000610865245107561
5,1.02361117850853,-0.176388892338373,0.0111111115138517,0.00885754637420177,0.00855211354792118,0.00152716308366507
5,1.02222228662528,-0.17361112072783,0.00555555575692586,0.0122173046693206,0.00916297826915979,0.00183259579353034
5,1.01805561097552,-0.17361112072783,0.00277777787846293,0.0164933614432812,0.00427605677396059,0.00397062394768
5,1.0125000434425,-0.180555567988136,0.00972222266958873,0.0192422550171614,-0.00397062394768,-0.00305432616733015
5,1.02222228662528,-0.172222228844576,0.0208333341834404,0.0219911485910416,-0.000305432622553781,0.00152716308366507
5,1.02083339474202,-0.169444445078067,0.00555555575692586,0.0152716310694814,0.0033597587607801,-0.0021380283869803
5,1.01944450285877,-0.17361112072783,-0.00972222266958873,0.015577063895762,0.0183259565383196,-0.00794124789535999
5,1.01666671909226,-0.176388892338373,0.00555555575692586,0.0167987942695618,0.0164933614432812,-0.00916297826915979
5,1.01944450285877,-0.18333333959868,-0.00277777787846293,0.01191187184304,0.0192422550171614,-0.00885754637420177
5,1.02083339474202,-0.175000000455119,0.00138888893923146,0.00702495034784079,0.0253509078174829,-0.00977384392172098
5,1.01527782720901,-0.168055565350778,0.00694444498106275,0.00641408516094089,0.0125227374956012,0.00305432616733015
5,1.0125000434425,-0.170833336961321,0.0138888899621255,0.00366519158706069,-0.00152716308366507,0.00549778714776039
5,1.01666671909226,-0.17361112072783,0.00416666691266287,0.0183259565383196,-0.00488692196086049,0.000610865245107561
5,1.01527782720901,-0.169444445078067,0.00972222266958873,0.00397062394768,0.0045814891345799,-0.0045814891345799
5,1.01944450285877,-0.172222228844576,0.00416666691266287,-0.0021380283869803,0.00946841109544039,-0.00916297826915979
5,1.01666671909226,-0.180555567988136,0.00694444498106275,-0.0045814891345799,-0.00366519158706069,-0.00122173049021512
5,1.01944450285877,-0.177777784221628,0.0111111115138517,0.00183259579353034,0.00122173049021512,-0.00183259579353034
5,1.01666671909226,-0.176388892338373,0.00416666691266287,0.0122173046693206,-0.0033597587607801,-0.0021380283869803
5,1.02083339474202,-0.176388892338373,-0.00277777787846293,0.00580321997404099,-0.00183259579353034,0.00305432616733015
5,1.02222228662528,-0.179166676104882,-0.00138888893923146,0.00366519158706069,0.0177150927484035,0.0021380283869803
5,1.02222228662528,-0.176388892338373,-0.00555555575692586,0.00488692196086049,0.01588249579072,-0.00610865233466029
5,1.01666671909226,-0.181944447715425,0.00277777787846293,0.00671951752156019,0.00824668072164059,-0.00519235478714108
5,1.02083339474202,-0.180555567988136,0.00833333382532574,0.00824668072164059,0.0149661982432008,-0.00671951752156019
5,1.02222228662528,-0.186111123365188,0.00138888893923146,0.0140499006956816,-0.00183259579353034,0.00427605677396059
5,1.0125000434425,-0.181944447715425,0.0138888899621255,0.0146607663482428,-0.000610865245107561,0.000916297896765172
5,1.01944450285877,-0.176388892338373,0.00972222266958873,0.0140499006956816,0.00549778714776039,0.00610865233466029
5,1.02222228662528,-0.177777784221628,0.0152777788063885,0.015577063895762,0.00397062394768,-0.00763581553474069
5,1.01944450285877,-0.181944447715425,0.0125000003581147,0.00977384392172098,0.0113010071218014,-0.00763581553474069
5,1.01805561097552,-0.179166676104882,0.00416666691266287,0.0152716310694814,0.00305432616733015,-0.00397062394768
5,1.02361117850853,-0.177777784221628,0.00277777787846293,0.0152716310694814,0.00916297826915979,-0.00946841109544039
5,1.01944450285877,-0.179166676104882,0.0125000003581147,0.0125227374956012,0.0100792767480016,-0.00519235478714108
5,1.02222228662528,-0.179166676104882,0.00833333382532574,0.011606439948082,0.0167987942695618,0.00152716308366507
5,1.01944450285877,-0.176388892338373,0.00694444498106275,0.0125227374956012,0.00794124789535999,-0.00152716308366507
5,1.01944450285877,-0.18333333959868,0.00694444498106275,0.0161879286170006,-0.000916297896765172,0.0021380283869803
5,1.01944450285877,-0.180555567988136,0.00277777787846293,0.0143553335219622,0.00580321997404099,-0.00519235478714108
5,1.01388893532575,-0.176388892338373,0.0125000003581147,0.0122173046693206,-0.00152716308366507,-0.00305432616733015
5,1.02083339474202,-0.175000000455119,0.0125000003581147,0.00885754637420177,-0.00122173049021512,-0.00794124789535999
5,1.01944450285877,-0.180555567988136,0.00972222266958873,0.00946841109544039,-0.00488692196086049,-0.00519235478714108
5,1.02083339474202,-0.186111123365188,-0.00138888893923146,0.0113010071218014,0.0033597587607801,-0.0045814891345799
5,1.02222228662528,-0.187500003092477,0.0111111115138517,0.0152716310694814,0.00427605677396059,-0.00549778714776039
5,1.02083339474202,-0.180555567988136,0.0125000003581147,0.00977384392172098,0.00794124789535999,-0.00427605677396059
5,1.01944450285877,-0.175000000455119,0.00277777787846293,-0.000305432622553781,0.0192422550171614,-0.00733038317412138
5,1.01944450285877,-0.175000000455119,0.00138888893923146,-0.00610865233466029,0.0146607663482428,-0.0134390350431204
5,1.01666671909226,-0.176388892338373,0.0125000003581147,0.00122173049021512,0.0109955742955208,-0.00183259579353034
5,1.02083339474202,-0.175000000455119,0.00555555575692586,0.000916297896765172,0.0180205255746841,-0.0161879286170006
5,1.02222228662528,-0.177777784221628,0.0152777788063885,0.00366519158706069,0.00580321997404099,-0.00916297826915979
5,1.01527782720901,-0.179166676104882,0.0138888899621255,0.00702495034784079,0.011606439948082,-0.00488692196086049
5,1.0125000434425,-0.176388892338373,0.0194444453391775,0.0161879286170006,-0.00549778714776039,-0.00519235478714108
5,1.01527782720901,-0.176388892338373,0.00694444498106275,0.0332921557128429,-0.0256563406437635,-0.00885754637420177
5,1.01666671909226,-0.17361112072783,-0.00555555575692586,0.0219911485910416,-0.0290160998702049,-0.00519235478714108
5,1.01805561097552,-0.176388892338373,-0.00555555575692586,0.0280998013913631,-0.0293215326964855,0.0033597587607801
5,1.01944450285877,-0.181944447715425,0.00277777787846293,0.021685715764761,-0.00824668072164059,0.00824668072164059
5,1.02083339474202,-0.181944447715425,-0.00694444498106275,0.01191187184304,0.00671951752156019,-0.0027488935738802
5,1.01944450285877,-0.18333333959868,0.00555555575692586,0.00244346098043024,0.01588249579072,-0.00305432616733015
5,1.02222228662528,-0.17361112072783,0.0166666676506515,0.00152716308366507,0.0213802829384804,-0.0171042270958424
5,1.01805561097552,-0.17361112072783,0.0125000003581147,0.00610865233466029,0.00519235478714108,-0.00366519158706069
5,1.01805561097552,-0.172222228844576,0.00277777787846293,0.00916297826915979,0.00122173049021512,0.00641408516094089
5,1.01666671909226,-0.170833336961321,0.00972222266958873,0.0128281703218818,0.000916297896765172,-0.000305432622553781
5,1.01944450285877,-0.17361112072783,0.00555555575692586,0.0045814891345799,0.0027488935738802,0.0027488935738802
5,1.01666671909226,-0.181944447715425,0.00555555575692586,0.000305432622553781,-0.000305432622553781,-0.00610865233466029
5,1.0125000434425,-0.180555567988136,0.00972222266958873,0.00427605677396059,0.000610865245107561,0.00397062394768
5,1.02083339474202,-0.175000000455119,0.0125000003581147,0.0146607663482428,-0.0033597587607801,0.00427605677396059
5,1.01527782720901,-0.176388892338373,0.00972222266958873,0.0171042270958424,-0.0106901414692402,-0.00122173049021512
5,1.02222228662528,-0.180555567988136,0.0125000003581147,0.0143553335219622,-0.00152716308366507,-0.0027488935738802
5,1.02361117850853,-0.17361112072783,0.00694444498106275,-0.00427605677396059,0.0143553335219622,-0.00397062394768
5,1.02083339474202,-0.17361112072783,0.00555555575692586,0.00397062394768,0.0186313893646002,-0.000610865245107561
5,1.01944450285877,-0.17361112072783,-0.00555555575692586,0.00427605677396059,0.0134390350431204,-0.00610865233466029
5,1.01666671909226,-0.17361112072783,0.00694444498106275,-0.00305432616733015,0.00794124789535999,0.00244346098043024
5,1.0125000434425,-0.176388892338373,0.00694444498106275,0.00152716308366507,0.0033597587607801,0.000305432622553781
5,1.01666671909226,-0.180555567988136,0.00972222266958873,0.0131336031481624,0.00305432616733015,0.00397062394768
5,1.01666671909226,-0.180555567988136,0.00833333382532574,0.01191187184304,-0.00488692196086049,-0.0033597587607801
5,1.01666671909226,-0.176388892338373,0.00555555575692586,0.0189368221908808,-0.000610865245107561,0.00733038317412138
5,1.02222228662528,-0.179166676104882,0.0125000003581147,0.01191187184304,0.00397062394768,-0.00183259579353034
5,1.02083339474202,-0.180555567988136,0.00694444498106275,0.0131336031481624,0.00519235478714108,-0.00610865233466029
5,1.01944450285877,-0.175000000455119,-0.00277777787846293,0.00763581553474069,0.00916297826915979,-0.0113010071218014
5,1.0125000434425,-0.170833336961321,0.00972222266958873,0.00122173049021512,0.00427605677396059,-0.00580321997404099
5,1.01944450285877,-0.180555567988136,0.00972222266958873,0.000305432622553781,-0.0103847095742822,-0.0100792767480016
5,1.02361117850853,-0.180555567988136,0.0180555564949145,-0.00122173049021512,-0.00488692196086049,-0.00244346098043024
5,1.02361117850853,-0.180555567988136,0.0180555564949145,0.000305432622553781,0.00549778714776039,0.000305432622553781
5,1.01944450285877,-0.180555567988136,0.00555555575692586,0.00397062394768,0.00397062394768,-0.00519235478714108
5,1.01944450285877,-0.179166676104882,0.00833333382532574,0.00152716308366507,0.0146607663482428,-0.00763581553474069
5,1.01944450285877,-0.179166676104882,0.00833333382532574,-0.0109955742955208,0.00488692196086049,-0.00733038317412138
5,1.01666671909226,-0.181944447715425,-0.00416666691266287,-0.01588249579072,0.011606439948082,-0.0131336031481624
5,1.01944450285877,-0.176388892338373,-0.00416666691266287,-0.0122173046693206,0.0106901414692402,-0.0128281703218818
5,1.01944450285877,-0.176388892338373,-0.00416666691266287,-0.00580321997404099,0.0201585534960032,-0.0167987942695618
5,1.01527782720901,-0.186111123365188,-0.00277777787846293,-0.00122173049021512,0.0177150927484035,0.00152716308366507
5,1.00972225967599,-0.188888894975731,0.00555555575692586,0.011606439948082,-0.0027488935738802,0.00824668072164059
5,1.01805561097552,-0.187500003092477,0.00138888893923146,0.0305432621389627,-0.00763581553474069,0.0149661982432008
5,1.01805561097552,-0.187500003092477,0.00138888893923146,0.0485637858510017,0.00152716308366507,0.00519235478714108
5,1.00972225967599,-0.187500003092477,-0.00555555575692586,0.0503963828086853,0.0122173046693206,-0.00488692196086049
5,1.00972225967599,-0.187500003092477,-0.00555555575692586,0.0427605658769607,0.00702495034784079,-0.000916297896765172
5,1.01805561097552,-0.186111123365188,0.00277777787846293,0.0571159012615681,0.0305432621389627,-0.00794124789535999
5,1.02500007039179,-0.180555567988136,0.00277777787846293,0.0552833043038845,0.0204639863222837,-0.00763581553474069
5,1.02083339474202,-0.175000000455119,-0.00277777787846293,0.0403171069920063,0.019547687843442,-0.00519235478714108
5,1.01805561097552,-0.166666673467524,0.00138888893923146,0.0363464802503586,0.0106901414692402,-0.00427605677396059
5,1.0125000434425,-0.166666673467524,0.0111111115138517,0.0390953756868839,-0.00152716308366507,0.00794124789535999
5,1.0125000434425,-0.169444445078067,0.00138888893923146,0.0198531206697226,-0.0128281703218818,0.0109955742955208
5,1.01527782720901,-0.176388892338373,0.00277777787846293,0.02382374368608,-0.0161879286170006,0.0021380283869803
5,1.01666671909226,-0.180555567988136,0.00277777787846293,0.0192422550171614,-0.0140499006956816,0.00549778714776039
5,1.01944450285877,-0.186111123365188,0.00277777787846293,0.0219911485910416,-0.0207694191485643,0.00519235478714108
5,1.03194452980806,-0.176388892338373,0.00555555575692586,0.00549778714776039,0.00610865233466029,-0.0100792767480016
5,1.02916674604155,-0.175000000455119,0.00694444498106275,-0.00549778714776039,0.00641408516094089,-0.0146607663482428
5,1.01944450285877,-0.176388892338373,0.0125000003581147,-0.0164933614432812,-0.011606439948082,-0.00366519158706069
5,1.01944450285877,-0.177777784221628,0.0180555564949145,-0.00885754637420177,0.00671951752156019,-0.0103847095742822
5,1.02500007039179,-0.177777784221628,0.0138888899621255,-0.00855211354792118,-0.00122173049021512,0.000610865245107561
5,1.02361117850853,-0.175000000455119,0.00555555575692586,-0.0302378293126821,-0.00824668072164059,-0.00946841109544039
5,1.01527782720901,-0.180555567988136,0.0138888899621255,-0.0256563406437635,-0.0122173046693206,-0.0152716310694814
5,1.01944450285877,-0.187500003092477,0.00138888893923146,-0.0235183127224445,-0.00488692196086049,-0.00427605677396059
5,1.02222228662528,-0.184722231481934,0.00138888893923146,-0.00855211354792118,0.0103847095742822,-0.00397062394768
5,1.01944450285877,-0.187500003092477,0.00138888893923146,-0.00794124789535999,0.0045814891345799,0.0021380283869803
5,1.02361117850853,-0.180555567988136,0.00138888893923146,0.00305432616733015,0.0268780700862408,-0.00397062394768
5,1.01805561097552,-0.186111123365188,-0.00694444498106275,-0.00763581553474069,0.0433714315295219,-0.00733038317412138
5,1.02222228662528,-0.181944447715425,0.00138888893923146,-0.00244346098043024,0.0302378293126821,0.00488692196086049
5,1.01666671909226,-0.172222228844576,0.00277777787846293,-0.0164933614432812,0.019547687843442,-0.0164933614432812
5,1.01388893532575,-0.170833336961321,0.00694444498106275,-0.0232128798961639,0.021685715764761,-0.0192422550171614
5,1.01388893532575,-0.180555567988136,0.0152777788063885,-0.0167987942695618,0.0378736443817616,-0.0131336031481624
5,1.02361117850853,-0.184722231481934,0.00833333382532574,-0.00671951752156019,0.0384845100343227,-0.00916297826915979
5,1.02222228662528,-0.18333333959868,0.00833333382532574,-0.00733038317412138,0.0323758572340012,-0.01191187184304
5,1.01527782720901,-0.16527778158427,0.0180555564949145,-0.0210748501121998,0.0204639863222837,-0.0033597587607801
5,1.0125000434425,-0.16527778158427,0.0152777788063885,-0.0265726372599602,0.0167987942695618,0.0021380283869803
5,1.0125000434425,-0.176388892338373,-0.00138888893923146,-0.0186313893646002,0.0122173046693206,-0.00702495034784079
5,1.01527782720901,-0.186111123365188,0.00277777787846293,-0.00366519158706069,0.0250454749912024,-0.0027488935738802
5,1.01527782720901,-0.186111123365188,0.00555555575692586,0.0177150927484035,0.00641408516094089,-0.00488692196086049
5,1.02222228662528,-0.180555567988136,0.00555555575692586,0.01588249579072,0.0219911485910416,0.0027488935738802
5,1.02500007039179,-0.17361112072783,0.00555555575692586,0.00702495034784079,0.0146607663482428,0.0021380283869803
5,1.02222228662528,-0.179166676104882,0.00555555575692586,0.011606439948082,0.01191187184304,-0.0198531206697226
5,1.01527782720901,-0.184722231481934,0.0125000003581147,0.0232128798961639,0.0189368221908808,-0.00916297826915979
5,1.01805561097552,-0.180555567988136,0.00694444498106275,0.0171042270958424,0.0201585534960032,-0.00671951752156019
5,1.01805561097552,-0.168055565350778,0.00416666691266287,0.0128281703218818,0.0219911485910416,-0.00244346098043024
5,1.01944450285877,-0.17361112072783,0.00277777787846293,0.0152716310694814,0.0372627787292004,-0.00580321997404099
5,1.02222228662528,-0.176388892338373,0.00555555575692586,0.00824668072164059,0.0384845100343227,-0.00916297826915979
5,1.01527782720901,-0.18333333959868,0.0125000003581147,0.0134390350431204,0.0213802829384804,0.00519235478714108
5,1.02222228662528,-0.180555567988136,0.0152777788063885,0.00977384392172098,0.0134390350431204,0.0021380283869803
5,1.02083339474202,-0.177777784221628,0.0180555564949145,0.013744467869401,0.017409659922123,-0.00763581553474069
5,1.01944450285877,-0.177777784221628,0.0180555564949145,-0.0033597587607801,0.0109955742955208,-0.0100792767480016
5,1.01944450285877,-0.180555567988136,0.0125000003581147,0.0103847095742822,0.0109955742955208,-0.00580321997404099
5,1.02222228662528,-0.172222228844576,0.00694444498106275,0.0134390350431204,0.01191187184304,0.0045814891345799
5,1.02222228662528,-0.170833336961321,0.00694444498106275,0.00946841109544039,0.013744467869401,0.00152716308366507
5,1.02222228662528,-0.181944447715425,0.0166666676506515,0.01588249579072,0.0198531206697226,-0.00122173049021512
5,1.01805561097552,-0.181944447715425,0.0111111115138517,0.0146607663482428,0.0125227374956012,-0.0189368221908808
5,1.01666671909226,-0.172222228844576,0.0111111115138517,0.013744467869401,0.000305432622553781,0.000610865245107561
5,1.01805561097552,-0.172222228844576,0.00694444498106275,0.0186313893646002,0.0122173046693206,-0.00824668072164059
5,1.01805561097552,-0.163888889701015,0.00972222266958873,0.0100792767480016,0.0033597587607801,-0.0164933614432812
5,1.01805561097552,-0.179166676104882,0.0111111115138517,0.0232128798961639,0.0113010071218014,0.0033597587607801
5,1.01388893532575,-0.176388892338373,0.0166666676506515,0.03176499158144,0.0186313893646002,-0.000305432622553781
5,1.0125000434425,-0.161111118090472,0.0208333341834404,0.0106901414692402,-0.0210748501121998,-0.00122173049021512
5,1.01388893532575,-0.17361112072783,0.0125000003581147,0.0219911485910416,-0.00855211354792118,0.00641408516094089
5,1.01388893532575,-0.176388892338373,0.0138888899621255,0.0226020142436027,-0.00244346098043024,-0.0033597587607801
5,1.02083339474202,-0.175000000455119,0.0180555564949145,0.0305432621389627,-0.00824668072164059,-0.00244346098043024
5,1.02222228662528,-0.176388892338373,0.0236111118719664,0.0229074470698834,0.00397062394768,-0.00427605677396059
5,1.02083339474202,-0.172222228844576,0.0152777788063885,0.0134390350431204,-0.000610865245107561,-0.0033597587607801
5,1.01388893532575,-0.172222228844576,0.0208333341834404,0.0161879286170006,-0.00580321997404099,-0.00183259579353034
5,1.01944450285877,-0.175000000455119,0.0194444453391775,0.0128281703218818,-0.017409659922123,-0.00152716308366507
5,1.02500007039179,-0.18333333959868,0.0194444453391775,0.0271835029125214,-0.00946841109544039,0.00610865233466029
5,1.01666671909226,-0.166666673467524,0.0152777788063885,0.00397062394768,-0.0146607663482428,-0.00671951752156019
5,1.01944450285877,-0.166666673467524,0.0125000003581147,0.0021380283869803,-0.0213802829384804,-0.00427605677396059
5,1.01527782720901,-0.166666673467524,0.0222222230277034,-0.0106901414692402,-0.00366519158706069,-0.00122173049021512
5,1.0125000434425,-0.175000000455119,0.0166666676506515,-0.0027488935738802,-0.0106901414692402,-0.00946841109544039
5,1.01527782720901,-0.18333333959868,0.0208333341834404,0.00488692196086049,-0.011606439948082,0.00519235478714108
5,1.01944450285877,-0.176388892338373,0.0222222230277034,0.00580321997404099,-0.0033597587607801,-0.00183259579353034
5,1.02083339474202,-0.176388892338373,0.00833333382532574,0.00244346098043024,0.00366519158706069,-0.000610865245107561
5,1.02083339474202,-0.176388892338373,0.0152777788063885,0.00702495034784079,0.00610865233466029,0.00549778714776039
5,1.01666671909226,-0.169444445078067,0.0125000003581147,0.00244346098043024,0.0100792767480016,0.000916297896765172
5,1.01388893532575,-0.176388892338373,0.0208333341834404,0.00519235478714108,-0.00397062394768,-0.0033597587607801
5,1.01944450285877,-0.184722231481934,0.0152777788063885,0.0161879286170006,-0.00366519158706069,0.00794124789535999
5,1.01388893532575,-0.179166676104882,0.0125000003581147,0.0167987942695618,0.0027488935738802,-0.0027488935738802
5,1.01805561097552,-0.17361112072783,0.0138888899621255,0.0149661982432008,-0.0152716310694814,-0.000305432622553781
5,1.02361117850853,-0.17361112072783,0.00833333382532574,0.0219911485910416,-0.00305432616733015,0.00244346098043024
5,1.01944450285877,-0.179166676104882,0.0125000003581147,0.01191187184304,0.017409659922123,-0.00183259579353034
5,1.01944450285877,-0.180555567988136,0.0152777788063885,-0.00183259579353034,0.0131336031481624,0.00122173049021512
5,1.01805561097552,-0.180555567988136,0.00972222266958873,-0.00519235478714108,0.0226020142436027,-0.00702495034784079
5,1.01944450285877,-0.177777784221628,0.00833333382532574,-0.00549778714776039,0.0161879286170006,-0.000305432622553781
5,1.02222228662528,-0.181944447715425,0.0166666676506515,-0.0021380283869803,0.0198531206697226,-0.000916297896765172
5,1.02222228662528,-0.181944447715425,0.0166666676506515,0.00152716308366507,0.0103847095742822,-0.00397062394768
5,1.01527782720901,-0.177777784221628,0.0125000003581147,0.0106901414692402,0.00152716308366507,0.0106901414692402
5,1.02222228662528,-0.180555567988136,0.0125000003581147,0.017409659922123,0.00977384392172098,0.00580321997404099
5,1.02222228662528,-0.180555567988136,0.0125000003581147,0.0186313893646002,0.0134390350431204,0.00122173049021512
5,1.01805561097552,-0.175000000455119,0.0166666676506515,0.0152716310694814,0.00610865233466029,-0.00824668072164059
5,1.0125000434425,-0.17361112072783,0.026388891079988,0.029626963660121,-0.00977384392172098,-0.000610865245107561
5,1.0125000434425,-0.17361112072783,0.026388891079988,0.0348193198442459,-0.0342084541916847,0.0143553335219622
5,1.01527782720901,-0.17361112072783,0.00972222266958873,0.0271835029125214,-0.00946841109544039,0.000305432622553781
5,1.02083339474202,-0.180555567988136,0.0222222230277034,0.0241291765123606,-0.0106901414692402,0.00397062394768
5,1.02083339474202,-0.180555567988136,0.0222222230277034,0.0293215326964855,-0.0140499006956816,0.00885754637420177
5,1.02222228662528,-0.170833336961321,0.0152777788063885,0.0235183127224445,-0.00397062394768,0.0143553335219622
5,1.01944450285877,-0.168055565350778,0.0222222230277034,0.0201585534960032,0.011606439948082,0.00916297826915979
5,1.01944450285877,-0.168055565350778,0.0222222230277034,0.0109955742955208,0.0164933614432812,0.0027488935738802
5,1.02361117850853,-0.172222228844576,0.0166666676506515,0.00549778714776039,0.0271835029125214,-0.000610865245107561
5,1.02361117850853,-0.176388892338373,0.0111111115138517,0.0100792767480016,0.0302378293126821,0.00122173049021512
5,1.01805561097552,-0.176388892338373,0.00694444498106275,0.00610865233466029,0.0332921557128429,-0.00946841109544039
5,1.01944450285877,-0.169444445078067,0.0194444453391775,0.00183259579353034,0.0384845100343227,-0.0128281703218818
5,1.02222228662528,-0.168055565350778,0.0222222230277034,0.00427605677396059,0.0244346093386412,-0.00733038317412138
5,1.02222228662528,-0.172222228844576,0.0152777788063885,-0.0021380283869803,0.03176499158144,-0.0143553335219622
5,1.01666671909226,-0.17361112072783,0.0180555564949145,-0.000305432622553781,0.0219911485910416,-0.0128281703218818
5,1.01527782720901,-0.172222228844576,0.0194444453391775,0.00305432616733015,0.011606439948082,-0.00824668072164059
5,1.0125000434425,-0.175000000455119,0.00972222266958873,0.00122173049021512,0.000610865245107561,-0.000305432622553781
5,1.0125000434425,-0.176388892338373,0.0111111115138517,0.00183259579353034,0.00488692196086049,-0.00244346098043024
5,1.02222228662528,-0.176388892338373,0.00972222266958873,-0.00366519158706069,0.0143553335219622,-0.01191187184304
5,1.02638896227504,-0.175000000455119,0.0166666676506515,-0.00519235478714108,0.0143553335219622,-0.0180205255746841
5,1.02361117850853,-0.17361112072783,0.0125000003581147,-0.0100792767480016,0.0244346093386412,-0.0189368221908808
5,1.01944450285877,-0.16527778158427,0.0208333341834404,-0.0131336031481624,0.0161879286170006,-0.0128281703218818
5,1.0125000434425,-0.176388892338373,0.0208333341834404,-0.0021380283869803,0.00580321997404099,-0.00610865233466029
5,1.01805561097552,-0.176388892338373,0.0194444453391775,0.00427605677396059,-0.000610865245107561,-0.0027488935738802
5,1.01666671909226,-0.180555567988136,0.0138888899621255,-0.0021380283869803,-0.00152716308366507,-0.0021380283869803
5,1.01944450285877,-0.177777784221628,0.0194444453391775,-0.0027488935738802,-0.00305432616733015,-0.0180205255746841
5,1.01944450285877,-0.175000000455119,0.0250000007162294,-0.000610865245107561,0.0033597587607801,-0.00671951752156019
5,1.02222228662528,-0.177777784221628,0.0166666676506515,-0.0106901414692402,0.0201585534960032,-0.00519235478714108
5,1.02500007039179,-0.176388892338373,0.0152777788063885,-0.00763581553474069,0.015577063895762,-0.0021380283869803
5,1.02638896227504,-0.176388892338373,0.0222222230277034,-0.0164933614432812,0.0213802829384804,-0.0128281703218818
5,1.02500007039179,-0.179166676104882,0.0125000003581147,-0.00794124789535999,0.0287106670439243,-0.0164933614432812
5,1.02500007039179,-0.18333333959868,0.0138888899621255,0.00641408516094089,0.0210748501121998,-0.0027488935738802
5,1.01944450285877,-0.176388892338373,0.0250000007162294,0.015577063895762,0.00519235478714108,-0.0152716310694814
5,1.0125000434425,-0.181944447715425,0.0222222230277034,0.015577063895762,0.00733038317412138,-0.00427605677396059
5,1.01527782720901,-0.18333333959868,0.0194444453391775,0.0143553335219622,0.00733038317412138,-0.00580321997404099
5,1.01666671909226,-0.175000000455119,0.0125000003581147,0.0177150927484035,0.00671951752156019,-0.00183259579353034
5,1.02083339474202,-0.180555567988136,0.00972222266958873,0.0180205255746841,0.00397062394768,-0.00824668072164059
5,1.02222228662528,-0.175000000455119,0.00972222266958873,0.0210748501121998,-0.00519235478714108,-0.00305432616733015
5,1.01388893532575,-0.17361112072783,0.0111111115138517,0.0146607663482428,-0.00855211354792118,0.00488692196086049
5,1.01944450285877,-0.168055565350778,0.0194444453391775,0.0134390350431204,0.00855211354792118,0.00763581553474069
5,1.01666671909226,-0.17361112072783,0.0194444453391775,0.0131336031481624,0.000916297896765172,-0.000305432622553781
5,1.01805561097552,-0.168055565350778,0.0194444453391775,0.00366519158706069,0.00305432616733015,0.00305432616733015
5,1.02083339474202,-0.170833336961321,0.0222222230277034,0.00885754637420177,0.00702495034784079,-0.00519235478714108
5,1.02083339474202,-0.175000000455119,0.0166666676506515,0.00794124789535999,0.0180205255746841,-0.015577063895762
5,1.02222228662528,-0.180555567988136,0.00833333382532574,0.00641408516094089,0.0235183127224445,-0.0189368221908808
5,1.02222228662528,-0.181944447715425,0.0194444453391775,0.00244346098043024,0.0277943685650826,-0.0213802829384804
5,1.01527782720901,-0.179166676104882,0.0125000003581147,0.00855211354792118,0.0207694191485643,-0.00885754637420177
5,1.0125000434425,-0.17361112072783,0.0138888899621255,0.00702495034784079,0.0131336031481624,-0.00244346098043024
5,1.01666671909226,-0.17361112072783,0.0194444453391775,0.00885754637420177,0.00977384392172098,-0.0045814891345799
5,1.01388893532575,-0.180555567988136,0.0250000007162294,0.00946841109544039,-0.00244346098043024,0.00946841109544039
5,1.01666671909226,-0.176388892338373,0.0250000007162294,0.0100792767480016,-0.00519235478714108,0.00122173049021512
5,1.02222228662528,-0.176388892338373,0.0180555564949145,0.00580321997404099,0.000305432622553781,0.00794124789535999
5,1.02083339474202,-0.177777784221628,0.0208333341834404,0.00305432616733015,0.00885754637420177,-0.000305432622553781
5,1.02083339474202,-0.180555567988136,0.0125000003581147,0.00580321997404099,0.01588249579072,-0.00580321997404099
5,1.01805561097552,-0.17361112072783,0.0236111118719664,0.00488692196086049,0.01191187184304,-0.00427605677396059
5,1.02222228662528,-0.168055565350778,0.0222222230277034,0.00946841109544039,0.0045814891345799,0.000916297896765172
5,1.01944450285877,-0.175000000455119,0.0166666676506515,0.011606439948082,0.00641408516094089,-0.00610865233466029
5,1.01944450285877,-0.17361112072783,0.0166666676506515,0.0109955742955208,0.0100792767480016,-0.0106901414692402
5,1.02222228662528,-0.176388892338373,0.0236111118719664,0.00366519158706069,0.0113010071218014,-0.0106901414692402
5,1.01805561097552,-0.180555567988136,0.0250000007162294,0.00519235478714108,0.0113010071218014,-0.0171042270958424
5,1.01944450285877,-0.18333333959868,0.0194444453391775,0.00427605677396059,0.0045814891345799,-0.00397062394768
5,1.01944450285877,-0.177777784221628,0.0194444453391775,0.0213802829384804,0.00733038317412138,-0.00610865233466029
5,1.01527782720901,-0.175000000455119,0.0222222230277034,0.0106901414692402,-0.00183259579353034,0.0021380283869803
5,1.01944450285877,-0.176388892338373,0.0166666676506515,0.017409659922123,-0.00244346098043024,0.00733038317412138
5,1.02083339474202,-0.17361112072783,0.0111111115138517,0.0131336031481624,-0.00549778714776039,-0.00122173049021512
5,1.02222228662528,-0.172222228844576,0.0250000007162294,0.01191187184304,-0.01588249579072,0.00152716308366507
5,1.02222228662528,-0.170833336961321,0.0250000007162294,0.00824668072164059,-0.0113010071218014,0.00763581553474069
5,1.01944450285877,-0.17361112072783,0.0125000003581147,0.00824668072164059,0.00397062394768,-0.00427605677396059
5,1.02638896227504,-0.180555567988136,0.0250000007162294,0.0167987942695618,0.00549778714776039,-0.0103847095742822
5,1.02361117850853,-0.175000000455119,0.0208333341834404,0.0256563406437635,0.00763581553474069,-0.00916297826915979
5,1.02361117850853,-0.170833336961321,0.0152777788063885,0.0271835029125214,-0.000916297896765172,-0.011606439948082
5,1.02361117850853,-0.176388892338373,0.0194444453391775,0.0271835029125214,-0.000305432622553781,-0.00610865233466029
5,1.01527782720901,-0.17361112072783,0.0125000003581147,0.03176499158144,0.00610865233466029,0.00122173049021512
5,1.01388893532575,-0.17361112072783,0.027777779924251,0.0244346093386412,-0.00519235478714108,0.00549778714776039
5,1.01805561097552,-0.17361112072783,0.03194444645704,0.0204639863222837,-0.013744467869401,0.00824668072164059
5,1.0125000434425,-0.172222228844576,0.0194444453391775,0.0207694191485643,-0.0323758572340012,0.00580321997404099
5,1.01666671909226,-0.170833336961321,0.0194444453391775,0.01191187184304,-0.0287106670439243,0.0106901414692402
5,1.02083339474202,-0.172222228844576,0.0180555564949145,0.00519235478714108,-0.0229074470698834,0.0106901414692402
5,1.02361117850853,-0.176388892338373,0.0180555564949145,0.0045814891345799,-0.0143553335219622,0.00671951752156019
5,1.02500007039179,-0.177777784221628,0.0138888899621255,0.00671951752156019,0.00427605677396059,-0.00122173049021512
5,1.02500007039179,-0.176388892338373,0.0152777788063885,-0.00733038317412138,0.0131336031481624,-0.000305432622553781
5,1.02083339474202,-0.17361112072783,0.0152777788063885,-0.00305432616733015,0.015577063895762,-0.00671951752156019
5,1.01388893532575,-0.176388892338373,0.0125000003581147,-0.000916297896765172,0.00305432616733015,-0.00397062394768
5,1.00972225967599,-0.172222228844576,-0.00138888893923146,-0.00641408516094089,0.00641408516094089,-0.000610865245107561
5,1.0125000434425,-0.179166676104882,0.00972222266958873,0.00152716308366507,-0.0021380283869803,-0.00152716308366507
5,1.01666671909226,-0.180555567988136,0.0236111118719664,0.00244346098043024,-0.00855211354792118,-0.000916297896765172
5,1.01805561097552,-0.176388892338373,0.0152777788063885,0.00305432616733015,0.0033597587607801,-0.00519235478714108
5,1.01666671909226,-0.181944447715425,0.00972222266958873,0.00916297826915979,-0.0045814891345799,-0.00549778714776039
5,1.01527782720901,-0.177777784221628,0.0125000003581147,0.015577063895762,0.000610865245107561,-0.00610865233466029
5,1.01805561097552,-0.176388892338373,0.0138888899621255,0.00763581553474069,0.000916297896765172,-0.00366519158706069
5,1.02083339474202,-0.181944447715425,0.0208333341834404,0.0143553335219622,0.00641408516094089,-0.0143553335219622
5,1.01944450285877,-0.176388892338373,0.0152777788063885,0.013744467869401,0.0027488935738802,-0.0045814891345799
5,1.01527782720901,-0.180555567988136,0.0194444453391775,0.00641408516094089,0.00519235478714108,0.000610865245107561
5,1.01527782720901,-0.180555567988136,0.0180555564949145,0.015577063895762,-0.00366519158706069,-0.00824668072164059
5,1.01666671909226,-0.177777784221628,0.0194444453391775,0.011606439948082,-0.00977384392172098,-0.0033597587607801
5,1.02083339474202,-0.176388892338373,0.0152777788063885,0.0140499006956816,-0.0033597587607801,0.00794124789535999
5,1.02222228662528,-0.179166676104882,0.0125000003581147,0.0146607663482428,-0.00885754637420177,-0.00488692196086049
5,1.02222228662528,-0.179166676104882,0.0125000003581147,0.0164933614432812,-0.00733038317412138,0.0131336031481624
5,1.01666671909226,-0.17361112072783,0.00833333382532574,0.0210748501121998,-0.0201585534960032,-0.0027488935738802
5,1.01805561097552,-0.180555567988136,0.0138888899621255,0.0226020142436027,-0.0229074470698834,0.0122173046693206
5,1.01805561097552,-0.180555567988136,0.0138888899621255,0.0201585534960032,-0.0198531206697226,0.00641408516094089
5,1.01805561097552,-0.176388892338373,0.0166666676506515,0.0256563406437635,-0.019547687843442,0.0033597587607801
5,1.01527782720901,-0.177777784221628,0.0166666676506515,0.0204639863222837,-0.0198531206697226,-0.0045814891345799
5,1.01527782720901,-0.177777784221628,0.0166666676506515,0.0232128798961639,-0.0186313893646002,0.00366519158706069
5,1.01527782720901,-0.175000000455119,0.0125000003581147,0.0247400421649218,-0.0146607663482428,-0.00702495034784079
5,1.01805561097552,-0.17361112072783,0.0152777788063885,0.0167987942695618,-0.0106901414692402,-0.00733038317412138
5,1.01805561097552,-0.17361112072783,0.0152777788063885,0.0113010071218014,-0.00397062394768,-0.0027488935738802
5,1.01666671909226,-0.170833336961321,0.00694444498106275,0.0021380283869803,-0.00427605677396059,-0.00305432616733015
5,1.01666671909226,-0.176388892338373,0.0194444453391775,0.00671951752156019,0.0033597587607801,0.00183259579353034
5,1.01666671909226,-0.176388892338373,0.0194444453391775,0.00366519158706069,-0.000610865245107561,-0.00702495034784079
5,1.01944450285877,-0.180555567988136,0.0125000003581147,0.000916297896765172,0.00152716308366507,-0.0033597587607801
5,1.01666671909226,-0.17361112072783,0.0250000007162294,-0.00244346098043024,0.00519235478714108,-0.00152716308366507
5,1.01805561097552,-0.17361112072783,0.0208333341834404,0.0045814891345799,-0.00549778714776039,0.00366519158706069
5,1.02222228662528,-0.172222228844576,0.0125000003581147,0.0033597587607801,-0.0103847095742822,0.00122173049021512
5,1.01388893532575,-0.17361112072783,0.0125000003581147,-0.00152716308366507,-0.00519235478714108,-0.00366519158706069
5,1.02222228662528,-0.175000000455119,0.00972222266958873,-0.00244346098043024,0.00885754637420177,0.0027488935738802
5,1.02083339474202,-0.177777784221628,0.00972222266958873,-0.00794124789535999,0.00580321997404099,-0.000610865245107561
5,1.01944450285877,-0.18333333959868,0.00694444498106275,-0.0143553335219622,0.0152716310694814,-0.00885754637420177
5,1.02222228662528,-0.179166676104882,0.00277777787846293,-0.011606439948082,0.0177150927484035,-0.00671951752156019
5,1.01944450285877,-0.176388892338373,0.0111111115138517,-0.00488692196086049,0.0213802829384804,-0.0100792767480016
5,1.01527782720901,-0.177777784221628,0.00972222266958873,-0.0033597587607801,0.0103847095742822,-0.0033597587607801
5,1.01388893532575,-0.179166676104882,0.00694444498106275,0.00946841109544039,0.011606439948082,-0.00397062394768
5,1.01527782720901,-0.17361112072783,0.0194444453391775,0.00519235478714108,0.00580321997404099,-0.00733038317412138
5,1.01666671909226,-0.172222228844576,0.0152777788063885,-0.00519235478714108,0.00855211354792118,-0.0100792767480016
5,1.02500007039179,-0.176388892338373,0.0152777788063885,-0.000916297896765172,0.000916297896765172,-0.00855211354792118
5,1.01944450285877,-0.176388892338373,0.026388891079988,-0.00794124789535999,-0.00580321997404099,0.00152716308366507
5,1.01527782720901,-0.17361112072783,0.0125000003581147,0.00305432616733015,0.00519235478714108,-0.00122173049021512
5,1.02222228662528,-0.177777784221628,0.00138888893923146,0.00183259579353034,0.00366519158706069,-0.00702495034784079
5,1.02222228662528,-0.176388892338373,0.0125000003581147,0.00152716308366507,0.0122173046693206,-0.00702495034784079
5,1.02222228662528,-0.180555567988136,0.00277777787846293,0.000305432622553781,0.0204639863222837,-0.000305432622553781
5,1.01666671909226,-0.179166676104882,0.00972222266958873,0.0125227374956012,0.0164933614432812,0.000305432622553781
5,1.01944450285877,-0.175000000455119,0.0111111115138517,0.00733038317412138,0.019547687843442,-0.00519235478714108
5,1.01944450285877,-0.17361112072783,0.0125000003581147,0.0186313893646002,0.0033597587607801,-0.00305432616733015
5,1.01944450285877,-0.17361112072783,0.0222222230277034,0.0146607663482428,0.00488692196086049,-0.00610865233466029
5,1.02361117850853,-0.179166676104882,0.00416666691266287,0.0222965814173222,0.00702495034784079,0.00519235478714108
5,1.02500007039179,-0.177777784221628,0.0125000003581147,0.0125227374956012,0.00580321997404099,-0.0045814891345799
5,1.02083339474202,-0.172222228844576,0.0152777788063885,0.0146607663482428,0.00763581553474069,-0.0045814891345799
5,1.02083339474202,-0.175000000455119,0.0125000003581147,0.01588249579072,0.00824668072164059,-0.00641408516094089
5,1.01944450285877,-0.176388892338373,0.0194444453391775,0.0103847095742822,0.00702495034784079,0.000305432622553781
5,1.01527782720901,-0.177777784221628,0.0152777788063885,0.00733038317412138,0.00641408516094089,-0.00397062394768
5,1.01527782720901,-0.175000000455119,0.0111111115138517,0.00794124789535999,0.00397062394768,0.0027488935738802
5,1.01944450285877,-0.175000000455119,0.0166666676506515,0.0109955742955208,0.00519235478714108,-0.00977384392172098
5,1.01944450285877,-0.159722226207217,0.0125000003581147,0.00916297826915979,0.0125227374956012,-0.0021380283869803
5,1.02222228662528,-0.176388892338373,0.0138888899621255,0.00824668072164059,0.00794124789535999,-0.00702495034784079
5,1.01944450285877,-0.18333333959868,0.0222222230277034,0.00916297826915979,0.00946841109544039,0.00702495034784079
5,1.01944450285877,-0.180555567988136,0.0250000007162294,0.00763581553474069,-0.000916297896765172,0.000305432622553781
5,1.02083339474202,-0.168055565350778,0.00416666691266287,0.00733038317412138,0.00519235478714108,-0.00946841109544039
5,1.01805561097552,-0.17361112072783,0.00972222266958873,0.0045814891345799,0.00946841109544039,-0.00397062394768
5,1.02083339474202,-0.176388892338373,0.0152777788063885,0.000916297896765172,0.0106901414692402,-0.00152716308366507
5,1.01944450285877,-0.180555567988136,0.0152777788063885,0.000916297896765172,0.00641408516094089,-0.00366519158706069
5,1.01944450285877,-0.175000000455119,0.0152777788063885,-0.00397062394768,0.00763581553474069,-0.00671951752156019
5,1.01944450285877,-0.179166676104882,0.0222222230277034,-0.00122173049021512,-0.0027488935738802,-0.00946841109544039
5,1.01944450285877,-0.180555567988136,0.0222222230277034,-0.00305432616733015,0.00794124789535999,0.00305432616733015
5,1.01527782720901,-0.176388892338373,0.0180555564949145,-0.0103847095742822,0.00916297826915979,-0.00733038317412138
5,1.01944450285877,-0.175000000455119,0.0152777788063885,-0.00855211354792118,0.0131336031481624,-0.00580321997404099
5,1.01666671909226,-0.180555567988136,0.0152777788063885,0.00549778714776039,0.0109955742955208,-0.0027488935738802
5,1.01666671909226,-0.179166676104882,0.0194444453391775,-0.00122173049021512,0.00397062394768,-0.00488692196086049
5,1.01944450285877,-0.179166676104882,0.0125000003581147,0.00580321997404099,0.00519235478714108,-0.00610865233466029
5,1.01944450285877,-0.176388892338373,0.0138888899621255,0.0045814891345799,0.00977384392172098,-0.00610865233466029
5,1.0125000434425,-0.166666673467524,0.00972222266958873,0.0128281703218818,0.00488692196086049,-0.00305432616733015
5,1.01666671909226,-0.17361112072783,0.0180555564949145,0.00305432616733015,0.0027488935738802,-0.00702495034784079
5,1.02083339474202,-0.170833336961321,0.0152777788063885,0.00610865233466029,0.00549778714776039,-0.00366519158706069
5,1.01666671909226,-0.161111118090472,0.0166666676506515,0.00794124789535999,0.0027488935738802,-0.00519235478714108
5,1.01944450285877,-0.17361112072783,0.0125000003581147,0.00366519158706069,0.00427605677396059,-0.00977384392172098
5,1.01944450285877,-0.176388892338373,0.00694444498106275,0.00946841109544039,0.00488692196086049,-0.000305432622553781
5,1.02222228662528,-0.179166676104882,0.00833333382532574,0.00397062394768,0.00366519158706069,-0.00122173049021512
5,1.01944450285877,-0.177777784221628,0.0194444453391775,0.00671951752156019,0.00610865233466029,-0.00122173049021512
5,1.01527782720901,-0.180555567988136,0.0208333341834404,-0.000610865245107561,0.00366519158706069,-0.0100792767480016
5,1.01527782720901,-0.177777784221628,0.0166666676506515,0.0103847095742822,0.0021380283869803,-0.000305432622553781
5,1.02083339474202,-0.175000000455119,0.0166666676506515,0.0033597587607801,0.00305432616733015,0.000916297896765172
5,1.01666671909226,-0.177777784221628,0.0125000003581147,0.00946841109544039,0.00244346098043024,-0.00549778714776039
5,1.01666671909226,-0.175000000455119,0.0152777788063885,0.00977384392172098,0.00733038317412138,-0.00366519158706069
5,1.0125000434425,-0.170833336961321,0.0194444453391775,0.00305432616733015,-0.0027488935738802,-0.00549778714776039
5,1.01805561097552,-0.172222228844576,0.0152777788063885,0.00488692196086049,0.00610865233466029,-0.00305432616733015
5,1.02083339474202,-0.175000000455119,0.0152777788063885,-0.00152716308366507,0.000916297896765172,-0.00244346098043024
5,1.02222228662528,-0.176388892338373,0.0166666676506515,0.0021380283869803,0.0103847095742822,-0.00488692196086049
5,1.01944450285877,-0.175000000455119,0.0166666676506515,0.00641408516094089,0.0149661982432008,-0.00549778714776039
5,1.01527782720901,-0.175000000455119,0.0194444453391775,0.00610865233466029,0.00641408516094089,-0.0128281703218818
5,1.01944450285877,-0.17361112072783,0.0222222230277034,0.0103847095742822,0.00580321997404099,0.00427605677396059
5,1.01527782720901,-0.172222228844576,0.00972222266958873,0.0140499006956816,-0.0027488935738802,0.00488692196086049
5,1.01805561097552,-0.17361112072783,0.00972222266958873,0.0305432621389627,-0.0149661982432008,-0.000305432622553781
5,1.01666671909226,-0.176388892338373,0.0111111115138517,0.0271835029125214,-0.0180205255746841,0.0045814891345799
5,1.02222228662528,-0.180555567988136,0.00972222266958873,0.0305432621389627,-0.0143553335219622,0.00305432616733015
5,1.01944450285877,-0.17361112072783,0.00694444498106275,0.0232128798961639,-0.00733038317412138,0.00488692196086049
5,1.01527782720901,-0.17361112072783,0.0152777788063885,0.0186313893646002,-0.0109955742955208,-0.00427605677396059
5,1.02083339474202,-0.169444445078067,0.0138888899621255,0.0128281703218818,-0.00580321997404099,0.000916297896765172
5,1.02083339474202,-0.170833336961321,0.0166666676506515,0.0149661982432008,-0.0103847095742822,0.00244346098043024
5,1.01944450285877,-0.172222228844576,0.0125000003581147,0.0033597587607801,-0.00671951752156019,0.00519235478714108
5,1.01944450285877,-0.176388892338373,0.0166666676506515,0.00916297826915979,-0.00580321997404099,-0.00183259579353034
5,1.01527782720901,-0.175000000455119,0.0180555564949145,0.00916297826915979,-0.00244346098043024,0.00580321997404099
5,1.01527782720901,-0.180555567988136,0.0152777788063885,0.00885754637420177,-0.0109955742955208,-0.0027488935738802
5,1.01944450285877,-0.180555567988136,0.0125000003581147,0.0100792767480016,-0.01191187184304,-0.00427605677396059
5,1.02222228662528,-0.176388892338373,0.0125000003581147,0.0113010071218014,-0.00763581553474069,-0.00366519158706069
5,1.01944450285877,-0.176388892338373,0.00972222266958873,0.0113010071218014,-0.00855211354792118,0.00122173049021512
5,1.02222228662528,-0.180555567988136,0.00555555575692586,0.00885754637420177,-0.0109955742955208,-0.000610865245107561
5,1.02083339474202,-0.176388892338373,0.0111111115138517,0.0186313893646002,-0.01191187184304,-0.00427605677396059
5,1.02222228662528,-0.180555567988136,0.0125000003581147,0.0149661982432008,-0.0125227374956012,-0.00763581553474069
5,1.01944450285877,-0.17361112072783,0.0208333341834404,0.0122173046693206,-0.0167987942695618,0.000305432622553781
5,1.01944450285877,-0.17361112072783,0.0236111118719664,0.0207694191485643,-0.011606439948082,0.00366519158706069
5,1.01805561097552,-0.176388892338373,0.00555555575692586,0.0189368221908808,-0.0027488935738802,0.00580321997404099
5,1.01944450285877,-0.181944447715425,0.00972222266958873,0.0143553335219622,-0.00824668072164059,0.00305432616733015
5,1.02083339474202,-0.176388892338373,0.00972222266958873,0.0113010071218014,-0.00946841109544039,0.00122173049021512
5,1.01944450285877,-0.17361112072783,0.0152777788063885,0.01191187184304,-0.00244346098043024,0.00244346098043024
5,1.02222228662528,-0.17361112072783,0.00972222266958873,0.01191187184304,0.00397062394768,-0.00794124789535999
5,1.01944450285877,-0.170833336961321,0.00277777787846293,0.00580321997404099,-0.00977384392172098,-0.00733038317412138
5,1.02083339474202,-0.177777784221628,0.00972222266958873,0.00549778714776039,-0.00305432616733015,-0.00244346098043024
5,1.02083339474202,-0.177777784221628,0.00972222266958873,0.00916297826915979,-0.00549778714776039,-0.00305432616733015
5,1.01805561097552,-0.177777784221628,0.00694444498106275,0.00519235478714108,-0.0027488935738802,-0.00427605677396059
5,1.01388893532575,-0.176388892338373,0.00416666691266287,0.00916297826915979,-0.00855211354792118,-0.00733038317412138
5,1.01388893532575,-0.176388892338373,0.00416666691266287,0.0113010071218014,-0.0100792767480016,-0.00366519158706069
5,1.01805561097552,-0.172222228844576,0.0125000003581147,-0.0021380283869803,-0.00763581553474069,-0.00885754637420177
5,1.02500007039179,-0.18333333959868,0.00277777787846293,0.00977384392172098,-0.00427605677396059,0.00122173049021512
5,1.02500007039179,-0.18333333959868,0.00277777787846293,0.00519235478714108,0.0027488935738802,-0.00733038317412138
5,1.02500007039179,-0.180555567988136,-0.00138888893923146,0.00733038317412138,0.00580321997404099,-0.0021380283869803
5,1.01527782720901,-0.175000000455119,0.00416666691266287,0.011606439948082,0.01191187184304,0.0021380283869803
5,1.01527782720901,-0.175000000455119,0.00416666691266287,0.0222965814173222,-0.0045814891345799,0.0113010071218014
5,1.01666671909226,-0.17361112072783,-0.00416666691266287,0.01588249579072,-0.0033597587607801,0.00152716308366507
5,1.01527782720901,-0.172222228844576,0.00694444498106275,0.0125227374956012,-0.00122173049021512,0.000916297896765172
5,1.01527782720901,-0.172222228844576,0.00694444498106275,0.01191187184304,-0.00305432616733015,0.00183259579353034
5,1.01388893532575,-0.180555567988136,0.00972222266958873,0.013744467869401,-0.01588249579072,-0.00152716308366507
5,1.01388893532575,-0.181944447715425,0.00972222266958873,0.0207694191485643,-0.00366519158706069,0.00122173049021512
5,1.01805561097552,-0.180555567988136,0.00277777787846293,0.00946841109544039,-0.00183259579353034,0.0100792767480016
5,1.02222228662528,-0.179166676104882,0.00972222266958873,0.00519235478714108,0.0198531206697226,0.00183259579353034
5,1.02083339474202,-0.180555567988136,0.0250000007162294,-0.0021380283869803,0.0265726372599602,-0.000305432622553781
5,1.01805561097552,-0.180555567988136,0.0152777788063885,0.0021380283869803,0.00610865233466029,-0.00244346098043024
5,1.01805561097552,-0.17361112072783,0.0125000003581147,0.00427605677396059,0.00122173049021512,-0.000305432622553781
5,1.0125000434425,-0.170833336961321,0.0152777788063885,-0.00580321997404099,0.00427605677396059,-0.000610865245107561
5,1.01388893532575,-0.17361112072783,0.00972222266958873,-0.00122173049021512,-0.00610865233466029,0.00366519158706069
5,1.02083339474202,-0.176388892338373,0.00833333382532574,0.00244346098043024,0.0106901414692402,0.000305432622553781
5,1.01944450285877,-0.179166676104882,0.00555555575692586,-0.00916297826915979,0.0149661982432008,-0.00580321997404099
5,1.01805561097552,-0.176388892338373,0.00972222266958873,-0.00671951752156019,0.0134390350431204,-0.00733038317412138
5,1.01527782720901,-0.179166676104882,-0.00277777787846293,0.00397062394768,0.00763581553474069,-0.00427605677396059
5,1.01388893532575,-0.181944447715425,0.00138888893923146,0.00488692196086049,0.0100792767480016,-0.01191187184304
5,1.01527782720901,-0.18333333959868,0.00555555575692586,-0.000916297896765172,0.0146607663482428,-0.00794124789535999
5,1.01666671909226,-0.187500003092477,0.0125000003581147,0.000610865245107561,0.00641408516094089,-0.00549778714776039
5,1.01527782720901,-0.179166676104882,0.00694444498106275,0.00702495034784079,0.00610865233466029,-0.00366519158706069
5,1.01527782720901,-0.180555567988136,0.00555555575692586,0.00549778714776039,-0.00183259579353034,-0.00305432616733015
5,1.01666671909226,-0.180555567988136,0.0125000003581147,0.00794124789535999,0.00183259579353034,-0.00916297826915979
5,1.01666671909226,-0.176388892338373,0.0138888899621255,-0.000916297896765172,0.0045814891345799,0.000916297896765172
5,1.02222228662528,-0.175000000455119,0.00833333382532574,-0.00977384392172098,-0.00702495034784079,-0.00824668072164059
5,1.02222228662528,-0.177777784221628,0.00833333382532574,-0.00641408516094089,-0.0109955742955208,0.00427605677396059
5,1.01944450285877,-0.180555567988136,0.0125000003581147,-0.0033597587607801,0.000610865245107561,-0.0027488935738802
5,1.01944450285877,-0.18333333959868,0.00277777787846293,0.00397062394768,0.00641408516094089,-0.00427605677396059
5,1.01527782720901,-0.180555567988136,0.0111111115138517,0.00977384392172098,-0.00152716308366507,-0.0106901414692402
5,1.0125000434425,-0.175000000455119,0.0208333341834404,0.027488935738802,-0.0342084541916847,0.000916297896765172
5,1.01111115155925,-0.17361112072783,0.0152777788063885,0.0415388382971287,-0.0565050356090069,0.00641408516094089
5,1.01666671909226,-0.177777784221628,0.0125000003581147,0.0387899428606033,-0.0427605658769607,0.00610865233466029
5,1.02222228662528,-0.181944447715425,0.00277777787846293,0.0229074470698834,-0.01191187184304,0.0021380283869803
5,1.01944450285877,-0.186111123365188,-0.00694444498106275,0.0210748501121998,-0.00397062394768,-0.00641408516094089
5,1.01527782720901,-0.18333333959868,0.00138888893923146,0.0140499006956816,0.0027488935738802,-0.00366519158706069
5,1.0125000434425,-0.180555567988136,0.00277777787846293,0.0149661982432008,-0.000610865245107561,-0.00122173049021512
5,1.01944450285877,-0.180555567988136,0.0180555564949145,0.0113010071218014,0.000610865245107561,0.0033597587607801
5,1.02222228662528,-0.176388892338373,0.0111111115138517,0.00671951752156019,0.00855211354792118,0.00916297826915979
5,1.02500007039179,-0.181944447715425,0.00972222266958873,-0.0027488935738802,0.0103847095742822,-0.00855211354792118
5,1.02222228662528,-0.18333333959868,0.00972222266958873,0.00244346098043024,0.0235183127224445,-0.0149661982432008
5,1.01944450285877,-0.180555567988136,0.00833333382532574,0.00152716308366507,0.027488935738802,-0.00733038317412138
5,1.01666671909226,-0.180555567988136,0.00555555575692586,0.00977384392172098,0.0213802829384804,-0.00855211354792118
5,1.01527782720901,-0.180555567988136,0.0222222230277034,0.0033597587607801,0.0177150927484035,-0.0192422550171614
5,1.01388893532575,-0.175000000455119,0.0152777788063885,0.0027488935738802,0.0167987942695618,-0.00794124789535999
5,1.0125000434425,-0.172222228844576,0.0152777788063885,-0.000305432622553781,0.0143553335219622,-0.00366519158706069
5,1.01666671909226,-0.176388892338373,0.00833333382532574,-0.00397062394768,0.0183259565383196,-0.00641408516094089
5,1.02222228662528,-0.180555567988136,0.00833333382532574,-0.0021380283869803,0.00885754637420177,-0.00916297826915979
5,1.02500007039179,-0.17361112072783,0.00833333382532574,-0.00305432616733015,0.0131336031481624,-0.00824668072164059
5,1.02083339474202,-0.176388892338373,0.00694444498106275,-0.0027488935738802,0.00671951752156019,-0.00641408516094089
5,1.01666671909226,-0.177777784221628,0.00555555575692586,-0.0100792767480016,0.00702495034784079,-0.00549778714776039
5,1.01944450285877,-0.175000000455119,0.00972222266958873,-0.00824668072164059,0.00519235478714108,-0.00519235478714108
