Activity,acc_x,acc_y,acc_z,gyro_x,gyro_y,gyro_z
0,0.373611114301701,0.0472222237439329,0.927777833059431,0.0345138870179653,-0.0284052342176437,-0.0229074470698834
0,0.377777789951463,0.0458333348996699,0.926388941176177,0.0546724386513233,-0.00946841109544039,-0.0387899428606033
0,0.381944465601225,0.0375000018340919,0.930555616825939,0.0616973899304867,-0.0213802829384804,-0.0329867228865623
0,0.376388898068209,0.0416666683668809,0.918055589876652,0.0662788823246956,-0.0620028227567673,-0.013744467869401
0,0.377777789951463,0.0444444460554069,0.926388941176177,0.0684169083833694,-0.0574213340878487,-0.0171042270958424
0,0.377777789951463,0.0375000018340919,0.926388941176177,0.0348193198442459,-0.0387899428606033,-0.00977384392172098
0,0.369444462963867,0.0388888906783549,0.927777833059431,0.0369573459029198,-0.0372627787292004,-0.00916297826915979
0,0.368055571080613,0.0388888906783549,0.931944508709193,0.0445931628346443,-0.0232128798961639,-0.00519235478714108
0,0.380555573717971,0.0486111125881959,0.94305554652751,-0.0164933614432812,-0.0033597587607801,0.0229074470698834
0,0.363888895430851,0.033333335301303,0.918055589876652,-0.0384845100343227,-0.00488692196086049,0.0427605658769607
0,0.363888895430851,0.033333335301303,0.918055589876652,-0.0455094613134861,-0.017409659922123,0.04764748737216
0,0.362500003547597,0.03194444645704,0.913888914226889,-0.0406225398182869,-0.0305432621389627,0.0665843114256859
0,0.377777789951463,0.0250000007162294,0.931944508709193,-0.0164933614432812,0.0161879286170006,0.0406225398182869
0,0.375000006184955,0.029166668768514,0.931944508709193,0.0125227374956012,0.0616973899304867,0.0280998013913631
0,0.359722244093018,0.033333335301303,0.923611157409668,0.0558941699564457,-0.000916297896765172,0.027488935738802
0,0.363888895430851,0.03194444645704,0.912500022343635,0.070249505341053,-0.0827722400426865,0.0287106670439243
0,0.368055571080613,0.029166668768514,0.916666697993398,0.0705549344420433,-0.125532805919647,0.00641408516094089
0,0.387500008822313,0.033333335301303,0.922222265526414,0.0668897479772568,-0.0769690200686455,-0.00641408516094089
0,0.387500008822313,0.033333335301303,0.922222265526414,0.0448985956609249,-0.0516181141138077,-0.0109955742955208
0,0.368055571080613,0.0361111129898289,0.947222222177272,0.0418442711234093,-0.0940732508897781,0.0021380283869803
0,0.370833354847121,0.0361111129898289,0.940277860008718,0.0513126812875271,-0.0635299831628799,-0.00824668072164059
0,0.377777789951463,0.0388888906783549,0.931944508709193,0.0592539273202419,-0.0106901414692402,-0.000916297896765172
0,0.384722225055805,0.0416666683668809,0.933333400592447,0.0470366254448891,-0.0259617734700441,-0.000305432622553781
0,0.381944465601225,0.0416666683668809,0.923611157409668,0.0436768643558025,-0.0210748501121998,-0.0103847095742822
0,0.377777789951463,0.0486111125881959,0.901388887277602,0.0262672062963247,-0.0549778714776039,-0.0305432621389627
0,0.380555573717971,0.0416666683668809,0.913888914226889,0.0271835029125214,-0.0198531206697226,-0.0409279726445675
0,0.381944465601225,0.0458333348996699,0.92083337364316,0.0455094613134861,0.0552833043038845,-0.0537561401724815
0,0.381944465601225,0.0458333348996699,0.92083337364316,0.0473420582711697,0.0534507073462009,-0.0647517144680023
0,0.384722225055805,0.0375000018340919,0.931944508709193,0.0531452745199203,0.0513126812875271,-0.0510072484612465
0,0.384722225055805,0.0375000018340919,0.931944508709193,0.0662788823246956,0.00977384392172098,-0.0378736443817616
0,0.376388898068209,0.0458333348996699,0.93750007624221,0.0433714315295219,0.0241291765123606,-0.0351247526705265
0,0.376388898068209,0.0430555572111439,0.941666654644256,-0.0873537287116051,0.0320704244077206,-0.0152716310694814
0,0.380555573717971,0.0486111125881959,0.958333357243305,-0.244651526212692,0.103847093880177,0.00549778714776039
0,0.384722225055805,0.0611111152255539,0.959722249126559,-0.329256355762482,0.170431405305862,0.00183259579353034
0,0.387500008822313,0.0486111125881959,0.986111194908388,-0.310930401086807,0.118202425539494,0.0244346093386412
0,0.387500008822313,0.0347222241455659,0.979166735492117,-0.264504641294479,0.0687223374843597,0.0259617734700441
0,0.381944465601225,0.0222222230277034,0.95000000594378,-0.16890424489975,-0.0189368221908808,0.0354301854968071
0,0.379166681834717,0.0138888899621255,0.92083337364316,-0.11636982858181,-0.13744467496872,0.02382374368608
0,0.372222246730376,0.00972222266958873,0.899999995394348,-0.127365410327911,-0.130725160241127,0.0433714315295219
0,0.363888895430851,0.0194444453391775,0.906944454810619,-0.121867619454861,-0.0934623852372169,0.0180205255746841
0,0.369444462963867,0.0180555564949145,0.929166724942685,-0.0546724386513233,-0.0479529201984406,0.0314595587551594
0,0.370833354847121,0.0194444453391775,0.930555616825939,0.00671951752156019,-0.0339030213654041,0.00916297826915979
0,0.365277787314105,0.00972222266958873,0.913888914226889,0.0342084541916847,-0.101403631269932,0.00702495034784079
0,0.370833354847121,0.0125000003581147,0.911111130460381,0.0754418596625328,-0.114842668175697,0.0045814891345799
0,0.370833354847121,0.00833333382532574,0.909722238577127,0.11117747426033,-0.106595985591412,-0.00733038317412138
0,0.368055571080613,0.00555555575692586,0.911111130460381,0.115453533828259,-0.0733038261532784,-0.0109955742955208
0,0.373611114301701,0.0138888899621255,0.92083337364316,0.103236228227615,-0.0397062413394451,-0.017409659922123
0,0.375000006184955,0.0166666676506515,0.925000049292922,0.0794124826788902,-0.0109955742955208,-0.00702495034784079
0,0.377777789951463,0.0208333341834404,0.926388941176177,0.0714712366461754,-0.00366519158706069,-0.00763581553474069
0,0.381944465601225,0.0194444453391775,0.923611157409668,0.0647517144680023,-0.01588249579072,-0.00183259579353034
0,0.387500008822313,0.0222222230277034,0.911111130460381,0.0638354197144508,-0.00366519158706069,0.00763581553474069
0,0.387500008822313,0.0125000003581147,0.904166671044111,0.0791070461273193,-0.00366519158706069,0.000916297896765172
0,0.391666684472075,0.0180555564949145,0.909722238577127,0.078801617026329,-0.0250454749912024,0.0045814891345799
0,0.387500008822313,0.0194444453391775,0.913888914226889,0.0665843114256859,-0.0284052342176437,0.011606439948082
0,0.380555573717971,0.027777779924251,0.92083337364316,0.0616973899304867,-0.0335975885391235,0.0140499006956816
0,0.401388903342925,0.027777779924251,0.941666654644256,0.0641408488154411,0.00702495034784079,-0.00855211354792118
0,0.404166687109433,0.0250000007162294,0.938888968125464,0.0601702257990837,0.0100792767480016,-0.0222965814173222
0,0.395833335809908,0.029166668768514,0.938888968125464,0.0320704244077206,-0.0183259565383196,-0.00152716308366507
0,0.394444468238583,0.0222222230277034,0.933333400592447,0.00305432616733015,-0.0268780700862408,-0.00885754637420177
0,0.398611119576417,0.026388891079988,0.934722292475701,-0.00244346098043024,-0.0259617734700441,-0.0161879286170006
0,0.390277792588821,0.0250000007162294,0.925000049292922,0.0134390350431204,-0.0308486949652433,-0.00366519158706069
0,0.394444468238583,0.0125000003581147,0.92083337364316,0.0305432621389627,-0.0339030213654041,-0.00671951752156019
0,0.397222227693163,0.026388891079988,0.913888914226889,0.0513126812875271,0.0491746515035629,-0.03176499158144
0,0.393055576355329,0.026388891079988,0.911111130460381,0.0604756586253643,0.0861319974064827,-0.0357356183230877
0,0.394444468238583,0.0250000007162294,0.923611157409668,0.0708603709936142,0.0372627787292004,-0.0305432621389627
0,0.387500008822313,0.029166668768514,0.927777833059431,0.0791070461273193,-0.03176499158144,-0.0161879286170006
0,0.373611114301701,0.0361111129898289,0.911111130460381,0.070249505341053,-0.0742201283574104,0.0354301854968071
0,0.354166676560001,0.0430555572111439,0.912500022343635,0.0943786799907684,-0.0995710343122482,0.0552833043038845
0,0.380555573717971,0.03194444645704,0.922222265526414,0.150883719325066,-0.0867428630590439,0.0418442711234093
0,0.390277792588821,0.0347222241455659,0.911111130460381,0.138360977172852,-0.0503963828086853,0.0342084541916847
0,0.398611119576417,0.0347222241455659,0.923611157409668,0.149661988019943,-0.0891863256692886,0.0140499006956816
0,0.406944470875941,0.0361111129898289,0.915277806110144,0.116980694234371,-0.156381502747536,0.0366519130766392
0,0.383333357484479,0.0472222237439329,0.908333346693873,0.0797179117798805,-0.115453533828259,0.029626963660121
0,0.387500008822313,0.0513888902767219,0.906944454810619,0.104152522981167,-0.0803287774324417,0.0546724386513233
0,0.391666684472075,0.0513888902767219,0.926388941176177,0.0934623852372169,-0.143553331494331,0.0931569486856461
0,0.400000011459671,0.0569444456537738,0.934722292475701,0.0699440687894821,-0.161573857069016,0.110261179506779
0,0.415277797863537,0.0625000010308258,0.923611157409668,-0.000305432622553781,-0.212581098079681,0.0907134860754013
0,0.436111127488491,0.0625000010308258,0.908333346693873,-0.0778853222727776,-0.17440202832222,0.0577267669141293
0,0.44583337067127,0.0458333348996699,0.904166671044111,-0.0687223374843597,-0.106595985591412,0.00488692196086049
0,0.437500019371745,0.0430555572111439,0.904166671044111,-0.0433714315295219,-0.132557764649391,0.01588249579072
0,0.411111122213775,0.0500000014324589,0.93750007624221,-0.0189368221908808,-0.414777487516403,0.0833831056952477
0,0.452777781463682,0.0402777795226179,0.92083337364316,0.00671951752156019,-0.481056392192841,0.096211276948452
0,0.477777786738398,0.033333335301303,0.902777779160856,0.0812450796365738,-0.432187169790268,0.0794124826788902
0,0.511111143312639,0.029166668768514,0.899999995394348,0.0256563406437635,-0.197614908218384,-0.0192422550171614
0,0.462500024646461,0.0430555572111439,0.904166671044111,0.00794124789535999,0.0546724386513233,-0.000610865245107561
0,0.452777781463682,0.0486111125881959,0.880555606276507,-0.096211276948452,0.070249505341053,-0.0363464802503586
0,0.456944457113445,0.0430555572111439,0.890277849459286,-0.208915919065475,0.0357356183230877,-0.015577063895762
0,0.459722240879953,0.03194444645704,0.880555606276507,-0.235793977975845,0.202196389436722,-0.0482583530247212
0,0.434722235605237,0.0375000018340919,0.863888903677457,-0.224492982029915,0.485637873411179,-0.0687223374843597
0,0.434722235605237,0.0375000018340919,0.863888903677457,-0.182954147458077,0.497549742460251,-0.102625362575054
0,0.4194444735133,0.033333335301303,0.894444525109048,-0.04764748737216,0.319787949323654,-0.105374254286289
0,0.422222257279808,0.00972222266958873,0.931944508709193,0.0180205255746841,0.310930401086807,-0.0488692186772823
0,0.406944470875941,0.0125000003581147,0.947222222177272,0.0473420582711697,0.136833816766739,0.00916297826915979
0,0.397222227693163,0.0208333341834404,0.931944508709193,0.0213802829384804,0.231823354959488,0.0305432621389627
0,0.390277792588821,0.0222222230277034,0.894444525109048,0.00122173049021512,0.336586743593216,0.0589484944939613
0,0.383333357484479,0.0208333341834404,0.890277849459286,0.0473420582711697,0.292299032211304,0.131641462445259
0,0.33750002258481,0.00555555575692586,0.898611103511094,-0.129808858036995,-0.563217759132385,0.537866830825806
0,0.231944458264858,0.0208333341834404,0.791666671619817,-0.420886158943176,-0.462730437517166,0.463341295719147
0,0.438888911254999,0.0250000007162294,0.811111157985375,-0.530231058597565,-0.0662788823246956,0.193033412098885
0,0.384722225055805,0.03194444645704,0.968055600426084,-0.342389971017838,-0.125838235020638,0.337503045797348
0,0.400000011459671,0.03194444645704,0.976388951725609,-0.114842668175697,0.418748140335083,0.141415297985077
0,0.384722225055805,0.00972222266958873,0.968055600426084,-0.0403171069920063,0.442266434431076,0.203112691640854
0,0.427777776188966,0.0111111115138517,0.976388951725609,0.0650571510195732,0.675922393798828,0.0464257597923279
0,0.397222227693163,-0.00416666691266287,0.852777768611424,0.125532805919647,-0.372322380542755,0.266948103904724
0,0.250000004123303,-0.00555555575692586,0.919444481759906,-0.115758962929249,-0.580932855606079,0.772133648395538
0,0.293055555256465,0.0375000018340919,0.818055568777787,-0.369268029928207,-0.250149309635162,0.740674138069153
0,0.387500008822313,0.0250000007162294,0.895833319744586,-0.372322380542755,0.190895393490791,0.608421802520752
0,0.430555559955475,0.00277777787846293,0.877777822509998,-0.560774266719818,0.368351757526398,0.528398454189301
0,0.444444478788016,-0.0402777795226179,0.912500022343635,-0.383623361587524,0.219911485910416,0.509461641311646
0,0.404166687109433,-0.0833333367337618,0.973611167959101,0.00794124789535999,-0.0308486949652433,0.581543684005737
0,0.415277797863537,-0.0722222259796579,0.945833330294018,0.0400116741657257,0.282830595970154,0.494189977645874
0,0.386111116939059,-0.0638888929140799,0.911111130460381,-0.0864374339580536,0.514959394931793,0.419053554534912
0,0.343055565805897,-0.055555559848502,0.905555562927365,-0.165544480085373,0.580016553401947,0.463952153921127
0,0.305555557893823,-0.0805555590452358,0.941666654644256,-0.01588249579072,0.555887401103973,0.557414531707764
0,0.320833344297689,-0.0986111170596459,0.96666670854283,0.398589581251144,0.764497876167297,0.545197248458862
0,0.326388911830706,-0.0500000014324589,0.973611167959101,0.329256355762482,1.81885123252869,0.574518740177155
0,0.395833335809908,-0.0513888902767219,0.93750007624221,0.413861215114594,1.94071888923645,-0.12705996632576
0,0.452777781463682,-0.0666666706026059,0.89722221162784,-0.0122173046693206,1.49661982059479,-0.0323758572340012
0,0.33750002258481,-0.0680555564078778,0.82222224442755,-0.245262399315834,0.229685336351395,0.307265222072601
0,0.272222225631511,0.0250000007162294,0.841666730793107,-0.865901470184326,0.811534464359283,0.523511528968811
0,0.287500012035377,-0.0166666676506515,0.93750007624221,-1.52930116653442,1.42667579650879,0.531452775001526
0,0.279166685047782,-0.104166672436698,1.01944450285877,-1.63589715957642,1.70095431804657,0.949895441532135
0,0.268055574293678,-0.170833336961321,0.976388951725609,-1.49875783920288,1.48379170894623,1.54365646839142
0,0.262500006760661,-0.206944452990142,0.93750007624221,-1.38116633892059,1.30694615840912,1.66491317749023
0,0.198611113846581,-0.224999998848587,0.904166671044111,-1.07909345626831,0.991434276103973,1.86405527591705
0,0.0791666671619817,-0.258333331110899,0.922222265526414,-0.600785970687866,0.736398041248322,2.30143475532532
0,-0.0416666683668809,-0.311111125426839,1.00555558402623,-0.123394779860973,0.658818185329437,2.55860900878906
0,-0.00972222266958873,-0.354166676560001,0.973611167959101,0.0186313893646002,0.267558991909027,2.03937363624573
0,-0.00972222266958873,-0.368055571080613,0.979166735492117,0.01191187184304,0.0922406539320946,1.24799764156342
0,-0.0375000018340919,-0.370833354847121,0.979166735492117,-0.135306656360626,-0.114842668175697,0.999680995941162
0,-0.0513888902767219,-0.394444468238583,1.00000001649321,-0.280692577362061,-0.644157409667969,1.08825647830963
0,-0.0638888929140799,-0.400000011459671,1.02916674604155,-0.507629036903381,-0.917519569396973,1.57389426231384
0,-0.0777777813567098,-0.394444468238583,1.09166668629255,-0.833220183849335,-0.229074463248253,1.97401106357575
0,-0.029166668768514,-0.387500008822313,1.08055555122652,-1.32374501228332,0.328034639358521,1.89918005466461
0,-0.026388891079988,-0.400000011459671,1.02222228662528,-1.82984685897827,0.0033597587607801,1.61940371990204
0,-0.0694444482911319,-0.393055576355329,0.969444492309338,-2.08427214622498,-1.28251159191132,1.41048789024353
0,-0.0888888921108138,-0.341666673922643,0.904166671044111,-2.10840129852295,-1.73943877220154,1.39704883098602
0,-0.0569444456537738,-0.312500017310094,0.866666687443965,-1.99080979824066,-1.83687174320221,1.49936878681183
0,0.00833333382532574,-0.354166676560001,0.798611131036088,-1.97737073898315,-2.13955545425415,1.624596118927
0,0.0736111117849297,-0.523611121638068,0.841666730793107,-1.32252323627472,-1.19485247135162,1.5112806558609
0,0.0902777839940679,-0.636111121062362,0.85138887672817,-0.41813725233078,-0.242818936705589,1.12154853343964
0,0.029166668768514,-0.558333370095563,0.869444471210474,0.252898216247559,-0.363464832305908,0.688750565052032
0,-0.00694444498106275,-0.49166670557094,0.863888903677457,0.769079327583313,0.0565050356090069,0.580932855606079
0,-0.00972222266958873,-0.487500029921177,0.804166698569104,0.746782779693604,0.201585531234741,0.732732832431793
0,-0.029166668768514,-0.476388894855144,0.779166693294388,0.398284137248993,-0.587957799434662,0.917519569396973
0,0.027777779924251,-0.483333354271415,0.813888941751883,0.192422553896904,-1.42514860630035,0.861014544963837
0,0.0416666683668809,-0.531944472937593,0.894444525109048,0.176540061831474,-1.85244882106781,0.40775254368782
0,0.029166668768514,-0.498611116363352,0.93750007624221,0.0626136884093285,-0.937983572483063,0.368657171726227
0,0.052777782159976,-0.545833343146276,0.877777822509998,-0.378125578165054,0.0653625801205635,0.427300244569778
0,0.0805555590452358,-0.568055564654484,0.765277823085705,-1.19027090072632,0.269391566514969,0.485637873411179
0,0.0666666706026059,-0.559722261978817,0.729166682744956,-2.36404848098755,-0.977689802646637,0.264504641294479
0,0.0666666706026059,-0.559722261978817,0.729166682744956,-3.03569483757019,-2.35855078697205,0.0653625801205635
0,0.0458333348996699,-0.654166666920807,0.744444493460751,-3.04882836341858,-1.99508583545685,-0.00244346098043024
0,0.125000002061652,-0.733333358394718,0.729166682744956,-2.74186873435974,-0.243735238909721,-0.400422155857086
0,0.125000002061652,-0.733333358394718,0.729166682744956,-2.53997778892517,-0.598647952079773,-0.653625786304474
0,0.233333350148112,-0.861111119910949,0.502777792013115,-2.54119944572449,-2.22752022743225,-0.88850349187851
0,0.247222220356795,-0.848611190209378,0.479166678621653,-2.86526346206665,-3.42176175117493,-1.28923106193543
0,0.247222220356795,-0.848611190209378,0.479166678621653,-3.11846709251404,-3.031418800354,-1.5256359577179
0,0.322222236180943,-0.969444492309338,0.423611149163062,-3.50789356231689,-2.20919418334961,-1.79991447925568
0,0.388888900705567,-1.01944450285877,0.315277801076602,-3.74643659591675,-1.94774389266968,-1.94132971763611
0,0.483333354271415,-1.10138892947533,0.17361112072783,-4.06775188446045,-1.77150917053223,-1.95751762390137
0,0.490277813687686,-1.08472222687628,0.150000007336368,-4.16915512084961,-1.26693451404572,-1.72447264194489
0,0.415277797863537,-1.05694448645892,0.14722222356986,-3.68107390403748,-0.171958565711975,-1.25471723079681
0,0.397222227693163,-1.07777786470773,0.0819444448505077,-2.77302289009094,0.437379509210587,-0.861320018768311
0,0.397222227693163,-1.07777786470773,0.0819444448505077,-2.39550805091858,-0.178067222237587,-0.994794070720673
0,0.498611116363352,-0.940277860008718,-0.14722222356986,-2.07480382919311,-0.386066824197769,-1.04824471473694
0,0.498611116363352,-0.940277860008718,-0.14722222356986,-1.73730075359345,-0.650571465492249,-1.06993043422699
0,0.512500035195893,-0.888888957576031,-0.18333333959868,-1.83045768737793,-0.982576727867126,-1.69545650482178
0,0.569444456537738,-0.947222222177272,-0.166666673467524,-1.96087741851807,-0.837496280670166,-1.81976759433746
0,0.606944488761742,-1.00972225967599,-0.10972222781375,-2.13986086845398,-0.386372268199921,-1.59130394458771
0,0.686111131611794,-0.968055600426084,-0.1194444466846,-2.35488557815552,-0.326507478952408,-1.37169790267944
0,0.719444488186035,-0.841666730793107,-0.168055565350778,-2.31212496757507,-0.408974289894104,-1.32435584068298
0,0.705555569353494,-0.75694447178618,-0.193055558469529,-1.82648706436157,-0.0946841165423393,-1.2745703458786
0,0.679166672195524,-0.654166666920807,-0.205555561106887,-1.05526971817017,0.199142068624496,-1.03327858448029
0,0.670833369519857,-0.588888894279438,-0.188888894975731,-0.305738061666489,0.218995183706284,-0.968526840209961
0,0.683333347845286,-0.565277780887976,-0.170833336961321,-0.315206468105316,0.429743707180023,-0.733038306236267
0,0.719444488186035,-0.519444445988306,0.0347222241455659,-2.43063282966614,1.00945484638214,0.166460782289505
0,0.645833364245141,-0.536111148587356,-0.00694444498106275,-2.60747838020325,-0.435852348804474,0.29107728600502
0,0.661111126337078,-0.518055554105052,-0.0722222259796579,-1.34237635135651,1.14934301376343,0.41813725233078
0,0.715277812536273,-0.505555575779623,-0.130555557438704,-1.16858518123627,0.406225383281708,-0.103541657328606
0,0.779166693294388,-0.591666678045946,-0.2194444556275,-1.10719323158264,-0.410196006298065,-1.19240891933441
0,0.701388893703731,-0.594444461812454,-0.131944449321958,-1.00395703315735,-0.445015341043472,-1.4679092168808
0,0.656944450687316,-0.563888889004722,-0.12777778582816,-0.908051192760468,-0.153938040137291,-1.33962750434876
0,0.709722245003256,-0.447222262554524,-0.254166679773066,-0.906524002552032,0.115453533828259,-1.27640295028687
0,0.754166688019672,-0.426388884305712,-0.286111120152123,-1.01067650318146,-0.190895393490791,-1.33138084411621
0,0.784722260827405,-0.447222262554524,-0.351388892793493,-0.691193997859955,-0.0552833043038845,-0.859181940555573
0,0.747222228603401,-0.44583337067127,-0.329166671285285,-0.250149309635162,0.224798411130905,-0.383928805589676
0,0.737500034044481,-0.404166687109433,-0.369444462963867,0.208305045962334,0.238848313689232,-0.0714712366461754
0,0.75694447178618,-0.390277792588821,-0.383333357484479,-0.255036234855652,-0.181732416152954,-1.33260250091553
0,0.89166674134254,-0.466666700296224,-0.395833335809908,-1.22967171669006,-0.328645497560501,-2.21072125434875
0,1.08333333499303,-0.572222240304247,-0.163888889701015,-1.68415546417236,1.13620936870575,-1.29045283794403
0,0.780555585177642,-0.437500019371745,-0.288888903918631,-0.0775798857212067,1.03938722610474,-0.207083314657211
0,0.89166674134254,-0.156944454596674,-0.473611111088636,2.08885359764099,0.915687024593353,1.23425328731537
0,1.31250000949138,-0.136111112815755,-0.673611153286365,0.0693332031369209,0.0299323964864016,0.991128861904144
0,1.10138892947533,-0.358333352209763,-0.486111138037923,0.104763388633728,0.371406078338623,0.978911578655243
0,0.92083337364316,-0.352777784676747,-0.397222227693163,0.563828647136688,1.25624442100525,0.886365473270416
0,0.87500003874349,-0.29166668768514,-0.372222246730376,-0.0809396430850029,0.917825043201447,0.766025006771088
0,0.913888914226889,-0.388888900705567,-0.443055586904762,-0.173180297017098,0.954782366752625,0.471893399953842
0,0.92083337364316,-0.473611111088636,-0.447222262554524,0.457538068294525,1.81976759433746,0.285884946584701
0,0.944444438410764,-0.469444484062732,-0.361111135976272,0.0497855171561241,1.71103358268738,0.133779495954514
0,0.951388897827035,-0.426388884305712,-0.355555568443255,-0.207694187760353,0.810312747955322,0.0369573459029198
0,0.984722303025134,-0.423611149163062,-0.377777789951463,-0.00122173049021512,0.865596055984497,-0.217162594199181
0,0.981944519258625,-0.44583337067127,-0.326388911830706,-0.0522289797663689,0.890336096286774,-0.833525598049164
0,0.916666697993398,-0.497222224480098,-0.236111109602691,-0.140499010682106,0.610254406929016,-0.62308257818222
0,0.840277838909853,-0.4194444735133,-0.122222230451108,0.163101017475128,0.678976714611053,0.0580321997404099
0,0.973611167959101,-0.365277787314105,-0.19166667874224,-0.0421497002243996,0.282219737768173,-0.0815505087375641
0,0.961111141009813,-0.487500029921177,-0.256944463539574,-0.0613919571042061,0.209526777267456,-0.311235845088959
0,0.944444438410764,-0.500000008246606,-0.252777787889811,0.16920967400074,0.241597205400467,-0.0870482996106148
0,0.852777768611424,-0.354166676560001,-0.17361112072783,-0.04764748737216,0.0378736443817616,-0.0452040284872055
0,0.869444471210474,-0.266666682410424,-0.20972223675665,-0.0842994004487991,-0.254730820655823,0.0461203269660473
0,0.906944454810619,-0.301388906555989,-0.216666671860991,-0.0262672062963247,-0.535117983818054,-0.455400049686432
0,0.948611114060526,-0.551388910679293,-0.216666671860991,0.0623082555830479,-0.229074463248253,-0.638048768043518
0,0.962500032893068,-0.515277818962402,-0.233333350148112,0.00427605677396059,-0.104763388633728,-0.480445504188538
0,0.94305554652751,-0.361111135976272,-0.272222225631511,-0.0745255574584007,-0.471587955951691,-0.764192402362823
0,0.865277795560711,-0.330555563168539,-0.18333333959868,-0.284663200378418,-0.683863639831543,-1.02655899524689
0,0.866666687443965,-0.351388892793493,-0.184722231481934,-0.310014098882675,-0.454178303480148,-0.909578323364258
0,0.969444492309338,-0.387500008822313,-0.275000009398019,-0.0531452745199203,-0.353996396064758,-0.902247965335846
0,0.984722303025134,-0.358333352209763,-0.288888903918631,0.0268780700862408,-0.387593984603882,-0.866817772388458
0,0.969444492309338,-0.297222230906227,-0.318055560531181,-0.0467311926186085,-0.585208892822266,-0.770301103591919
0,0.933333400592447,-0.286111120152123,-0.281944444502361,0.372016936540604,-0.150578290224075,-0.258395999670029
0,0.976388951725609,-0.161111118090472,-0.248611112240049,0.0946841165423393,-0.0555887371301651,0.196698606014252
0,1.06111116210868,-0.197222234119292,-0.320833344297689,0.0555887371301651,-0.0250454749912024,0.131030589342117
0,0.998611124609959,-0.229166674498349,-0.454166673346937,-0.140499010682106,0.981660425662994,0.0983493030071259
0,0.838888947026599,-0.269444466176932,-0.256944463539574,-0.01191187184304,1.133460521698,-0.279165416955948
0,0.862500011794203,-0.331944455051793,-0.193055558469529,-0.0717766657471657,0.700967848300934,-0.691804885864258
0,0.96666670854283,-0.301388906555989,-0.275000009398019,-0.105068825185299,1.11971604824066,-0.870482981204987
0,1.0305556379248,-0.238888893369199,-0.20972223675665,-0.0442877300083637,0.853684186935425,-0.776104271411896
0,1.05555559457566,-0.179166676104882,-0.0916666697993398,0.143247902393341,-0.0992656052112579,-0.251676470041275
0,1.01944450285877,-0.198611113846581,-0.205555561106887,-0.0571159012615681,-0.0803287774324417,0.0415388382971287
0,1.09166668629255,-0.279166685047782,-0.379166681834717,-0.261450320482254,0.874453604221344,-0.209221348166466
0,1.00555558402623,-0.193055558469529,-0.190277786858986,0.00397062394768,-0.0250454749912024,-0.22204951941967
0,0.89166674134254,-0.134722233088466,0.0513888902767219,0.112704634666443,-0.849102675914764,-0.102625362575054
0,1.04861113515939,-0.20972223675665,-0.206944452990142,0.0693332031369209,-0.478002041578293,-0.0277943685650826
0,1.08055555122652,-0.229166674498349,-0.331944455051793,-0.118507854640484,0.315817326307297,-0.0424551330506802
0,1.00555558402623,-0.211111128639904,-0.197222234119292,-0.00610865233466029,0.319177091121674,-0.0406225398182869
0,0.963888924776322,-0.197222234119292,-0.13750000469901,0.106290549039841,0.0253509078174829,0.00152716308366507
0,0.940277860008718,-0.216666671860991,-0.272222225631511,-0.087659165263176,0.0241291765123606,0.0638354197144508
0,1.02500007039179,-0.223611131277262,-0.241666677135707,-0.239153742790222,0.426078498363495,-0.00824668072164059
0,0.990277773310434,-0.204166669223633,-0.200000005729836,-0.213497400283814,0.390953749418259,-0.000305432622553781
0,0.991666665193688,-0.208333344873396,-0.126388893944906,-0.188451930880547,0.128281697630882,0.134390354156494
0,0.98888888142718,-0.202777789496344,-0.144444451959316,0.05283984541893,-0.0277943685650826,0.0641408488154411
0,0.940277860008718,-0.229166674498349,-0.17361112072783,0.120340451598167,0.0128281703218818,-0.0690277740359306
0,1.01944450285877,-0.250000004123303,-0.193055558469529,0.124311074614525,0.200974673032761,-0.432492583990097
0,1.06666672964169,-0.18333333959868,-0.187500003092477,0.0919352173805237,0.149661988019943,-0.248927593231201
0,1.00277780025972,-0.188888894975731,-0.150000007336368,0.00519235478714108,-0.0571159012615681,0.00305432616733015
0,0.994444448960196,-0.194444450352783,-0.161111118090472,0.0448985956609249,-0.124311074614525,0.0265726372599602
0,0.913888914226889,-0.229166674498349,-0.176388892338373,0.0589484944939613,-0.176540061831474,-0.132863193750381
0,0.959722249126559,-0.200000005729836,-0.202777789496344,-0.0430659987032413,-0.126449108123779,-0.151800006628036
0,0.959722249126559,-0.200000005729836,-0.202777789496344,-0.0965167060494423,0.144469633698463,-0.173180297017098
0,0.975000059842355,-0.216666671860991,-0.188888894975731,0.0201585534960032,0.149356558918953,-0.159741267561913
0,1.00277780025972,-0.20972223675665,-0.193055558469529,-0.064446285367012,0.076052725315094,-0.170125976204872
0,1.00277780025972,-0.20972223675665,-0.193055558469529,-0.0635299831628799,0.124616511166096,-0.13225232064724
0,1.0361111082101,-0.200000005729836,-0.193055558469529,-0.00855211354792118,-0.0354301854968071,-0.114231802523136
0,0.970833384192592,-0.204166669223633,-0.166666673467524,-0.0146607663482428,0.0781907513737679,-0.0937678143382072
0,0.970833384192592,-0.198611113846581,-0.198611113846581,-0.0946841165423393,0.124616511166096,0.0803287774324417
0,0.87500003874349,-0.187500003092477,-0.12777778582816,0.0928515195846558,-0.164628177881241,0.430965423583984
0,0.886111173809523,-0.190277786858986,-0.102777780553444,0.167071640491486,-0.253814518451691,0.664010524749756
0,0.986111194908388,-0.243055569018962,-0.166666673467524,0.245262399315834,-0.209832206368446,0.647211730480194
0,0.93750007624221,-0.241666677135707,-0.169444445078067,0.39064833521843,-0.242513507604599,1.07023596763611
0,0.887500065692777,-0.204166669223633,-0.12777778582816,0.48136180639267,-0.353996396064758,1.23425328731537
0,0.956944465360051,-0.212499996211229,-0.170833336961321,0.602313160896301,-0.375071257352829,1.55862271785736
0,0.702777785586986,-0.263888898643915,-0.14583334384257,0.667981147766113,-0.780380368232727,1.6056592464447
0,1.00694447590948,-0.319444452414435,-0.259722222994153,0.160046696662903,0.124616511166096,0.145691365003586
0,1.34166673903971,-0.354166676560001,-0.359722244093018,-0.239764615893364,0.665537655353546,0.017409659922123
0,1.15416672379127,-0.313888909193348,-0.318055560531181,-0.321620553731918,0.839023411273956,0.0140499006956816
0,1.08194444310977,-0.316666668647927,-0.238888893369199,-0.249233022332191,0.892474114894867,0.027488935738802
0,0.96666670854283,-0.316666668647927,-0.0944444474878658,-0.0836885422468185,0.109955742955208,-0.00671951752156019
0,0.987499989543926,-0.334722238818301,-0.120833338567854,-0.0629191175103188,0.0354301854968071,-0.0277943685650826
0,1.00972225967599,-0.33750002258481,-0.18333333959868,-0.118813291192055,0.0766635909676552,-0.0601702257990837
0,0.876388930626744,-0.331944455051793,-0.161111118090472,-0.129808858036995,0.0452040284872055,0.00183259579353034
0,0.916666697993398,-0.320833344297689,-0.170833336961321,-0.18509216606617,-0.0485637858510017,0.127976268529892
0,0.951388897827035,-0.305555557893823,-0.154166670830166,-0.159130394458771,-0.235183119773865,0.156686931848526
0,0.973611167959101,-0.344444457689151,-0.15555556271342,-0.0448985956609249,-0.0873537287116051,0.0473420582711697
0,0.973611167959101,-0.344444457689151,-0.15555556271342,-0.00122173049021512,-0.258090555667877,0.0021380283869803
0,0.993055557076942,-0.329166671285285,-0.17361112072783,-0.0140499006956816,-0.261450320482254,0.0140499006956816
0,0.927777833059431,-0.329166671285285,-0.134722233088466,0.101098194718361,-0.412944912910461,0.0577267669141293
0,0.898611103511094,-0.325000019947452,-0.150000007336368,0.209526777267456,-0.263588339090347,-0.0113010071218014
0,0.984722303025134,-0.327777779402031,-0.20972223675665,0.173791155219078,-0.176845490932465,-0.01191187184304
5,1.00277780025972,-0.322222236180943,-0.195833342236038,0.104152522981167,-0.241902634501457,0.0247400421649218
5,1.02222228662528,-0.33750002258481,-0.243055569018962,-0.0354301854968071,-0.0775798857212067,-0.0253509078174829
5,0.998611124609959,-0.343055565805897,-0.206944452990142,0.0348193198442459,0.0290160998702049,-0.0384845100343227
5,0.96666670854283,-0.343055565805897,-0.187500003092477,0.107817716896534,-0.0219911485910416,-0.0558941699564457
5,0.94305554652751,-0.320833344297689,-0.193055558469529,0.0277943685650826,0.109650313854218,-0.0922406539320946
5,0.926388941176177,-0.373611114301701,-0.159722226207217,0.161573857069016,0.0638354197144508,0.113315500319004
5,0.931944508709193,-0.351388892793493,-0.152777778946911,0.175623759627342,0.0146607663482428,0.150578290224075
5,1.00138890837647,-0.327777779402031,-0.200000005729836,0.0143553335219622,-0.148440256714821,-0.00152716308366507
5,0.99583334084345,-0.334722238818301,-0.233333350148112,-0.0607810914516449,-0.114842668175697,-0.0714712366461754
5,0.987499989543926,-0.345833349572405,-0.227777782615095,-0.0461203269660473,0.0332921557128429,0.0879645943641663
5,0.969444492309338,-0.363888895430851,-0.301388906555989,-0.0253509078174829,0.313068449497223,0.00152716308366507
5,0.919444481759906,-0.350000000910239,-0.195833342236038,0.0873537287116051,0.372933238744736,0.0140499006956816
5,0.958333357243305,-0.330555563168539,-0.227777782615095,0.00305432616733015,0.528092980384827,-0.0372627787292004
5,0.959722249126559,-0.323611128064198,-0.193055558469529,-0.0503963828086853,0.19058994948864,-0.0507018156349659
5,1.00972225967599,-0.348611133338914,-0.156944454596674,0.0647517144680023,0.104457959532738,-0.0601702257990837
5,0.947222222177272,-0.341666673922643,-0.104166672436698,0.165849909186363,-0.100181899964809,-0.0540615729987621
5,0.918055589876652,-0.344444457689151,-0.136111112815755,0.122783914208412,-0.0791070461273193,-0.169820532202721
5,0.901388887277602,-0.340277782039389,-0.175000000455119,-0.00427605677396059,-0.0210748501121998,-0.166460782289505
5,0.986111194908388,-0.338888890156135,-0.175000000455119,-0.0369573459029198,-0.0106901414692402,-0.212886542081833
5,0.959722249126559,-0.319444452414435,-0.181944447715425,0.00824668072164059,-0.0937678143382072,-0.108734011650086
5,0.941666654644256,-0.305555557893823,-0.170833336961321,0.0928515195846558,-0.000305432622553781,-0.0699440687894821
5,0.993055557076942,-0.269444466176932,-0.181944447715425,0.0623082555830479,0.333226978778839,0.0467311926186085
5,0.99583334084345,-0.33750002258481,-0.204166669223633,0.191506251692772,0.498466044664383,-0.0971275717020035
5,0.952777789710289,-0.320833344297689,-0.159722226207217,0.0265726372599602,0.0583376325666905,0.011606439948082
5,0.911111130460381,-0.306944449777077,-0.161111118090472,-0.0675006061792374,-0.0653625801205635,0.0433714315295219
5,0.881944498159761,-0.297222230906227,-0.140277788465518,-0.0717766657471657,-0.233350530266762,0.0345138870179653
5,0.899999995394348,-0.356944460326509,-0.133333341205212,-0.0940732508897781,-0.302378296852112,0.0403171069920063
5,1.0361111082101,-0.343055565805897,-0.118055554801345,0.076052725315094,0.23273965716362,0.118507854640484
5,1.03888889197661,-0.238888893369199,-0.202777789496344,0.0577267669141293,0.666148543357849,0.0858265683054924
5,1.00694447590948,-0.330555563168539,-0.229166674498349,0.0290160998702049,0.742506682872772,-0.0662788823246956
5,1.00972225967599,-0.344444457689151,-0.215277779977737,0.0445931628346443,0.981965899467468,-0.0531452745199203
5,0.92083337364316,-0.293055555256465,-0.0916666697993398,-0.0369573459029198,0.492662817239761,0.0021380283869803
5,0.963888924776322,-0.288888903918631,-0.0708333340964038,-0.0421497002243996,0.236404851078987,-0.01588249579072
5,0.973611167959101,-0.308333341660331,-0.0680555564078778,0.0305432621389627,0.147218525409698,-0.000305432622553781
5,0.940277860008718,-0.322222236180943,-0.0736111117849297,0.130725160241127,0.207999616861343,-0.0259617734700441
5,0.904166671044111,-0.327777779402031,-0.0722222259796579,0.125227376818657,0.011606439948082,0.0583376325666905
5,0.956944465360051,-0.315277801076602,-0.0652777787193518,0.0934623852372169,-0.314901024103165,0.0433714315295219
5,1.02500007039179,-0.356944460326509,-0.116666675074056,0.03176499158144,-0.104763388633728,0.015577063895762
5,1.02500007039179,-0.356944460326509,-0.116666675074056,0.105374254286289,0.0574213340878487,-0.013744467869401
5,1.00555558402623,-0.323611128064198,-0.1194444466846,0.102930791676045,0.266337245702743,-0.0430659987032413
5,0.990277773310434,-0.280555576931036,-0.0916666697993398,0.23273965716362,0.434325188398361,0.0561996027827263
5,0.990277773310434,-0.280555576931036,-0.0916666697993398,0.220827788114548,0.532979905605316,0.0534507073462009
5,0.979166735492117,-0.331944455051793,-0.0986111170596459,0.0610865242779255,0.362243086099625,-0.081855945289135
5,0.969444492309338,-0.311111125426839,-0.0694444482911319,-0.0546724386513233,0.172263994812965,-0.0800233483314514
5,0.969444492309338,-0.311111125426839,-0.0694444482911319,-0.154548913240433,-0.0879645943641663,-0.0311541277915239
5,0.933333400592447,-0.331944455051793,-0.0652777787193518,-0.155770644545555,-0.240680903196335,-0.0213802829384804
5,0.94305554652751,-0.313888909193348,-0.0833333367337618,-0.245873257517815,-0.383012503385544,-0.0354301854968071
5,0.94305554652751,-0.313888909193348,-0.0833333367337618,-0.344833433628082,-0.421802461147308,0.00855211354792118
5,0.998611124609959,-0.29166668768514,-0.108333335930496,-0.229379892349243,-0.362853944301605,0.0113010071218014
5,1.03750000009336,-0.320833344297689,-0.0680555564078778,-0.0742201283574104,-0.134084925055504,0.0665843114256859
5,1.00972225967599,-0.315277801076602,-0.0777777813567098,0.0177150927484035,-0.0482583530247212,0.0705549344420433
5,0.99583334084345,-0.334722238818301,-0.113888891307548,0.027488935738802,0.102319926023483,0.0726929605007172
5,0.938888968125464,-0.323611128064198,-0.116666675074056,0.0583376325666905,0.0736092627048492,0.117591559886932
5,1.03472221632685,-0.333333346935047,-0.1194444466846,-0.0247400421649218,-0.305127203464508,0.299629390239716
5,1.0305556379248,-0.341666673922643,-0.166666673467524,-0.24862214922905,-0.298102229833603,0.118813291192055
5,0.969444492309338,-0.361111135976272,-0.0625000010308258,0.260228604078293,-0.35979962348938,0.0714712366461754
5,0.890277849459286,-0.331944455051793,0.0180555564949145,0.683863639831543,-1.03236222267151,0.201280102133751
5,0.940277860008718,-0.351388892793493,-0.379166681834717,-0.0745255574584007,-0.641713917255402,0.127670839428902
5,1.06527783775844,-0.369444462963867,-0.226388890731841,-0.120951317250729,-0.281914323568344,0.0394008085131645
5,1.00972225967599,-0.359722244093018,-0.176388892338373,-0.081855945289135,-0.11636982858181,0.0555887371301651
5,0.955555573476797,-0.358333352209763,-0.14583334384257,0.0510072484612465,-0.0696386396884918,0.0284052342176437
5,0.93750007624221,-0.327777779402031,-0.175000000455119,-0.0180205255746841,-0.130419731140137,0.0406225398182869
5,0.973611167959101,-0.344444457689151,-0.14583334384257,-0.0381790772080422,-0.218995183706284,0.0745255574584007
5,0.979166735492117,-0.341666673922643,-0.156944454596674,0.00122173049021512,-0.159741267561913,0.0574213340878487
5,0.979166735492117,-0.380555573717971,-0.161111118090472,0.329561799764633,0.0167987942695618,-0.231823354959488
5,0.933333400592447,-0.327777779402031,-0.161111118090472,-0.233350530266762,0.303905457258224,-0.0394008085131645
5,0.973611167959101,-0.355555568443255,-0.14722222356986,0.08460483700037,0.28496864438057,-0.0323758572340012
5,0.983333411141879,-0.352777784676747,-0.154166670830166,0.119424156844616,0.34391713142395,-0.0470366254448891
5,0.961111141009813,-0.340277782039389,-0.161111118090472,0.117896988987923,0.266337245702743,0.0106901414692402
5,0.955555573476797,-0.341666673922643,-0.156944454596674,0.0699440687894821,0.103541657328606,0.00122173049021512
5,0.958333357243305,-0.344444457689151,-0.168055565350778,-0.03176499158144,0.0870482996106148,-0.00733038317412138
5,0.906944454810619,-0.345833349572405,-0.152777778946911,0.0626136884093285,-0.0986547395586967,0.0354301854968071
5,0.96666670854283,-0.341666673922643,-0.125000002061652,0.000610865245107561,-0.392480909824371,0.04764748737216
5,0.911111130460381,-0.315277801076602,-0.131944449321958,-0.0607810914516449,-0.644462823867798,0.0629191175103188
5,0.899999995394348,-0.361111135976272,-0.140277788465518,0.12156218290329,-0.988990843296051,0.0668897479772568
5,0.909722238577127,-0.370833354847121,-0.168055565350778,-0.0213802829384804,-0.942870497703552,0.165239050984383
5,0.969444492309338,-0.348611133338914,-0.223611131277262,-0.0992656052112579,-0.803593218326569,0.17409659922123
5,0.986111194908388,-0.370833354847121,-0.215277779977737,0.0583376325666905,-0.589790403842926,0.10048733651638
5,0.99583334084345,-0.344444457689151,-0.250000004123303,0.263282924890518,-0.251676470041275,0.142026171088219
5,1.00972225967599,-0.361111135976272,-0.294444447139719,0.0400116741657257,0.177761793136597,0.166766211390495
5,0.916666697993398,-0.397222227693163,-0.25555557165632,-0.245567828416824,0.113010071218014,0.0806342139840126
5,0.955555573476797,-0.383333357484479,-0.236111109602691,-0.215940862894058,0.274278491735458,0.0729983970522881
5,1.00000001649321,-0.401388903342925,-0.216666671860991,-0.183870434761047,0.419969856739044,0.0620028227567673
5,1.0125000434425,-0.405555578992687,-0.206944452990142,0.109039448201656,0.683863639831543,0.0326812900602817
5,0.973611167959101,-0.383333357484479,-0.206944452990142,0.0870482996106148,0.673173487186432,0.00183259579353034
5,0.837500055143345,-0.336111130701556,-0.130555557438704,0.0210748501121998,0.200058370828629,0.0925460830330849
5,0.869444471210474,-0.358333352209763,-0.166666673467524,-0.0736092627048492,-0.0956004112958908,0.176540061831474
5,0.977777843608863,-0.406944470875941,-0.161111118090472,-0.00427605677396059,-0.0500909499824047,0.0836885422468185
5,0.930555616825939,-0.380555573717971,-0.166666673467524,0.0473420582711697,-0.237015709280968,0.00519235478714108
5,0.930555616825939,-0.315277801076602,-0.213888888094483,0.0815505087375641,-0.139277279376984,0.146607652306557
5,0.923611157409668,-0.361111135976272,-0.218055563744246,-0.103847093880177,-0.242208063602448,0.153632611036301
5,0.952777789710289,-0.388888900705567,-0.202777789496344,-0.0757472887635231,-0.120340451598167,0.164322748780251
5,0.956944465360051,-0.406944470875941,-0.208333344873396,-0.0675006061792374,-0.134084925055504,0.152105450630188
5,1.04861113515939,-0.400000011459671,-0.152777778946911,-0.326507478952408,0.0427605658769607,-0.0448985956609249
5,0.963888924776322,-0.376388898068209,-0.240277785252453,-0.347887754440308,0.2165517359972,-0.114231802523136
5,0.927777833059431,-0.387500008822313,-0.204166669223633,-0.532063603401184,0.170736834406853,-0.0769690200686455
5,0.954166681593543,-0.391666684472075,-0.168055565350778,-0.136528387665749,0.410196006298065,-0.0500909499824047
5,0.954166681593543,-0.375000006184955,-0.184722231481934,-0.0668897479772568,0.322231411933899,-0.0106901414692402
5,0.973611167959101,-0.388888900705567,-0.218055563744246,-0.190895393490791,0.377209275960922,-0.0445931628346443
5,0.911111130460381,-0.368055571080613,-0.175000000455119,-0.15332718193531,0.363464832305908,-0.0678060427308083
5,0.911111130460381,-0.368055571080613,-0.175000000455119,-0.217162594199181,0.125532805919647,-0.00244346098043024
5,0.915277806110144,-0.340277782039389,-0.163888889701015,-0.139277279376984,0.128892570734024,-0.0235183127224445
5,0.972222276075846,-0.379166681834717,-0.150000007336368,0.0607810914516449,0.11636982858181,-0.0891863256692886
5,0.973611167959101,-0.393055576355329,-0.150000007336368,0.220827788114548,0.188757359981537,-0.0662788823246956
5,0.973611167959101,-0.393055576355329,-0.150000007336368,0.231212496757507,0.00763581553474069,-0.01588249579072
5,0.873611146860236,-0.355555568443255,-0.168055565350778,-0.000305432622553781,0.122783914208412,0.0561996027827263
5,0.95000000594378,-0.347222241455659,-0.2194444556275,-0.0494800843298435,0.172874867916107,0.00397062394768
5,0.99583334084345,-0.344444457689151,-0.215277779977737,-0.0684169083833694,0.38576140999794,-0.0708603709936142
5,1.00416669214298,-0.380555573717971,-0.194444450352783,-0.127976268529892,0.270613312721252,-0.0711658000946045
5,0.913888914226889,-0.372222246730376,-0.144444451959316,0.00122173049021512,0.191200822591782,-0.0128281703218818
5,0.922222265526414,-0.362500003547597,-0.0986111170596459,-0.0733038261532784,-0.28557950258255,0.0241291765123606
5,0.876388930626744,-0.327777779402031,0.0194444453391775,-0.1750128865242,0.166460782289505,0.0778853222727776
5,0.99583334084345,-0.375000006184955,-0.0638888929140799,-0.0852157026529312,-0.0177150927484035,-0.0134390350431204
5,0.941666654644256,-0.384722225055805,-0.111111119697004,-0.0332921557128429,-0.0192422550171614,-0.0635299831628799
5,0.968055600426084,-0.397222227693163,-0.130555557438704,0.04764748737216,0.0409279726445675,-0.0531452745199203
5,0.934722292475701,-0.366666679197359,-0.13750000469901,0.0406225398182869,-0.111482910811901,-0.0186313893646002
5,0.931944508709193,-0.354166676560001,-0.130555557438704,0.0607810914516449,-0.187535628676414,0.0247400421649218
5,0.947222222177272,-0.370833354847121,-0.163888889701015,0.00916297826915979,-0.25961771607399,-0.0177150927484035
5,0.933333400592447,-0.368055571080613,-0.175000000455119,-0.135917514562607,-0.301767438650131,-0.112704634666443
5,0.98888888142718,-0.359722244093018,-0.223611131277262,-0.100181899964809,-0.107206851243973,-0.11117747426033
5,0.972222276075846,-0.354166676560001,-0.197222234119292,-0.0497855171561241,-0.113620936870575,-0.0864374339580536
5,0.940277860008718,-0.347222241455659,-0.163888889701015,0.00519235478714108,-0.137139245867729,-0.021685715764761
5,0.947222222177272,-0.348611133338914,-0.187500003092477,0.00122173049021512,-0.129197999835014,0.000916297896765172
5,0.947222222177272,-0.348611133338914,-0.187500003092477,0.00122173049021512,-0.129197999835014,0.000916297896765172
5,0.945833330294018,-0.359722244093018,-0.175000000455119,0.0311541277915239,-0.23304508626461,-0.0167987942695618
5,0.969444492309338,-0.352777784676747,-0.168055565350778,0.135001212358475,-0.169820532202721,0.0510072484612465
5,0.968055600426084,-0.361111135976272,-0.208333344873396,0.0595593601465225,-0.160657554864883,0.0293215326964855
5,0.956944465360051,-0.361111135976272,-0.227777782615095,-0.112093769013882,-0.131641462445259,-0.0219911485910416
5,0.987499989543926,-0.365277787314105,-0.252777787889811,-0.3378084897995,-0.0601702257990837,-0.114231802523136
5,0.879166714393253,-0.347222241455659,-0.166666673467524,-0.0421497002243996,-0.208610475063324,0.0244346093386412
5,0.956944465360051,-0.352777784676747,-0.229166674498349,-0.156992360949516,-0.297796815633774,0.0299323964864016
5,0.948611114060526,-0.354166676560001,-0.226388890731841,-0.147523954510689,-0.0549778714776039,-0.0152716310694814
5,0.926388941176177,-0.348611133338914,-0.188888894975731,0.017409659922123,-0.0345138870179653,0.0131336031481624
5,0.931944508709193,-0.344444457689151,-0.179166676104882,0.134084925055504,-0.0424551330506802,0.00855211354792118
5,0.94305554652751,-0.348611133338914,-0.18333333959868,0.205861583352089,-0.0956004112958908,-0.00916297826915979
5,0.958333357243305,-0.355555568443255,-0.226388890731841,0.234266817569733,-0.10567969083786,-0.0345138870179653
5,0.96666670854283,-0.354166676560001,-0.236111109602691,0.0280998013913631,-0.104763388633728,-0.0668897479772568
5,0.96666670854283,-0.344444457689151,-0.240277785252453,-0.103847093880177,-0.0589484944939613,-0.0503963828086853
5,0.958333357243305,-0.343055565805897,-0.231944458264858,-0.0742201283574104,0.0455094613134861,-0.0247400421649218
5,0.952777789710289,-0.331944455051793,-0.2194444556275,0.0100792767480016,0.0766635909676552,0.0122173046693206
5,0.95000000594378,-0.334722238818301,-0.193055558469529,0.0323758572340012,0.0638354197144508,0.0540615729987621
5,0.95000000594378,-0.334722238818301,-0.193055558469529,0.0757472887635231,0.107512280344963,0.0699440687894821
5,0.954166681593543,-0.351388892793493,-0.204166669223633,0.0919352173805237,0.087659165263176,0.0409279726445675
5,0.940277860008718,-0.361111135976272,-0.213888888094483,0.0467311926186085,0.0891863256692886,-0.00488692196086049
5,0.954166681593543,-0.358333352209763,-0.212499996211229,0.0134390350431204,0.104152522981167,-0.0299323964864016
5,0.954166681593543,-0.358333352209763,-0.212499996211229,-0.00641408516094089,0.160657554864883,-0.0448985956609249
5,0.96666670854283,-0.358333352209763,-0.212499996211229,-0.0183259565383196,0.0992656052112579,-0.0143553335219622
5,0.956944465360051,-0.347222241455659,-0.200000005729836,-0.0543670058250427,0.0494800843298435,0.0113010071218014
5,0.956944465360051,-0.347222241455659,-0.200000005729836,-0.0916297882795334,0.0662788823246956,-0.0171042270958424
5,0.948611114060526,-0.362500003547597,-0.202777789496344,-0.0369573459029198,0.0387899428606033,0.00671951752156019
5,0.940277860008718,-0.358333352209763,-0.184722231481934,-0.00794124789535999,0.0207694191485643,0.0204639863222837
5,0.936111184358955,-0.351388892793493,-0.175000000455119,0.029626963660121,-0.0183259565383196,0.0164933614432812
5,0.934722292475701,-0.358333352209763,-0.187500003092477,0.0342084541916847,-0.0629191175103188,0.0131336031481624
5,0.952777789710289,-0.365277787314105,-0.195833342236038,-0.00977384392172098,-0.0171042270958424,-0.00122173049021512
5,0.956944465360051,-0.350000000910239,-0.208333344873396,-0.0354301854968071,0.0250454749912024,0.00794124789535999
5,0.951388897827035,-0.348611133338914,-0.200000005729836,-0.011606439948082,0.0033597587607801,0.0326812900602817
5,0.945833330294018,-0.341666673922643,-0.200000005729836,0.0580321997404099,-0.0430659987032413,0.0574213340878487
5,0.954166681593543,-0.358333352209763,-0.187500003092477,0.104152522981167,-0.00824668072164059,0.0540615729987621
5,1.07500008094122,-0.404166687109433,-0.327777779402031,0.19028452038765,0.0629191175103188,0.0314595587551594
5,0.969444492309338,-0.362500003547597,-0.224999998848587,0.162184715270996,-0.0125227374956012,0.0421497002243996
5,0.947222222177272,-0.352777784676747,-0.223611131277262,0.0271835029125214,-0.0641408488154411,0.0293215326964855
5,0.958333357243305,-0.368055571080613,-0.233333350148112,-0.0729983970522881,-0.0519235469400883,-0.0167987942695618
5,0.952777789710289,-0.366666679197359,-0.231944458264858,-0.098960168659687,-0.0403171069920063,-0.0131336031481624
5,0.954166681593543,-0.361111135976272,-0.200000005729836,0.00305432616733015,0.00366519158706069,-0.00946841109544039
5,0.954166681593543,-0.361111135976272,-0.20138889761309,0.0678060427308083,0.0335975885391235,-0.0314595587551594
5,0.976388951725609,-0.361111135976272,-0.220833347510754,0.0543670058250427,0.118507854640484,-0.0442877300083637
5,0.959722249126559,-0.350000000910239,-0.20972223675665,0.0445931628346443,0.129808858036995,-0.0400116741657257
5,0.927777833059431,-0.351388892793493,-0.197222234119292,0.0271835029125214,0.0827722400426865,-0.0033597587607801
5,0.929166724942685,-0.351388892793493,-0.186111123365188,0.0280998013913631,0.0357356183230877,0.00671951752156019
5,0.923611157409668,-0.344444457689151,-0.194444450352783,0.00702495034784079,-0.000916297896765172,-0.0369573459029198
5,0.931944508709193,-0.33750002258481,-0.188888894975731,0.0723875313997269,-0.0180205255746841,0.0232128798961639
5,0.975000059842355,-0.362500003547597,-0.190277786858986,0.0705549344420433,0.0394008085131645,0.107817716896534
5,0.984722303025134,-0.369444462963867,-0.202777789496344,0.101709060370922,0.0916297882795334,0.0601702257990837
5,0.959722249126559,-0.380555573717971,-0.193055558469529,0.158214092254639,0.101709060370922,-0.0113010071218014
5,0.948611114060526,-0.370833354847121,-0.190277786858986,0.164933621883392,0.176234617829323,-0.0897971913218498
5,0.951388897827035,-0.370833354847121,-0.187500003092477,0.180510684847832,0.220827788114548,-0.0986547395586967
5,0.976388951725609,-0.379166681834717,-0.262500006760661,-0.0394008085131645,0.240375474095344,-0.0739146918058395
5,0.962500032893068,-0.354166676560001,-0.193055558469529,-0.0397062413394451,0.0983493030071259,-0.0891863256692886
5,0.913888914226889,-0.343055565805897,-0.187500003092477,-0.01588249579072,-0.0901026204228401,0.0250454749912024
5,0.93750007624221,-0.336111130701556,-0.170833336961321,0.0534507073462009,-0.0485637858510017,0.0100792767480016
5,0.962500032893068,-0.352777784676747,-0.180555567988136,0.0821613743901253,0.0409279726445675,-0.0131336031481624
5,0.945833330294018,-0.341666673922643,-0.187500003092477,0.0583376325666905,-0.0693332031369209,0.019547687843442
5,0.962500032893068,-0.348611133338914,-0.193055558469529,0.02382374368608,-0.019547687843442,0.0308486949652433
5,0.955555573476797,-0.350000000910239,-0.184722231481934,0.0140499006956816,-0.0177150927484035,0.0378736443817616
5,0.956944465360051,-0.358333352209763,-0.179166676104882,0.0247400421649218,-0.0326812900602817,0.0235183127224445
5,0.956944465360051,-0.368055571080613,-0.194444450352783,0.00794124789535999,-0.0171042270958424,0.0131336031481624
5,0.956944465360051,-0.372222246730376,-0.198611113846581,0.00580321997404099,0.00519235478714108,0.00305432616733015
5,0.959722249126559,-0.375000006184955,-0.194444450352783,0.0106901414692402,0.00610865233466029,0.000916297896765172
5,0.959722249126559,-0.375000006184955,-0.193055558469529,0.00671951752156019,0.0213802829384804,-0.0171042270958424
5,0.955555573476797,-0.369444462963867,-0.193055558469529,0.00549778714776039,0.0280998013913631,-0.0323758572340012
5,0.956944465360051,-0.363888895430851,-0.195833342236038,0.0131336031481624,0.0308486949652433,-0.0507018156349659
5,0.954166681593543,-0.358333352209763,-0.193055558469529,0.00916297826915979,0.0470366254448891,-0.0488692186772823
5,0.958333357243305,-0.356944460326509,-0.177777784221628,0.0180205255746841,0.0439822971820831,-0.0470366254448891
5,0.95000000594378,-0.358333352209763,-0.184722231481934,0.0204639863222837,0.0427605658769607,-0.0406225398182869
5,0.95000000594378,-0.351388892793493,-0.184722231481934,0.0265726372599602,0.0305432621389627,-0.0351247526705265
5,0.951388897827035,-0.348611133338914,-0.172222228844576,0.0128281703218818,0.0213802829384804,-0.0247400421649218
5,0.952777789710289,-0.344444457689151,-0.179166676104882,-0.0027488935738802,0.0122173046693206,-0.0100792767480016
5,0.958333357243305,-0.338888890156135,-0.177777784221628,-0.0143553335219622,0.0186313893646002,-0.0131336031481624
5,0.954166681593543,-0.338888890156135,-0.181944447715425,-0.037568211555481,0.019547687843442,0.00549778714776039
5,0.95000000594378,-0.341666673922643,-0.176388892338373,-0.0482583530247212,-0.0277943685650826,0.0253509078174829
5,0.954166681593543,-0.341666673922643,-0.180555567988136,-0.0497855171561241,-0.0287106670439243,0.0381790772080422
5,0.951388897827035,-0.352777784676747,-0.181944447715425,-0.0464257597923279,-0.0265726372599602,0.0558941699564457
5,0.94305554652751,-0.358333352209763,-0.18333333959868,-0.0497855171561241,-0.0253509078174829,0.0595593601465225
5,0.94305554652751,-0.354166676560001,-0.177777784221628,-0.0549778714776039,-0.0723875313997269,0.0632245540618896
5,0.94305554652751,-0.358333352209763,-0.180555567988136,-0.0400116741657257,-0.101403631269932,0.0784961804747581
5,0.948611114060526,-0.370833354847121,-0.190277786858986,-0.021685715764761,-0.0711658000946045,0.0626136884093285
5,0.956944465360051,-0.390277792588821,-0.200000005729836,-0.0146607663482428,-0.0235183127224445,0.0479529201984406
5,0.961111141009813,-0.390277792588821,-0.20138889761309,-0.019547687843442,0.00885754637420177,0.0262672062963247
5,0.96666670854283,-0.377777789951463,-0.20972223675665,-0.0357356183230877,0.0323758572340012,0.00397062394768
5,0.969444492309338,-0.370833354847121,-0.212499996211229,-0.0613919571042061,0.0485637858510017,-0.0265726372599602
5,0.968055600426084,-0.366666679197359,-0.19166667874224,-0.0665843114256859,0.0470366254448891,-0.0424551330506802
5,0.970833384192592,-0.356944460326509,-0.190277786858986,-0.0397062413394451,0.0320704244077206,-0.0323758572340012
5,0.970833384192592,-0.362500003547597,-0.193055558469529,-0.0797179117798805,0.0500909499824047,-0.0714712366461754
5,0.945833330294018,-0.354166676560001,-0.16527778158427,-0.0635299831628799,0.0122173046693206,-0.0769690200686455
5,0.951388897827035,-0.343055565805897,-0.169444445078067,-0.0265726372599602,0.0638354197144508,-0.0598647929728031
5,0.93750007624221,-0.33750002258481,-0.17361112072783,-0.0641408488154411,0.0329867228865623,-0.0445931628346443
5,0.95000000594378,-0.334722238818301,-0.179166676104882,-0.0873537287116051,0.00366519158706069,-0.0592539273202419
5,0.956944465360051,-0.33750002258481,-0.187500003092477,-0.0763581544160843,0.00916297826915979,-0.0342084541916847
5,0.956944465360051,-0.338888890156135,-0.19166667874224,-0.0726929605007172,0.0464257597923279,-0.0390953756868839
5,0.959722249126559,-0.351388892793493,-0.176388892338373,-0.0836885422468185,0.0616973899304867,-0.0540615729987621
5,0.973611167959101,-0.344444457689151,-0.193055558469529,-0.0965167060494423,0.0455094613134861,-0.0748309940099716
5,0.984722303025134,-0.341666673922643,-0.20972223675665,-0.126143679022789,0.0839939713478088,-0.0833831056952477
5,0.973611167959101,-0.333333346935047,-0.212499996211229,-0.16920967400074,0.15851953625679,-0.0836885422468185
5,0.959722249126559,-0.329166671285285,-0.195833342236038,-0.204028993844986,0.207388743758202,-0.098960168659687
5,0.927777833059431,-0.316666668647927,-0.177777784221628,-0.239459171891212,0.160352125763893,-0.12156218290329
5,0.940277860008718,-0.319444452414435,-0.175000000455119,-0.257174253463745,0.11117747426033,-0.118507854640484
5,0.947222222177272,-0.319444452414435,-0.170833336961321,-0.232128798961639,0.0314595587551594,-0.0852157026529312
5,0.963888924776322,-0.33750002258481,-0.177777784221628,-0.194866016507149,0.0222965814173222,-0.0531452745199203
5,0.961111141009813,-0.341666673922643,-0.176388892338373,-0.149661988019943,0.0183259565383196,-0.0390953756868839
5,0.965277816659576,-0.348611133338914,-0.177777784221628,-0.0534507073462009,0.0549778714776039,-0.0183259565383196
5,0.962500032893068,-0.361111135976272,-0.184722231481934,-0.027488935738802,0.0919352173805237,-0.0500909499824047
5,0.959722249126559,-0.365277787314105,-0.197222234119292,-0.0177150927484035,0.0998764708638191,-0.0641408488154411
5,0.951388897827035,-0.362500003547597,-0.195833342236038,-0.0485637858510017,0.0577267669141293,-0.0821613743901253
5,0.947222222177272,-0.347222241455659,-0.190277786858986,-0.0656680166721344,0.00702495034784079,-0.0592539273202419
5,0.954166681593543,-0.344444457689151,-0.200000005729836,-0.0632245540618896,-0.0152716310694814,-0.0397062413394451
5,0.956944465360051,-0.343055565805897,-0.197222234119292,-0.0662788823246956,-0.00763581553474069,-0.0189368221908808
5,0.956944465360051,-0.33750002258481,-0.193055558469529,-0.0610865242779255,-0.00549778714776039,0.00580321997404099
5,0.959722249126559,-0.334722238818301,-0.193055558469529,-0.0821613743901253,0.0543670058250427,0.00183259579353034
5,0.96666670854283,-0.325000019947452,-0.187500003092477,-0.131030589342117,0.0473420582711697,0.00733038317412138
5,0.973611167959101,-0.305555557893823,-0.166666673467524,-0.139888137578964,-0.00152716308366507,0.0329867228865623
5,0.983333411141879,-0.302777798439244,-0.151388899219622,-0.148745685815811,-0.0259617734700441,0.0534507073462009
5,0.983333411141879,-0.288888903918631,-0.161111118090472,-0.175318330526352,0.0140499006956816,0.0821613743901253
5,0.983333411141879,-0.288888903918631,-0.161111118090472,-0.209221348166466,0.0265726372599602,0.098960168659687
5,0.968055600426084,-0.281944444502361,-0.162500009973726,-0.260534018278122,0.019547687843442,0.106595985591412
5,0.96666670854283,-0.281944444502361,-0.177777784221628,-0.287412106990814,-0.0106901414692402,0.115148097276688
5,0.96666670854283,-0.281944444502361,-0.177777784221628,-0.310930401086807,-0.0284052342176437,0.124005645513535
5,0.930555616825939,-0.320833344297689,-0.197222234119292,-0.308181524276733,-0.0033597587607801,0.148745685815811
5,0.915277806110144,-0.329166671285285,-0.193055558469529,-0.277027398347855,0.00244346098043024,0.173485726118088
5,0.915277806110144,-0.329166671285285,-0.193055558469529,-0.273973047733307,-0.0326812900602817,0.197309479117393
5,0.902777779160856,-0.352777784676747,-0.211111128639904,-0.251371055841446,-0.0974330082535744,0.205556154251099
5,0.940277860008718,-0.427777776188966,-0.240277785252453,-0.187841057777405,-0.196698606014252,0.164933621883392
5,0.940277860008718,-0.427777776188966,-0.240277785252453,-0.115453533828259,-0.235793977975845,0.0482583530247212
5,0.952777789710289,-0.447222262554524,-0.281944444502361,-0.0653625801205635,-0.24312436580658,-0.0128281703218818
5,0.98888888142718,-0.437500019371745,-0.284722228268869,0.0320704244077206,-0.118507854640484,-0.05283984541893
5,1.00277780025972,-0.423611149163062,-0.272222225631511,0.0714712366461754,-0.00671951752156019,-0.101098194718361
5,0.979166735492117,-0.377777789951463,-0.233333350148112,0.117896988987923,-0.0345138870179653,-0.113315500319004
5,0.962500032893068,-0.322222236180943,-0.206944452990142,0.141109868884087,-0.0754418596625328,-0.0613919571042061
5,0.955555573476797,-0.286111120152123,-0.20972223675665,0.104457959532738,-0.0558941699564457,-0.0354301854968071
5,0.959722249126559,-0.273611117514765,-0.197222234119292,0.076052725315094,-0.015577063895762,-0.0149661982432008
5,0.958333357243305,-0.279166685047782,-0.19166667874224,0.00885754637420177,-0.011606439948082,-0.0106901414692402
5,0.951388897827035,-0.287500012035377,-0.181944447715425,-0.0290160998702049,-0.0305432621389627,-0.00977384392172098
5,0.944444438410764,-0.288888903918631,-0.200000005729836,-0.0491746515035629,-0.0656680166721344,0.0213802829384804
5,0.947222222177272,-0.294444447139719,-0.200000005729836,-0.0519235469400883,-0.0992656052112579,0.0574213340878487
5,0.944444438410764,-0.320833344297689,-0.227777782615095,-0.0397062413394451,-0.135306656360626,0.0577267669141293
5,0.947222222177272,-0.330555563168539,-0.233333350148112,-0.00519235478714108,-0.134084925055504,0.0632245540618896
5,0.959722249126559,-0.358333352209763,-0.229166674498349,0.0470366254448891,-0.0956004112958908,0.0430659987032413
5,0.968055600426084,-0.369444462963867,-0.250000004123303,0.0671951770782471,-0.0632245540618896,0.0128281703218818
5,0.970833384192592,-0.373611114301701,-0.25555557165632,0.087659165263176,-0.0366519130766392,-0.011606439948082
5,0.968055600426084,-0.365277787314105,-0.247222220356795,0.0992656052112579,0.00885754637420177,-0.0497855171561241
5,0.972222276075846,-0.363888895430851,-0.226388890731841,0.118507854640484,0.0647517144680023,-0.0668897479772568
5,0.972222276075846,-0.336111130701556,-0.2194444556275,0.119118720293045,0.0815505087375641,-0.0824668109416962
5,0.970833384192592,-0.320833344297689,-0.20972223675665,0.117286130785942,0.0797179117798805,-0.0864374339580536
5,0.961111141009813,-0.308333341660331,-0.19166667874224,0.081855945289135,0.0464257597923279,-0.0598647929728031
5,0.941666654644256,-0.294444447139719,-0.200000005729836,0.0549778714776039,0.00366519158706069,-0.02382374368608
5,0.936111184358955,-0.295833339022973,-0.194444450352783,0.0546724386513233,-0.0378736443817616,0.00641408516094089
5,0.95000000594378,-0.320833344297689,-0.193055558469529,0.0708603709936142,-0.04764748737216,0.0219911485910416
5,0.962500032893068,-0.343055565805897,-0.190277786858986,0.0959058403968811,-0.0021380283869803,0.017409659922123
5,0.965277816659576,-0.329166671285285,-0.213888888094483,0.0956004112958908,0.0183259565383196,0.0415388382971287
5,0.955555573476797,-0.305555557893823,-0.20972223675665,0.0858265683054924,0.0204639863222837,0.0500909499824047
5,0.945833330294018,-0.308333341660331,-0.20972223675665,0.0549778714776039,-0.0125227374956012,0.0827722400426865
5,0.941666654644256,-0.319444452414435,-0.2194444556275,0.0354301854968071,-0.0320704244077206,0.0937678143382072
5,0.952777789710289,-0.330555563168539,-0.2194444556275,0.021685715764761,-0.0100792767480016,0.104763388633728
5,0.962500032893068,-0.331944455051793,-0.240277785252453,-0.00610865233466029,0.0537561401724815,0.0959058403968811
5,0.952777789710289,-0.327777779402031,-0.243055569018962,-0.0497855171561241,0.076052725315094,0.087659165263176
5,0.954166681593543,-0.341666673922643,-0.244444460902216,-0.113620936870575,0.00916297826915979,0.0473420582711697
5,0.973611167959101,-0.366666679197359,-0.238888893369199,-0.112704634666443,0.0106901414692402,0.019547687843442
5,0.973611167959101,-0.373611114301701,-0.241666677135707,-0.0888808965682983,0.0901026204228401,-0.0305432621389627
5,0.963888924776322,-0.365277787314105,-0.234722242031366,-0.0623082555830479,0.119118720293045,-0.0714712366461754
5,0.962500032893068,-0.354166676560001,-0.216666671860991,-0.0229074470698834,0.133779495954514,-0.0766635909676552
5,0.969444492309338,-0.343055565805897,-0.215277779977737,0.0021380283869803,0.137139245867729,-0.0797179117798805
5,0.965277816659576,-0.323611128064198,-0.216666671860991,0.0186313893646002,0.182954147458077,-0.0806342139840126
5,0.945833330294018,-0.309722233543585,-0.181944447715425,0.00488692196086049,0.226020142436027,-0.0849102661013603
5,0.947222222177272,-0.295833339022973,-0.176388892338373,-0.000610865245107561,0.173180297017098,-0.0681114718317986
5,0.952777789710289,-0.279166685047782,-0.181944447715425,-0.0403171069920063,0.0998764708638191,-0.00763581553474069
5,0.952777789710289,-0.279166685047782,-0.181944447715425,-0.0705549344420433,0.0959058403968811,0.027488935738802
5,0.906944454810619,-0.286111120152123,-0.186111123365188,-0.0946841165423393,0.0711658000946045,0.0907134860754013
5,0.905555562927365,-0.309722233543585,-0.19166667874224,-0.106595985591412,-0.0259617734700441,0.117286130785942
5,0.905555562927365,-0.309722233543585,-0.19166667874224,-0.110566608607769,-0.117896988987923,0.0824668109416962
5,0.930555616825939,-0.363888895430851,-0.2194444556275,-0.0784961804747581,-0.0928515195846558,0.0265726372599602
5,0.962500032893068,-0.426388884305712,-0.25555557165632,-0.0140499006956816,-0.0485637858510017,-0.0167987942695618
5,0.962500032893068,-0.426388884305712,-0.25555557165632,0.0348193198442459,-0.0503963828086853,-0.0635299831628799
5,0.958333357243305,-0.433333343721983,-0.258333331110899,0.109955742955208,-0.0406225398182869,-0.106901414692402
5,0.979166735492117,-0.423611149163062,-0.269444466176932,0.169820532202721,0.0305432621389627,-0.157603234052658
5,1.00416669214298,-0.409722230330521,-0.24583335278547,0.210748508572578,0.133779495954514,-0.188451930880547
5,1.0125000434425,-0.354166676560001,-0.212499996211229,0.195476874709129,0.171042263507843,-0.16951510310173
5,0.98888888142718,-0.286111120152123,-0.190277786858986,0.144164204597473,0.171958565711975,-0.104152522981167
5,0.959722249126559,-0.240277785252453,-0.156944454596674,0.0610865242779255,0.133474051952362,-0.0552833043038845
5,0.927777833059431,-0.229166674498349,-0.134722233088466,-0.0198531206697226,0.0861319974064827,-0.0021380283869803
5,0.911111130460381,-0.250000004123303,-0.123611110178398,-0.0839939713478088,-0.0232128798961639,0.0568104684352875
5,0.908333346693873,-0.273611117514765,-0.131944449321958,-0.0931569486856461,-0.0968221426010132,0.111482910811901
5,0.933333400592447,-0.288888903918631,-0.156944454596674,-0.0650571510195732,-0.115148097276688,0.133474051952362
5,0.96666670854283,-0.319444452414435,-0.206944452990142,-0.0540615729987621,-0.0708603709936142,0.130114302039146
5,0.99583334084345,-0.376388898068209,-0.272222225631511,-0.0687223374843597,-0.00824668072164059,0.0980438739061356
5,0.99583334084345,-0.376388898068209,-0.272222225631511,-0.0647517144680023,0.0574213340878487,0.0656680166721344
5,0.994444448960196,-0.404166687109433,-0.281944444502361,-0.0604756586253643,0.165544480085373,-0.00183259579353034
5,1.01527782720901,-0.408333338447267,-0.259722222994153,-0.0442877300083637,0.252898216247559,-0.0421497002243996
5,1.00972225967599,-0.377777789951463,-0.236111109602691,-0.0684169083833694,0.307876080274582,-0.0668897479772568
5,0.987499989543926,-0.331944455051793,-0.211111128639904,-0.124005645513535,0.294131606817245,-0.0797179117798805
5,0.973611167959101,-0.316666668647927,-0.193055558469529,-0.141720741987228,0.202196389436722,-0.0800233483314514
5,0.940277860008718,-0.305555557893823,-0.162500009973726,-0.131336033344269,0.110261179506779,-0.03176499158144
5,0.915277806110144,-0.304166666010569,-0.150000007336368,-0.0839939713478088,0.0247400421649218,0.0167987942695618
5,0.887500065692777,-0.312500017310094,-0.154166670830166,-0.0210748501121998,-0.0824668109416962,0.0543670058250427
5,0.887500065692777,-0.338888890156135,-0.163888889701015,0.0500909499824047,-0.0910189226269722,0.0656680166721344
5,0.89722221162784,-0.359722244093018,-0.180555567988136,0.0873537287116051,-0.130419731140137,0.0745255574584007
5,0.902777779160856,-0.365277787314105,-0.188888894975731,0.123394779860973,-0.203418120741844,0.0448985956609249
5,0.94305554652751,-0.387500008822313,-0.213888888094483,0.184481307864189,-0.149661988019943,0.0131336031481624
5,0.976388951725609,-0.398611119576417,-0.229166674498349,0.22724187374115,-0.10567969083786,0.000610865245107561
5,0.975000059842355,-0.398611119576417,-0.243055569018962,0.242818936705589,-0.106290549039841,-0.0219911485910416
5,0.986111194908388,-0.405555578992687,-0.238888893369199,0.276721954345703,-0.078801617026329,-0.0668897479772568
5,1.01666671909226,-0.393055576355329,-0.241666677135707,0.264504641294479,0.0146607663482428,-0.132863193750381
5,1.00972225967599,-0.351388892793493,-0.216666671860991,0.240375474095344,0.120951317250729,-0.149967417120934
5,0.96666670854283,-0.312500017310094,-0.184722231481934,0.191200822591782,0.135306656360626,-0.136222943663597
5,0.930555616825939,-0.273611117514765,-0.144444451959316,0.131946891546249,-0.058643065392971,-0.105374254286289
5,0.933333400592447,-0.268055574293678,-0.148611115453114,0.116980694234371,-0.16890424489975,-0.0552833043038845
5,0.940277860008718,-0.275000009398019,-0.166666673467524,0.100792765617371,-0.18509216606617,-0.0213802829384804
5,0.947222222177272,-0.298611122789481,-0.175000000455119,0.10567969083786,-0.167682513594627,0.0308486949652433
5,0.952777789710289,-0.331944455051793,-0.156944454596674,0.131946891546249,-0.118813291192055,0.0723875313997269
5,0.965277816659576,-0.348611133338914,-0.161111118090472,0.113315500319004,-0.0522289797663689,0.0513126812875271
5,0.976388951725609,-0.348611133338914,-0.176388892338373,0.0781907513737679,-0.000610865245107561,0.0280998013913631
5,0.969444492309338,-0.345833349572405,-0.187500003092477,0.0400116741657257,0.0290160998702049,0.0143553335219622
5,0.975000059842355,-0.347222241455659,-0.18333333959868,0.011606439948082,0.0378736443817616,0.0109955742955208
5,0.976388951725609,-0.344444457689151,-0.19166667874224,-0.0241291765123606,0.0638354197144508,0.0235183127224445
5,0.955555573476797,-0.327777779402031,-0.180555567988136,-0.0598647929728031,0.0494800843298435,0.00366519158706069
5,0.952777789710289,-0.320833344297689,-0.180555567988136,-0.0717766657471657,-0.0021380283869803,0.00733038317412138
5,0.952777789710289,-0.327777779402031,-0.190277786858986,-0.0708603709936142,-0.00122173049021512,0.0152716310694814
5,0.948611114060526,-0.325000019947452,-0.194444450352783,-0.0445931628346443,-0.029626963660121,0.0357356183230877
5,0.947222222177272,-0.325000019947452,-0.193055558469529,-0.0342084541916847,-0.00580321997404099,0.0271835029125214
5,0.952777789710289,-0.323611128064198,-0.19166667874224,-0.0345138870179653,-0.0662788823246956,0.0448985956609249
5,0.955555573476797,-0.320833344297689,-0.195833342236038,-0.0464257597923279,-0.0696386396884918,0.0436768643558025
5,0.962500032893068,-0.322222236180943,-0.205555561106887,-0.0604756586253643,-0.0351247526705265,0.0580321997404099
5,0.977777843608863,-0.343055565805897,-0.195833342236038,-0.0659734457731247,-0.00397062394768,0.0424551330506802
5,0.980555627375371,-0.341666673922643,-0.198611113846581,-0.0852157026529312,0.0189368221908808,0.0397062413394451
5,0.979166735492117,-0.338888890156135,-0.200000005729836,-0.103541657328606,0.0192422550171614,0.0360410511493683
5,0.95000000594378,-0.331944455051793,-0.19166667874224,-0.102625362575054,0.0171042270958424,0.0232128798961639
5,0.95000000594378,-0.33750002258481,-0.193055558469529,-0.104152522981167,0.0161879286170006,0.0198531206697226
5,0.944444438410764,-0.348611133338914,-0.190277786858986,-0.0827722400426865,-0.0161879286170006,0.00183259579353034
5,0.944444438410764,-0.359722244093018,-0.180555567988136,-0.0510072484612465,-0.029626963660121,0.0021380283869803
5,0.954166681593543,-0.365277787314105,-0.190277786858986,-0.00244346098043024,-0.0149661982432008,-0.00855211354792118
5,0.959722249126559,-0.361111135976272,-0.187500003092477,0.0271835029125214,-0.00488692196086049,-0.0186313893646002
5,0.962500032893068,-0.347222241455659,-0.198611113846581,0.0345138870179653,0.0149661982432008,-0.0262672062963247
5,0.969444492309338,-0.333333346935047,-0.193055558469529,0.0204639863222837,0.019547687843442,-0.0320704244077206
5,0.973611167959101,-0.322222236180943,-0.190277786858986,-0.00152716308366507,0.00946841109544039,-0.0167987942695618
5,0.975000059842355,-0.312500017310094,-0.194444450352783,-0.0400116741657257,0.00549778714776039,-0.000610865245107561
5,0.962500032893068,-0.312500017310094,-0.180555567988136,-0.0592539273202419,0.0268780700862408,0.0113010071218014
5,0.95000000594378,-0.326388911830706,-0.181944447715425,-0.0577267669141293,0.00885754637420177,0.00855211354792118
5,0.948611114060526,-0.344444457689151,-0.180555567988136,-0.0531452745199203,-0.011606439948082,0.01588249579072
5,0.955555573476797,-0.348611133338914,-0.193055558469529,-0.0339030213654041,-0.0109955742955208,0.01588249579072
5,0.956944465360051,-0.348611133338914,-0.197222234119292,-0.00549778714776039,0.0219911485910416,-0.00152716308366507
5,0.968055600426084,-0.341666673922643,-0.202777789496344,-0.00824668072164059,0.0360410511493683,-0.0143553335219622
5,0.969444492309338,-0.336111130701556,-0.197222234119292,-0.0241291765123606,0.0558941699564457,-0.0152716310694814
5,0.970833384192592,-0.330555563168539,-0.197222234119292,-0.0299323964864016,0.0665843114256859,-0.0241291765123606
5,0.970833384192592,-0.330555563168539,-0.197222234119292,-0.0503963828086853,0.0937678143382072,-0.0171042270958424
5,0.959722249126559,-0.326388911830706,-0.18333333959868,-0.0439822971820831,0.0897971913218498,-0.0149661982432008
5,0.948611114060526,-0.325000019947452,-0.179166676104882,-0.0543670058250427,0.0546724386513233,-0.00183259579353034
5,0.945833330294018,-0.327777779402031,-0.177777784221628,-0.0580321997404099,0.0271835029125214,-0.00641408516094089
5,0.956944465360051,-0.344444457689151,-0.190277786858986,-0.0452040284872055,0.0387899428606033,-0.00244346098043024
5,0.963888924776322,-0.341666673922643,-0.193055558469529,-0.0284052342176437,0.04764748737216,-0.0021380283869803
5,0.959722249126559,-0.341666673922643,-0.198611113846581,-0.0192422550171614,0.0473420582711697,-0.0021380283869803
5,0.962500032893068,-0.344444457689151,-0.205555561106887,-0.02382374368608,0.04764748737216,-0.0180205255746841
5,0.969444492309338,-0.338888890156135,-0.206944452990142,-0.0378736443817616,0.064446285367012,-0.0219911485910416
5,0.979166735492117,-0.33750002258481,-0.197222234119292,-0.0323758572340012,0.0907134860754013,-0.0259617734700441
5,0.969444492309338,-0.334722238818301,-0.190277786858986,-0.0339030213654041,0.0797179117798805,-0.0219911485910416
5,0.951388897827035,-0.330555563168539,-0.190277786858986,-0.0430659987032413,0.0510072484612465,-0.00427605677396059
5,0.94305554652751,-0.330555563168539,-0.18333333959868,-0.04764748737216,0.027488935738802,-0.00397062394768
5,0.94305554652751,-0.333333346935047,-0.190277786858986,-0.0360410511493683,0.00702495034784079,-0.00580321997404099
5,0.956944465360051,-0.338888890156135,-0.19166667874224,-0.0247400421649218,0.00183259579353034,-0.00794124789535999
5,0.972222276075846,-0.340277782039389,-0.204166669223633,-0.011606439948082,0.0241291765123606,-0.0125227374956012
5,0.976388951725609,-0.343055565805897,-0.193055558469529,-0.0128281703218818,0.0448985956609249,-0.0128281703218818
5,0.963888924776322,-0.344444457689151,-0.194444450352783,-0.0161879286170006,0.0546724386513233,-0.0299323964864016
5,0.973611167959101,-0.343055565805897,-0.172222228844576,-0.00580321997404099,0.0604756586253643,-0.0354301854968071
5,0.98888888142718,-0.327777779402031,-0.176388892338373,-0.0143553335219622,0.0757472887635231,-0.0311541277915239
5,0.986111194908388,-0.302777798439244,-0.170833336961321,-0.0305432621389627,0.107512280344963,-0.00885754637420177
5,0.952777789710289,-0.293055555256465,-0.158333334323963,-0.0558941699564457,0.0714712366461754,0.0363464802503586
5,0.926388941176177,-0.300000014672736,-0.148611115453114,-0.0659734457731247,0.0149661982432008,0.0543670058250427
5,0.922222265526414,-0.326388911830706,-0.166666673467524,-0.0598647929728031,-0.0390953756868839,0.0675006061792374
5,0.922222265526414,-0.351388892793493,-0.180555567988136,-0.0109955742955208,-0.0720821022987366,0.0568104684352875
5,0.930555616825939,-0.361111135976272,-0.202777789496344,0.0134390350431204,-0.11117747426033,0.0616973899304867
5,0.951388897827035,-0.373611114301701,-0.206944452990142,0.0488692186772823,-0.11636982858181,0.0479529201984406
5,0.96666670854283,-0.381944465601225,-0.216666671860991,0.0812450796365738,-0.112399205565453,0.0180205255746841
5,0.984722303025134,-0.370833354847121,-0.220833347510754,0.0934623852372169,-0.0659734457731247,0.0125227374956012
5,0.980555627375371,-0.344444457689151,-0.223611131277262,0.0833831056952477,-0.0464257597923279,0.0122173046693206
5,0.96666670854283,-0.334722238818301,-0.215277779977737,0.0363464802503586,-0.0546724386513233,0.01191187184304
5,0.956944465360051,-0.318055560531181,-0.197222234119292,0.0131336031481624,-0.0329867228865623,0.00580321997404099
5,0.958333357243305,-0.318055560531181,-0.190277786858986,-0.019547687843442,-0.0439822971820831,0.0161879286170006
5,0.959722249126559,-0.309722233543585,-0.172222228844576,-0.0387899428606033,-0.0458148941397667,0.0247400421649218
5,0.959722249126559,-0.309722233543585,-0.17361112072783,-0.0565050356090069,-0.0470366254448891,0.0265726372599602
5,0.955555573476797,-0.320833344297689,-0.175000000455119,-0.0546724386513233,-0.0473420582711697,0.0409279726445675
5,0.941666654644256,-0.338888890156135,-0.176388892338373,-0.0351247526705265,-0.0638354197144508,0.0497855171561241
5,0.948611114060526,-0.359722244093018,-0.190277786858986,-0.00580321997404099,-0.0739146918058395,0.0452040284872055
5,0.956944465360051,-0.368055571080613,-0.204166669223633,0.0192422550171614,-0.0687223374843597,0.0320704244077206
5,0.958333357243305,-0.365277787314105,-0.212499996211229,0.0357356183230877,-0.0781907513737679,0.00305432616733015
5,0.952777789710289,-0.358333352209763,-0.2194444556275,0.0339030213654041,-0.0742201283574104,-0.00794124789535999
5,0.952777789710289,-0.351388892793493,-0.216666671860991,0.0461203269660473,-0.0809396430850029,-0.0103847095742822
5,0.954166681593543,-0.344444457689151,-0.206944452990142,0.0332921557128429,-0.0836885422468185,-0.00916297826915979
5,0.95000000594378,-0.322222236180943,-0.200000005729836,0.0189368221908808,-0.0907134860754013,0.00610865233466029
5,0.956944465360051,-0.319444452414435,-0.193055558469529,0.0125227374956012,-0.102930791676045,0.0146607663482428
5,0.961111141009813,-0.322222236180943,-0.205555561106887,0.017409659922123,-0.0891863256692886,0.0186313893646002
5,0.972222276075846,-0.326388911830706,-0.200000005729836,0.00488692196086049,-0.0690277740359306,0.0183259565383196
5,0.969444492309338,-0.327777779402031,-0.206944452990142,-0.0140499006956816,-0.0360410511493683,0.0143553335219622
5,0.962500032893068,-0.329166671285285,-0.2194444556275,-0.0311541277915239,-0.00671951752156019,0.00763581553474069
5,0.955555573476797,-0.338888890156135,-0.20972223675665,-0.0473420582711697,-0.00305432616733015,0.0100792767480016
5,0.951388897827035,-0.350000000910239,-0.213888888094483,-0.0372627787292004,0.00885754637420177,0.000305432622553781
5,0.956944465360051,-0.358333352209763,-0.206944452990142,-0.0280998013913631,0.0122173046693206,-0.00855211354792118
5,0.961111141009813,-0.355555568443255,-0.208333344873396,-0.0265726372599602,0.0366519130766392,-0.0210748501121998
5,0.968055600426084,-0.344444457689151,-0.213888888094483,-0.0183259565383196,0.0482583530247212,-0.0177150927484035
5,0.961111141009813,-0.330555563168539,-0.215277779977737,-0.0125227374956012,0.0507018156349659,-0.00488692196086049
5,0.951388897827035,-0.327777779402031,-0.20138889761309,-0.0189368221908808,0.0598647929728031,0.00366519158706069
5,0.945833330294018,-0.33750002258481,-0.206944452990142,-0.0171042270958424,0.0329867228865623,0.013744467869401
5,0.94305554652751,-0.341666673922643,-0.198611113846581,-0.0390953756868839,0.0164933614432812,0.015577063895762
5,0.951388897827035,-0.351388892793493,-0.212499996211229,-0.0271835029125214,-0.0027488935738802,0.00763581553474069
5,0.956944465360051,-0.351388892793493,-0.212499996211229,-0.0125227374956012,0.0210748501121998,0.017409659922123
5,0.956944465360051,-0.359722244093018,-0.198611113846581,-0.0106901414692402,0.0213802829384804,0.01191187184304
5,0.95000000594378,-0.363888895430851,-0.194444450352783,0.0033597587607801,0.00641408516094089,0.0161879286170006
5,0.944444438410764,-0.362500003547597,-0.208333344873396,0.0143553335219622,0.00488692196086049,0.0146607663482428
5,0.944444438410764,-0.362500003547597,-0.208333344873396,-0.00152716308366507,-0.011606439948082,-0.013744467869401
5,0.95000000594378,-0.358333352209763,-0.200000005729836,-0.00671951752156019,-0.00244346098043024,-0.029626963660121
5,0.95000000594378,-0.362500003547597,-0.198611113846581,0.0113010071218014,-0.0033597587607801,-0.0455094613134861
5,0.95000000594378,-0.362500003547597,-0.198611113846581,0.00977384392172098,-0.00671951752156019,-0.0623082555830479
5,0.95000000594378,-0.344444457689151,-0.206944452990142,-0.00733038317412138,0.00824668072164059,-0.0400116741657257
5,0.947222222177272,-0.334722238818301,-0.205555561106887,-0.019547687843442,-0.00885754637420177,-0.0335975885391235
5,0.947222222177272,-0.334722238818301,-0.205555561106887,-0.0305432621389627,-0.0332921557128429,-0.0241291765123606
5,0.95000000594378,-0.340277782039389,-0.208333344873396,-0.03176499158144,-0.0250454749912024,-0.0253509078174829
5,0.954166681593543,-0.334722238818301,-0.212499996211229,-0.0271835029125214,-0.0354301854968071,-0.017409659922123
5,0.959722249126559,-0.331944455051793,-0.212499996211229,-0.0397062413394451,-0.0381790772080422,-0.011606439948082
5,0.965277816659576,-0.326388911830706,-0.2194444556275,-0.0571159012615681,-0.0491746515035629,0.0113010071218014
5,0.959722249126559,-0.325000019947452,-0.206944452990142,-0.0784961804747581,-0.0308486949652433,0.0167987942695618
5,0.962500032893068,-0.322222236180943,-0.216666671860991,-0.105068825185299,-0.0284052342176437,0.01588249579072
5,0.95000000594378,-0.327777779402031,-0.218055563744246,-0.114842668175697,-0.015577063895762,0.0134390350431204
5,0.947222222177272,-0.327777779402031,-0.222222239394008,-0.105068825185299,-0.019547687843442,0.027488935738802
5,0.952777789710289,-0.331944455051793,-0.213888888094483,-0.0800233483314514,-0.0250454749912024,0.0311541277915239
5,0.956944465360051,-0.334722238818301,-0.234722242031366,-0.0684169083833694,-0.0287106670439243,0.0247400421649218
5,0.955555573476797,-0.340277782039389,-0.230555566381603,-0.0485637858510017,-0.0256563406437635,0.0271835029125214
5,0.954166681593543,-0.348611133338914,-0.234722242031366,-0.0189368221908808,-0.00916297826915979,0.0262672062963247
5,0.948611114060526,-0.338888890156135,-0.224999998848587,-0.00580321997404099,-0.00427605677396059,0.0222965814173222
5,0.948611114060526,-0.33750002258481,-0.223611131277262,-0.00152716308366507,-0.0021380283869803,0.00427605677396059
5,0.956944465360051,-0.331944455051793,-0.229166674498349,0.00244346098043024,0.0113010071218014,0.000610865245107561
5,0.956944465360051,-0.330555563168539,-0.226388890731841,-0.00671951752156019,0.00946841109544039,0.00305432616733015
5,0.962500032893068,-0.322222236180943,-0.213888888094483,-0.0247400421649218,0.00763581553474069,0.0125227374956012
5,0.959722249126559,-0.308333341660331,-0.2194444556275,-0.027488935738802,0.0125227374956012,0.0222965814173222
5,0.959722249126559,-0.311111125426839,-0.2194444556275,-0.0305432621389627,0.0323758572340012,0.0207694191485643
5,0.962500032893068,-0.318055560531181,-0.204166669223633,-0.0409279726445675,0.0546724386513233,0.0287106670439243
5,0.962500032893068,-0.323611128064198,-0.216666671860991,-0.0381790772080422,0.0607810914516449,0.01191187184304
5,0.965277816659576,-0.334722238818301,-0.211111128639904,-0.0372627787292004,0.0830776765942574,0.0152716310694814
5,0.969444492309338,-0.330555563168539,-0.204166669223633,-0.037568211555481,0.107512280344963,0.0149661982432008
5,0.969444492309338,-0.323611128064198,-0.20972223675665,-0.0467311926186085,0.124005645513535,0.00794124789535999
5,0.969444492309338,-0.319444452414435,-0.211111128639904,-0.0592539273202419,0.120035022497177,0.0045814891345799
5,0.963888924776322,-0.322222236180943,-0.208333344873396,-0.0745255574584007,0.101098194718361,0.0021380283869803
5,0.96666670854283,-0.322222236180943,-0.216666671860991,-0.0751364231109619,0.098960168659687,0.00122173049021512
5,0.968055600426084,-0.322222236180943,-0.20972223675665,-0.0800233483314514,0.109344877302647,0.00733038317412138
5,0.962500032893068,-0.323611128064198,-0.204166669223633,-0.0858265683054924,0.123394779860973,0.0180205255746841
5,0.952777789710289,-0.325000019947452,-0.195833342236038,-0.0891863256692886,0.12675453722477,0.0131336031481624
5,0.954166681593543,-0.327777779402031,-0.205555561106887,-0.0815505087375641,0.107817716896534,0.0171042270958424
5,0.958333357243305,-0.336111130701556,-0.212499996211229,-0.0781907513737679,0.0946841165423393,0.0146607663482428
5,0.959722249126559,-0.348611133338914,-0.222222239394008,-0.0723875313997269,0.0754418596625328,0.000610865245107561
5,0.952777789710289,-0.352777784676747,-0.224999998848587,-0.0595593601465225,0.0687223374843597,-0.00152716308366507
5,0.961111141009813,-0.351388892793493,-0.223611131277262,-0.0464257597923279,0.0653625801205635,-0.00702495034784079
5,0.961111141009813,-0.356944460326509,-0.223611131277262,-0.0287106670439243,0.0965167060494423,-0.0140499006956816
5,0.956944465360051,-0.355555568443255,-0.229166674498349,-0.0409279726445675,0.087659165263176,-0.019547687843442
5,0.947222222177272,-0.361111135976272,-0.231944458264858,-0.0378736443817616,0.00763581553474069,-0.0268780700862408
5,0.947222222177272,-0.363888895430851,-0.231944458264858,-0.0332921557128429,-0.0045814891345799,-0.0390953756868839
5,0.952777789710289,-0.372222246730376,-0.230555566381603,-0.0167987942695618,-0.00366519158706069,-0.0345138870179653
5,0.954166681593543,-0.380555573717971,-0.250000004123303,-0.00183259579353034,-0.00794124789535999,-0.0314595587551594
5,0.951388897827035,-0.373611114301701,-0.256944463539574,0.0171042270958424,-0.0232128798961639,-0.0265726372599602
5,0.947222222177272,-0.369444462963867,-0.238888893369199,0.0335975885391235,0.0113010071218014,-0.0412334054708481
5,0.940277860008718,-0.363888895430851,-0.230555566381603,0.0601702257990837,0.0381790772080422,-0.0418442711234093
5,0.940277860008718,-0.372222246730376,-0.2194444556275,0.0616973899304867,0.0394008085131645,-0.0433714315295219
5,0.919444481759906,-0.355555568443255,-0.226388890731841,0.0488692186772823,-0.0146607663482428,-0.00305432616733015
5,0.905555562927365,-0.331944455051793,-0.2194444556275,0.0348193198442459,-0.0198531206697226,0.00519235478714108
5,0.898611103511094,-0.327777779402031,-0.220833347510754,0.0369573459029198,-0.0323758572340012,0.0103847095742822
5,0.902777779160856,-0.331944455051793,-0.2194444556275,0.0198531206697226,-0.02382374368608,0.0143553335219622
5,0.916666697993398,-0.340277782039389,-0.212499996211229,-0.000305432622553781,-0.0106901414692402,0.0620028227567673
5,0.931944508709193,-0.330555563168539,-0.223611131277262,-0.0122173046693206,-0.0577267669141293,0.0812450796365738
5,0.927777833059431,-0.325000019947452,-0.230555566381603,-0.00702495034784079,-0.0699440687894821,0.0849102661013603
5,0.927777833059431,-0.33750002258481,-0.2194444556275,0.0192422550171614,-0.078801617026329,0.0806342139840126
5,0.947222222177272,-0.354166676560001,-0.222222239394008,0.0397062413394451,-0.103847093880177,0.0711658000946045
5,0.956944465360051,-0.348611133338914,-0.220833347510754,0.037568211555481,-0.0516181141138077,0.0641408488154411
5,0.95000000594378,-0.338888890156135,-0.229166674498349,0.0271835029125214,-0.0293215326964855,0.0616973899304867
5,0.95000000594378,-0.340277782039389,-0.223611131277262,0.00610865233466029,-0.0326812900602817,0.0271835029125214
5,0.973611167959101,-0.361111135976272,-0.20972223675665,-0.00152716308366507,-0.0452040284872055,-0.0152716310694814
5,0.993055557076942,-0.366666679197359,-0.218055563744246,0.0149661982432008,-0.0561996027827263,-0.0424551330506802
5,0.980555627375371,-0.355555568443255,-0.202777789496344,0.0400116741657257,-0.0723875313997269,-0.0439822971820831
5,0.956944465360051,-0.350000000910239,-0.20972223675665,0.0803287774324417,-0.0980438739061356,-0.0326812900602817
5,0.95000000594378,-0.354166676560001,-0.2194444556275,0.107206851243973,-0.117896988987923,-0.0280998013913631
5,0.956944465360051,-0.375000006184955,-0.238888893369199,0.128281697630882,-0.0974330082535744,-0.0473420582711697
5,0.962500032893068,-0.379166681834717,-0.236111109602691,0.160352125763893,-0.0629191175103188,-0.0632245540618896
5,0.962500032893068,-0.366666679197359,-0.227777782615095,0.172263994812965,-0.0284052342176437,-0.0754418596625328
5,0.96666670854283,-0.325000019947452,-0.213888888094483,0.167071640491486,-0.0305432621389627,-0.0766635909676552
5,0.965277816659576,-0.319444452414435,-0.206944452990142,0.148745685815811,-0.0305432621389627,-0.0751364231109619
5,0.970833384192592,-0.319444452414435,-0.206944452990142,0.131946891546249,-0.0354301854968071,-0.0488692186772823
5,0.956944465360051,-0.327777779402031,-0.215277779977737,0.111788339912891,-0.0345138870179653,-0.0378736443817616
5,0.948611114060526,-0.333333346935047,-0.216666671860991,0.102319926023483,-0.0235183127224445,-0.0339030213654041
5,0.947222222177272,-0.343055565805897,-0.20972223675665,0.103236228227615,-0.0161879286170006,-0.0293215326964855
5,0.94305554652751,-0.341666673922643,-0.2194444556275,0.0864374339580536,-0.0207694191485643,-0.0268780700862408
5,0.94305554652751,-0.341666673922643,-0.212499996211229,0.0653625801205635,-0.0421497002243996,-0.0180205255746841
5,0.956944465360051,-0.33750002258481,-0.200000005729836,0.0558941699564457,-0.0629191175103188,-0.00488692196086049
5,0.963888924776322,-0.334722238818301,-0.204166669223633,0.0519235469400883,-0.0736092627048492,0.0189368221908808
5,0.955555573476797,-0.323611128064198,-0.20972223675665,0.0519235469400883,-0.0925460830330849,0.0479529201984406
5,0.954166681593543,-0.322222236180943,-0.212499996211229,0.0293215326964855,-0.096211276948452,0.0583376325666905
5,0.952777789710289,-0.327777779402031,-0.216666671860991,0.0271835029125214,-0.0736092627048492,0.0409279726445675
5,0.962500032893068,-0.331944455051793,-0.20972223675665,0.019547687843442,-0.0500909499824047,0.0143553335219622
5,0.969444492309338,-0.33750002258481,-0.206944452990142,0.0125227374956012,-0.01191187184304,-0.0103847095742822
5,0.983333411141879,-0.33750002258481,-0.215277779977737,0.0109955742955208,0.03176499158144,-0.0207694191485643
5,0.976388951725609,-0.347222241455659,-0.211111128639904,0.0128281703218818,0.0739146918058395,-0.0299323964864016
5,0.976388951725609,-0.347222241455659,-0.211111128639904,0.0180205255746841,0.0870482996106148,-0.0470366254448891
5,0.96666670854283,-0.334722238818301,-0.204166669223633,0.0213802829384804,0.0815505087375641,-0.0534507073462009
5,0.958333357243305,-0.331944455051793,-0.200000005729836,0.0140499006956816,0.0971275717020035,-0.0693332031369209
5,0.958333357243305,-0.331944455051793,-0.200000005729836,0.0167987942695618,0.0809396430850029,-0.0439822971820831
5,0.952777789710289,-0.322222236180943,-0.202777789496344,0.02382374368608,0.0726929605007172,-0.0372627787292004
5,0.945833330294018,-0.336111130701556,-0.195833342236038,0.0164933614432812,0.0549778714776039,-0.0354301854968071
5,0.945833330294018,-0.336111130701556,-0.195833342236038,0.017409659922123,0.0568104684352875,-0.0390953756868839
5,0.952777789710289,-0.341666673922643,-0.187500003092477,0.015577063895762,0.0580321997404099,-0.0369573459029198
5,0.955555573476797,-0.341666673922643,-0.212499996211229,0.0167987942695618,0.0616973899304867,-0.0436768643558025
5,0.955555573476797,-0.341666673922643,-0.212499996211229,0.01588249579072,0.0558941699564457,-0.03176499158144
5,0.947222222177272,-0.348611133338914,-0.212499996211229,0.0183259565383196,0.0167987942695618,-0.0222965814173222
5,0.93750007624221,-0.344444457689151,-0.213888888094483,0.0143553335219622,-0.01191187184304,-0.0146607663482428
5,0.945833330294018,-0.340277782039389,-0.211111128639904,-0.000610865245107561,-0.0406225398182869,0.00610865233466029
5,0.94305554652751,-0.318055560531181,-0.180555567988136,-0.0106901414692402,-0.104763388633728,0.0711658000946045
5,0.94305554652751,-0.297222230906227,-0.184722231481934,-0.0305432621389627,-0.137750118970871,0.129197999835014
5,0.95000000594378,-0.290277795801886,-0.180555567988136,-0.0265726372599602,-0.131641462445259,0.149051114916802
5,0.969444492309338,-0.318055560531181,-0.198611113846581,-0.0226020142436027,-0.0864374339580536,0.131336033344269
5,0.96666670854283,-0.333333346935047,-0.204166669223633,-0.0439822971820831,-0.0513126812875271,0.0803287774324417
5,0.959722249126559,-0.341666673922643,-0.204166669223633,-0.05283984541893,-0.0439822971820831,0.0571159012615681
5,0.969444492309338,-0.345833349572405,-0.20972223675665,-0.0442877300083637,-0.0390953756868839,0.0500909499824047
5,0.973611167959101,-0.352777784676747,-0.218055563744246,-0.0171042270958424,0.0033597587607801,0.0235183127224445
5,0.976388951725609,-0.356944460326509,-0.230555566381603,0.00122173049021512,0.0326812900602817,0.00885754637420177
5,0.976388951725609,-0.363888895430851,-0.243055569018962,0.0186313893646002,0.0626136884093285,-0.0280998013913631
5,0.969444492309338,-0.375000006184955,-0.223611131277262,0.0390953756868839,0.0901026204228401,-0.058643065392971
5,0.969444492309338,-0.373611114301701,-0.222222239394008,0.0525344125926495,0.124005645513535,-0.090408056974411
5,0.962500032893068,-0.351388892793493,-0.212499996211229,0.0534507073462009,0.141720741987228,-0.0934623852372169
5,0.96666670854283,-0.336111130701556,-0.2194444556275,0.0436768643558025,0.177150920033455,-0.0925460830330849
5,0.955555573476797,-0.319444452414435,-0.218055563744246,0.0204639863222837,0.184481307864189,-0.0968221426010132
5,0.955555573476797,-0.323611128064198,-0.215277779977737,0.0219911485910416,0.189368233084679,-0.118507854640484
5,0.95000000594378,-0.340277782039389,-0.200000005729836,0.0348193198442459,0.182954147458077,-0.141415297985077
5,0.93750007624221,-0.344444457689151,-0.184722231481934,0.0323758572340012,0.125227376818657,-0.129503428936005
5,0.933333400592447,-0.323611128064198,-0.190277786858986,0.0357356183230877,0.0827722400426865,-0.0757472887635231
5,0.93750007624221,-0.297222230906227,-0.190277786858986,0.0222965814173222,0.0589484944939613,-0.0455094613134861
5,0.952777789710289,-0.304166666010569,-0.197222234119292,0.00824668072164059,0.0604756586253643,-0.00733038317412138
5,0.951388897827035,-0.315277801076602,-0.190277786858986,-0.0183259565383196,0.0458148941397667,0.000916297896765172
5,0.958333357243305,-0.329166671285285,-0.188888894975731,-0.0167987942695618,0.0653625801205635,-0.0128281703218818
5,0.958333357243305,-0.331944455051793,-0.186111123365188,-0.0106901414692402,0.058643065392971,-0.015577063895762
5,0.948611114060526,-0.319444452414435,-0.179166676104882,-0.0287106670439243,0.0271835029125214,-0.0164933614432812
5,0.954166681593543,-0.315277801076602,-0.184722231481934,-0.0549778714776039,-0.00366519158706069,0.00794124789535999
5,0.959722249126559,-0.320833344297689,-0.186111123365188,-0.0668897479772568,-0.00580321997404099,0.0226020142436027
5,0.962500032893068,-0.334722238818301,-0.187500003092477,-0.0525344125926495,0.017409659922123,0.0314595587551594
5,0.959722249126559,-0.343055565805897,-0.190277786858986,-0.0448985956609249,0.0326812900602817,0.0222965814173222
5,0.954166681593543,-0.344444457689151,-0.195833342236038,-0.0482583530247212,0.0265726372599602,0.0152716310694814
5,0.948611114060526,-0.336111130701556,-0.18333333959868,-0.0510072484612465,0.0164933614432812,0.0100792767480016
5,0.951388897827035,-0.333333346935047,-0.193055558469529,-0.0561996027827263,0.00824668072164059,0.0143553335219622
5,0.948611114060526,-0.331944455051793,-0.188888894975731,-0.03176499158144,0.0021380283869803,0.0427605658769607
5,0.940277860008718,-0.334722238818301,-0.202777789496344,-0.0229074470698834,-0.027488935738802,0.0571159012615681
5,0.938888968125464,-0.344444457689151,-0.205555561106887,-0.00641408516094089,-0.0549778714776039,0.0775798857212067
5,0.93750007624221,-0.352777784676747,-0.202777789496344,0.00733038317412138,-0.0769690200686455,0.0681114718317986
5,0.948611114060526,-0.361111135976272,-0.223611131277262,0.0204639863222837,-0.105374254286289,0.0488692186772823
5,0.965277816659576,-0.375000006184955,-0.224999998848587,0.0464257597923279,-0.0928515195846558,0.0256563406437635
5,0.973611167959101,-0.377777789951463,-0.223611131277262,0.0671951770782471,-0.0412334054708481,0.00366519158706069
5,0.976388951725609,-0.372222246730376,-0.222222239394008,0.0852157026529312,-0.0229074470698834,-0.0390953756868839
5,0.973611167959101,-0.352777784676747,-0.218055563744246,0.0931569486856461,-0.00183259579353034,-0.0589484944939613
5,0.977777843608863,-0.334722238818301,-0.212499996211229,0.0791070461273193,0.0113010071218014,-0.0629191175103188
5,0.983333411141879,-0.334722238818301,-0.193055558469529,0.0769690200686455,0.0458148941397667,-0.0934623852372169
5,0.96666670854283,-0.327777779402031,-0.172222228844576,0.0827722400426865,0.0507018156349659,-0.102625362575054
5,0.945833330294018,-0.308333341660331,-0.156944454596674,0.0791070461273193,0.0277943685650826,-0.0928515195846558
5,0.948611114060526,-0.301388906555989,-0.163888889701015,0.0797179117798805,0.01191187184304,-0.0678060427308083
5,0.947222222177272,-0.304166666010569,-0.166666673467524,0.0684169083833694,-0.0027488935738802,-0.0305432621389627
5,0.959722249126559,-0.308333341660331,-0.17361112072783,0.05283984541893,-0.0219911485910416,-0.0143553335219622
5,0.969444492309338,-0.323611128064198,-0.179166676104882,0.0381790772080422,-0.0232128798961639,0.00427605677396059
5,0.96666670854283,-0.338888890156135,-0.186111123365188,0.0329867228865623,-0.0204639863222837,0.00794124789535999
5,0.96666670854283,-0.338888890156135,-0.186111123365188,0.0329867228865623,-0.0235183127224445,0.00305432616733015
5,0.958333357243305,-0.340277782039389,-0.19166667874224,0.0213802829384804,-0.0400116741657257,-0.00427605677396059
5,0.961111141009813,-0.33750002258481,-0.194444450352783,0.0290160998702049,-0.0455094613134861,0.00397062394768
5,0.961111141009813,-0.33750002258481,-0.194444450352783,0.0235183127224445,-0.0314595587551594,0.00641408516094089
5,0.963888924776322,-0.331944455051793,-0.206944452990142,0.0113010071218014,-0.0235183127224445,0.0186313893646002
5,0.961111141009813,-0.327777779402031,-0.202777789496344,0.0021380283869803,-0.0152716310694814,0.01588249579072
5,0.961111141009813,-0.327777779402031,-0.202777789496344,-0.0219911485910416,-0.0342084541916847,0.01191187184304
5,0.955555573476797,-0.320833344297689,-0.194444450352783,-0.0348193198442459,-0.0345138870179653,0.0113010071218014
5,0.961111141009813,-0.325000019947452,-0.195833342236038,-0.0390953756868839,-0.0308486949652433,0.0122173046693206
5,0.961111141009813,-0.325000019947452,-0.195833342236038,-0.0421497002243996,-0.0284052342176437,0.0122173046693206
5,0.959722249126559,-0.330555563168539,-0.194444450352783,-0.0335975885391235,-0.0464257597923279,0.0198531206697226
5,0.962500032893068,-0.334722238818301,-0.197222234119292,-0.0250454749912024,-0.0366519130766392,0.0241291765123606
5,0.962500032893068,-0.334722238818301,-0.197222234119292,-0.0033597587607801,-0.00397062394768,0.0103847095742822
5,0.96666670854283,-0.333333346935047,-0.200000005729836,0.0021380283869803,-0.00580321997404099,0.00427605677396059
5,0.962500032893068,-0.331944455051793,-0.202777789496344,0.00397062394768,-0.00549778714776039,-0.0134390350431204
5,0.968055600426084,-0.331944455051793,-0.202777789496344,0.00641408516094089,0.01191187184304,-0.015577063895762
5,0.969444492309338,-0.331944455051793,-0.197222234119292,-0.000305432622553781,0.0311541277915239,-0.0253509078174829
5,0.973611167959101,-0.333333346935047,-0.198611113846581,-0.00763581553474069,0.0577267669141293,-0.00824668072164059
5,0.973611167959101,-0.333333346935047,-0.198611113846581,-0.0229074470698834,0.0684169083833694,-0.0106901414692402
5,0.968055600426084,-0.309722233543585,-0.20138889761309,-0.04764748737216,0.0870482996106148,-0.00305432616733015
5,0.963888924776322,-0.305555557893823,-0.20138889761309,-0.0720821022987366,0.0867428630590439,-0.00946841109544039
5,0.952777789710289,-0.313888909193348,-0.198611113846581,-0.0842994004487991,0.0733038261532784,-0.00580321997404099
5,0.954166681593543,-0.325000019947452,-0.198611113846581,-0.0855211317539215,0.0491746515035629,0.00824668072164059
5,0.95000000594378,-0.326388911830706,-0.200000005729836,-0.0815505087375641,0.0421497002243996,0.00671951752156019
5,0.958333357243305,-0.334722238818301,-0.205555561106887,-0.0687223374843597,0.0522289797663689,-0.0103847095742822
5,0.962500032893068,-0.350000000910239,-0.206944452990142,-0.0568104684352875,0.0580321997404099,-0.0354301854968071
5,0.963888924776322,-0.354166676560001,-0.206944452990142,-0.0213802829384804,0.0610865242779255,-0.0366519130766392
5,0.956944465360051,-0.355555568443255,-0.198611113846581,0.0152716310694814,0.0427605658769607,-0.0339030213654041
5,0.94305554652751,-0.347222241455659,-0.216666671860991,0.0357356183230877,0.0360410511493683,-0.0387899428606033
5,0.948611114060526,-0.33750002258481,-0.204166669223633,0.0470366254448891,0.0268780700862408,-0.0418442711234093
5,0.956944465360051,-0.327777779402031,-0.197222234119292,0.0479529201984406,0.027488935738802,-0.0491746515035629
5,0.96666670854283,-0.320833344297689,-0.19166667874224,0.0464257597923279,0.0305432621389627,-0.0335975885391235
5,0.96666670854283,-0.313888909193348,-0.195833342236038,0.0287106670439243,0.0458148941397667,-0.0360410511493683
5,0.96666670854283,-0.318055560531181,-0.19166667874224,0.0146607663482428,0.0308486949652433,-0.0232128798961639
5,0.958333357243305,-0.318055560531181,-0.175000000455119,0.0021380283869803,0.0198531206697226,-0.0045814891345799
5,0.956944465360051,-0.311111125426839,-0.190277786858986,-0.0100792767480016,-0.00397062394768,-0.000305432622553781
5,0.959722249126559,-0.316666668647927,-0.184722231481934,-0.0131336031481624,0.0027488935738802,0.013744467869401
5,0.962500032893068,-0.319444452414435,-0.180555567988136,-0.0125227374956012,0.00794124789535999,0.0213802829384804
5,0.962500032893068,-0.322222236180943,-0.16527778158427,-0.00977384392172098,0.0180205255746841,0.0284052342176437
5,0.961111141009813,-0.325000019947452,-0.18333333959868,-0.00855211354792118,0.0183259565383196,0.0302378293126821
5,0.958333357243305,-0.331944455051793,-0.197222234119292,-0.0164933614432812,0.0293215326964855,0.0265726372599602
5,0.952777789710289,-0.331944455051793,-0.179166676104882,-0.015577063895762,0.00549778714776039,0.0207694191485643
5,0.95000000594378,-0.334722238818301,-0.190277786858986,-0.00580321997404099,-0.0113010071218014,0.03176499158144
5,0.958333357243305,-0.334722238818301,-0.186111123365188,0.00610865233466029,-0.0250454749912024,0.0332921557128429
5,0.958333357243305,-0.344444457689151,-0.187500003092477,0.0198531206697226,-0.0403171069920063,0.0326812900602817
5,0.95000000594378,-0.347222241455659,-0.190277786858986,0.0381790772080422,-0.0717766657471657,0.0433714315295219
5,0.955555573476797,-0.355555568443255,-0.193055558469529,0.0442877300083637,-0.0775798857212067,0.0235183127224445
5,0.961111141009813,-0.350000000910239,-0.197222234119292,0.0445931628346443,-0.078801617026329,0.0192422550171614
5,0.959722249126559,-0.348611133338914,-0.193055558469529,0.0497855171561241,-0.0635299831628799,0.0143553335219622
5,0.96666670854283,-0.347222241455659,-0.20138889761309,0.0574213340878487,-0.0360410511493683,0.000610865245107561
5,0.968055600426084,-0.341666673922643,-0.180555567988136,0.0537561401724815,-0.0113010071218014,-0.00305432616733015
5,0.956944465360051,-0.323611128064198,-0.187500003092477,0.0311541277915239,-0.0372627787292004,0.0164933614432812
5,0.956944465360051,-0.316666668647927,-0.184722231481934,0.015577063895762,-0.0675006061792374,0.0128281703218818
5,0.962500032893068,-0.325000019947452,-0.180555567988136,0.0146607663482428,-0.0549778714776039,0.01191187184304
5,0.962500032893068,-0.333333346935047,-0.188888894975731,0.0213802829384804,-0.0271835029125214,0.0198531206697226
5,0.958333357243305,-0.334722238818301,-0.195833342236038,0.0186313893646002,-0.0219911485910416,0.013744467869401
5,0.955555573476797,-0.331944455051793,-0.200000005729836,0.0149661982432008,-0.05283984541893,0.0284052342176437
5,0.956944465360051,-0.33750002258481,-0.194444450352783,0.019547687843442,-0.0656680166721344,0.0186313893646002
5,0.959722249126559,-0.338888890156135,-0.200000005729836,0.0329867228865623,-0.0565050356090069,0.0232128798961639
5,0.956944465360051,-0.33750002258481,-0.20972223675665,0.0369573459029198,-0.0513126812875271,0.019547687843442
5,0.956944465360051,-0.33750002258481,-0.202777789496344,0.0482583530247212,-0.0598647929728031,0.01191187184304
5,0.959722249126559,-0.340277782039389,-0.20972223675665,0.0406225398182869,-0.0565050356090069,0.00610865233466029
5,0.961111141009813,-0.336111130701556,-0.202777789496344,0.0308486949652433,-0.0369573459029198,-0.00244346098043024
5,0.959722249126559,-0.333333346935047,-0.204166669223633,0.0354301854968071,-0.0256563406437635,-0.00397062394768
5,0.959722249126559,-0.330555563168539,-0.205555561106887,0.0345138870179653,-0.0256563406437635,0.000916297896765172
5,0.958333357243305,-0.33750002258481,-0.204166669223633,0.0308486949652433,-0.0320704244077206,-0.00549778714776039
5,0.959722249126559,-0.341666673922643,-0.205555561106887,0.0326812900602817,-0.0329867228865623,-0.0033597587607801
5,0.959722249126559,-0.341666673922643,-0.205555561106887,0.0378736443817616,-0.0232128798961639,-0.0128281703218818
5,0.952777789710289,-0.336111130701556,-0.200000005729836,0.0427605658769607,-0.0122173046693206,-0.00916297826915979
5,0.951388897827035,-0.331944455051793,-0.212499996211229,0.0525344125926495,-0.013744467869401,0.000305432622553781
5,0.95000000594378,-0.329166671285285,-0.202777789496344,0.0397062413394451,-0.0256563406437635,0.0045814891345799
5,0.958333357243305,-0.327777779402031,-0.204166669223633,0.0335975885391235,-0.0409279726445675,-0.00397062394768
5,0.958333357243305,-0.331944455051793,-0.206944452990142,0.0287106670439243,-0.0335975885391235,-0.00366519158706069
5,0.959722249126559,-0.333333346935047,-0.206944452990142,0.0308486949652433,-0.0164933614432812,-0.00549778714776039
5,0.958333357243305,-0.334722238818301,-0.195833342236038,0.0293215326964855,-0.0164933614432812,0.000305432622553781
5,0.954166681593543,-0.334722238818301,-0.202777789496344,0.0192422550171614,-0.0198531206697226,0.000916297896765172
5,0.961111141009813,-0.336111130701556,-0.205555561106887,0.0222965814173222,-0.0323758572340012,-0.000305432622553781
5,0.961111141009813,-0.336111130701556,-0.205555561106887,0.0183259565383196,-0.0186313893646002,-0.00946841109544039
5,0.962500032893068,-0.344444457689151,-0.204166669223633,0.0222965814173222,-0.00152716308366507,-0.00519235478714108
5,0.958333357243305,-0.344444457689151,-0.206944452990142,0.021685715764761,0.00305432616733015,-0.0103847095742822
5,0.958333357243305,-0.344444457689151,-0.206944452990142,0.0250454749912024,-0.0027488935738802,-0.00549778714776039
5,0.956944465360051,-0.33750002258481,-0.211111128639904,0.0229074470698834,0.00366519158706069,-0.00916297826915979
5,0.956944465360051,-0.33750002258481,-0.211111128639904,0.0253509078174829,0.0152716310694814,-0.0167987942695618
5,0.958333357243305,-0.33750002258481,-0.212499996211229,0.0235183127224445,0.0143553335219622,-0.0103847095742822
5,0.959722249126559,-0.33750002258481,-0.206944452990142,0.00519235478714108,0.0320704244077206,-0.0167987942695618
5,0.959722249126559,-0.331944455051793,-0.200000005729836,0.00183259579353034,0.0140499006956816,-0.00397062394768
5,0.955555573476797,-0.334722238818301,-0.202777789496344,-0.00397062394768,0.0213802829384804,0.00549778714776039
5,0.954166681593543,-0.338888890156135,-0.200000005729836,-0.0033597587607801,0.0271835029125214,0.011606439948082
5,0.95000000594378,-0.33750002258481,-0.206944452990142,-0.0027488935738802,0.0146607663482428,0.0149661982432008
5,0.956944465360051,-0.344444457689151,-0.211111128639904,-0.011606439948082,0.0134390350431204,0.00671951752156019
5,0.955555573476797,-0.340277782039389,-0.202777789496344,-0.00794124789535999,0.0125227374956012,0.00794124789535999
5,0.961111141009813,-0.344444457689151,-0.202777789496344,-0.0134390350431204,0.0198531206697226,0.01191187184304
5,0.956944465360051,-0.334722238818301,-0.206944452990142,-0.0198531206697226,0.0109955742955208,0.0103847095742822
5,0.951388897827035,-0.341666673922643,-0.20972223675665,-0.0171042270958424,-0.00305432616733015,0.0189368221908808
5,0.952777789710289,-0.341666673922643,-0.216666671860991,-0.00244346098043024,0.00366519158706069,0.00916297826915979
5,0.959722249126559,-0.344444457689151,-0.206944452990142,0.00244346098043024,0.0152716310694814,-0.00427605677396059
5,0.956944465360051,-0.341666673922643,-0.206944452990142,0.00488692196086049,0.0152716310694814,0.000305432622553781
5,0.954166681593543,-0.338888890156135,-0.212499996211229,0.00763581553474069,-0.000610865245107561,0.0027488935738802
5,0.948611114060526,-0.33750002258481,-0.20138889761309,0.0143553335219622,-0.00549778714776039,0.0027488935738802
5,0.947222222177272,-0.331944455051793,-0.208333344873396,0.00916297826915979,-0.00824668072164059,0.00549778714776039
5,0.955555573476797,-0.347222241455659,-0.200000005729836,0.00702495034784079,0.00885754637420177,0.00885754637420177
5,0.956944465360051,-0.33750002258481,-0.195833342236038,-0.011606439948082,-0.00763581553474069,-0.00244346098043024
5,0.956944465360051,-0.33750002258481,-0.197222234119292,-0.00885754637420177,-0.00488692196086049,-0.00122173049021512
5,0.955555573476797,-0.336111130701556,-0.20138889761309,-0.00152716308366507,-0.00733038317412138,-0.00488692196086049
5,0.956944465360051,-0.336111130701556,-0.202777789496344,-0.00397062394768,-0.0045814891345799,0.000916297896765172
5,0.955555573476797,-0.33750002258481,-0.202777789496344,-0.00733038317412138,-0.00763581553474069,0.00122173049021512
5,0.952777789710289,-0.33750002258481,-0.202777789496344,-0.0106901414692402,-0.00702495034784079,0.00366519158706069
5,0.955555573476797,-0.341666673922643,-0.212499996211229,-0.00488692196086049,-0.00244346098043024,-0.00183259579353034
5,0.962500032893068,-0.343055565805897,-0.20972223675665,-0.0027488935738802,0.0128281703218818,-0.00152716308366507
5,0.959722249126559,-0.347222241455659,-0.20138889761309,0.0033597587607801,0.0180205255746841,-0.00397062394768
5,0.958333357243305,-0.348611133338914,-0.202777789496344,0.01191187184304,0.017409659922123,-0.00183259579353034
5,0.956944465360051,-0.343055565805897,-0.200000005729836,0.01191187184304,0.0109955742955208,-0.011606439948082
5,0.956944465360051,-0.343055565805897,-0.195833342236038,0.015577063895762,0.00183259579353034,-0.0027488935738802
5,0.956944465360051,-0.336111130701556,-0.202777789496344,0.01588249579072,0.00763581553474069,-0.0149661982432008
5,0.959722249126559,-0.333333346935047,-0.204166669223633,0.00702495034784079,0.0189368221908808,-0.00824668072164059
5,0.959722249126559,-0.33750002258481,-0.20138889761309,0.00397062394768,0.0232128798961639,-0.00671951752156019
5,0.955555573476797,-0.334722238818301,-0.200000005729836,-0.000610865245107561,0.0262672062963247,-0.00916297826915979
5,0.951388897827035,-0.33750002258481,-0.197222234119292,-0.000916297896765172,0.0290160998702049,-0.00122173049021512
5,0.954166681593543,-0.336111130701556,-0.20138889761309,-0.01191187184304,0.0149661982432008,-0.000916297896765172
5,0.954166681593543,-0.338888890156135,-0.205555561106887,-0.00488692196086049,0.0122173046693206,-0.00183259579353034
5,0.954166681593543,-0.354166676560001,-0.206944452990142,-0.0021380283869803,0.01191187184304,0.0021380283869803
5,0.956944465360051,-0.355555568443255,-0.206944452990142,-0.015577063895762,0.0146607663482428,-0.00305432616733015
5,0.959722249126559,-0.355555568443255,-0.202777789496344,-0.0125227374956012,0.0552833043038845,-0.00610865233466029
5,0.956944465360051,-0.351388892793493,-0.216666671860991,-0.0210748501121998,0.0574213340878487,-0.0241291765123606
5,0.956944465360051,-0.343055565805897,-0.204166669223633,-0.0180205255746841,0.0717766657471657,-0.0232128798961639
5,0.958333357243305,-0.341666673922643,-0.205555561106887,0.00519235478714108,0.0635299831628799,-0.0219911485910416
5,0.95000000594378,-0.334722238818301,-0.197222234119292,0.00397062394768,0.0339030213654041,-0.00610865233466029
5,0.945833330294018,-0.331944455051793,-0.190277786858986,0.00885754637420177,-0.00794124789535999,-0.00427605677396059
5,0.952777789710289,-0.322222236180943,-0.188888894975731,0.00763581553474069,-0.0222965814173222,-0.00305432616733015
5,0.952777789710289,-0.320833344297689,-0.188888894975731,-0.00305432616733015,-0.0265726372599602,0.00671951752156019
5,0.956944465360051,-0.325000019947452,-0.20972223675665,-0.00610865233466029,-0.0314595587551594,0.0143553335219622
5,0.954166681593543,-0.329166671285285,-0.204166669223633,-0.00671951752156019,-0.0244346093386412,0.0131336031481624
5,0.955555573476797,-0.344444457689151,-0.211111128639904,-0.0100792767480016,-0.021685715764761,0.0027488935738802
5,0.959722249126559,-0.345833349572405,-0.20972223675665,-0.0171042270958424,0.0143553335219622,-0.00488692196086049
5,0.958333357243305,-0.343055565805897,-0.213888888094483,-0.0109955742955208,0.0171042270958424,-0.0207694191485643
5,0.955555573476797,-0.33750002258481,-0.208333344873396,-0.00702495034784079,0.0180205255746841,-0.0244346093386412
5,0.956944465360051,-0.338888890156135,-0.200000005729836,0.000610865245107561,0.0122173046693206,-0.0262672062963247
5,0.952777789710289,-0.33750002258481,-0.205555561106887,0.00610865233466029,0.0122173046693206,-0.0164933614432812
5,0.947222222177272,-0.329166671285285,-0.197222234119292,0.0140499006956816,0.00671951752156019,-0.013744467869401
5,0.940277860008718,-0.334722238818301,-0.197222234119292,0.00671951752156019,-0.0164933614432812,-0.0122173046693206
5,0.954166681593543,-0.33750002258481,-0.20138889761309,0.00152716308366507,-0.0354301854968071,0.000610865245107561
5,0.956944465360051,-0.341666673922643,-0.204166669223633,-0.000916297896765172,-0.029626963660121,-0.0021380283869803
5,0.955555573476797,-0.345833349572405,-0.198611113846581,0.0045814891345799,-0.0262672062963247,0.0171042270958424
5,0.951388897827035,-0.345833349572405,-0.200000005729836,0.000916297896765172,-0.0247400421649218,0.017409659922123
5,0.952777789710289,-0.341666673922643,-0.202777789496344,-0.0122173046693206,-0.0378736443817616,0.02382374368608
5,0.956944465360051,-0.334722238818301,-0.194444450352783,-0.0247400421649218,-0.0494800843298435,0.0326812900602817
5,0.955555573476797,-0.347222241455659,-0.20972223675665,-0.0253509078174829,-0.0549778714776039,0.0400116741657257
5,0.962500032893068,-0.344444457689151,-0.212499996211229,-0.0183259565383196,-0.0439822971820831,0.0271835029125214
5,0.962500032893068,-0.345833349572405,-0.212499996211229,-0.0189368221908808,-0.0207694191485643,0.0192422550171614
5,0.955555573476797,-0.344444457689151,-0.211111128639904,-0.00733038317412138,-0.019547687843442,0.0171042270958424
5,0.952777789710289,-0.338888890156135,-0.202777789496344,-0.00549778714776039,-0.0381790772080422,0.00946841109544039
5,0.956944465360051,-0.340277782039389,-0.212499996211229,0.00305432616733015,-0.0467311926186085,0.0131336031481624
5,0.962500032893068,-0.33750002258481,-0.213888888094483,0.0106901414692402,-0.04764748737216,-0.00549778714776039
5,0.955555573476797,-0.336111130701556,-0.206944452990142,0.019547687843442,-0.0467311926186085,0.0021380283869803
5,0.948611114060526,-0.331944455051793,-0.206944452990142,0.0436768643558025,-0.0491746515035629,0.00641408516094089
5,0.951388897827035,-0.341666673922643,-0.197222234119292,0.0439822971820831,-0.037568211555481,0.0134390350431204
5,0.963888924776322,-0.356944460326509,-0.200000005729836,0.0665843114256859,-0.0427605658769607,-0.00397062394768
5,0.96666670854283,-0.351388892793493,-0.206944452990142,0.0809396430850029,-0.0354301854968071,-0.0314595587551594
5,0.951388897827035,-0.334722238818301,-0.216666671860991,0.0531452745199203,-0.0167987942695618,-0.0485637858510017
5,0.951388897827035,-0.334722238818301,-0.216666671860991,0.0226020142436027,-0.0143553335219622,-0.0390953756868839
5,0.962500032893068,-0.316666668647927,-0.227777782615095,-0.000305432622553781,-0.0241291765123606,-0.0345138870179653
5,0.962500032893068,-0.316666668647927,-0.227777782615095,0.0021380283869803,-0.00549778714776039,-0.0565050356090069
5,0.973611167959101,-0.334722238818301,-0.211111128639904,0.0189368221908808,0.0455094613134861,-0.0598647929728031
5,0.973611167959101,-0.33750002258481,-0.212499996211229,0.0277943685650826,0.0742201283574104,-0.0464257597923279
5,0.954166681593543,-0.326388911830706,-0.195833342236038,0.0339030213654041,0.00763581553474069,-0.0314595587551594
5,0.945833330294018,-0.326388911830706,-0.197222234119292,0.0381790772080422,0.00244346098043024,-0.0284052342176437
5,0.954166681593543,-0.333333346935047,-0.200000005729836,0.05283984541893,0.00916297826915979,-0.0363464802503586
5,0.959722249126559,-0.331944455051793,-0.206944452990142,0.058643065392971,0.0207694191485643,-0.0271835029125214
