Activity,acc_x,acc_y,acc_z,gyro_x,gyro_y,gyro_z
0,0.401388903342925,-0.0194444453391775,0.912500022343635,0.0354301854968071,0.0348193198442459,-0.0736092627048492
0,0.387500008822313,-0.0138888899621255,0.916666697993398,0.0229074470698834,-0.011606439948082,-0.0638354197144508
0,0.381944465601225,-0.0152777788063885,0.906944454810619,-0.0161879286170006,-0.0256563406437635,-0.0369573459029198
0,0.380555573717971,-0.0180555564949145,0.923611157409668,-0.0210748501121998,-0.0244346093386412,-0.0299323964864016
0,0.386111116939059,-0.0152777788063885,0.933333400592447,-0.00580321997404099,-0.00671951752156019,-0.0348193198442459
0,0.388888900705567,-0.0125000003581147,0.936111184358955,0.0122173046693206,-0.0183259565383196,-0.0433714315295219
0,0.390277792588821,-0.0180555564949145,0.930555616825939,-0.00183259579353034,-0.0574213340878487,-0.00519235478714108
0,0.390277792588821,-0.0166666676506515,0.922222265526414,-0.0381790772080422,-0.10048733651638,-0.000916297896765172
0,0.388888900705567,-0.00972222266958873,0.933333400592447,-0.0140499006956816,0.00794124789535999,-0.00824668072164059
0,0.388888900705567,-0.00972222266958873,0.933333400592447,-0.0171042270958424,0.0146607663482428,-0.00580321997404099
0,0.390277792588821,-0.0152777788063885,0.923611157409668,-0.0265726372599602,-0.0345138870179653,0.0122173046693206
0,0.398611119576417,-0.0166666676506515,0.922222265526414,-0.0433714315295219,-0.0671951770782471,0.017409659922123
0,0.402777795226179,-0.0222222230277034,0.930555616825939,-0.0345138870179653,-0.0549778714776039,0.0232128798961639
0,0.398611119576417,-0.0194444453391775,0.936111184358955,-0.0149661982432008,-0.0360410511493683,0.00305432616733015
0,0.409722230330521,-0.0250000007162294,0.930555616825939,0.0268780700862408,-0.0113010071218014,0.00122173049021512
0,0.405555578992687,-0.0250000007162294,0.922222265526414,0.0635299831628799,-0.0448985956609249,0.0140499006956816
0,0.390277792588821,-0.0166666676506515,0.922222265526414,0.0965167060494423,-0.115453533828259,0.0329867228865623
0,0.397222227693163,-0.0152777788063885,0.926388941176177,0.0711658000946045,-0.0867428630590439,0.0201585534960032
0,0.404166687109433,-0.00833333382532574,0.923611157409668,0.0280998013913631,-0.0561996027827263,0.017409659922123
0,0.411111122213775,-0.0125000003581147,0.923611157409668,-0.0164933614432812,0.00763581553474069,-0.00763581553474069
0,0.415277797863537,-0.0194444453391775,0.92083337364316,0.00733038317412138,0.0207694191485643,-0.0113010071218014
0,0.412500014097029,-0.0222222230277034,0.930555616825939,0.05283984541893,0.0161879286170006,-0.00580321997404099
0,0.398611119576417,-0.0194444453391775,0.926388941176177,0.0409279726445675,-0.0406225398182869,0.00427605677396059
0,0.400000011459671,-0.030555557612777,0.926388941176177,-0.00580321997404099,-0.027488935738802,-0.000305432622553781
0,0.393055576355329,-0.026388891079988,0.926388941176177,-0.0103847095742822,0.0397062413394451,0.000610865245107561
0,0.390277792588821,-0.026388891079988,0.922222265526414,-0.0210748501121998,-0.0250454749912024,0.021685715764761
0,0.398611119576417,-0.027777779924251,0.927777833059431,-0.01191187184304,0.0302378293126821,0.0100792767480016
0,0.398611119576417,-0.027777779924251,0.927777833059431,-0.0100792767480016,0.0390953756868839,0.00855211354792118
0,0.400000011459671,-0.0250000007162294,0.923611157409668,-0.00427605677396059,-0.00152716308366507,0.00763581553474069
0,0.402777795226179,-0.029166668768514,0.916666697993398,0.000916297896765172,-0.0335975885391235,-0.0027488935738802
0,0.400000011459671,-0.0250000007162294,0.916666697993398,0.0400116741657257,0.0207694191485643,-0.0207694191485643
0,0.397222227693163,-0.0194444453391775,0.908333346693873,0.0244346093386412,0.0226020142436027,-0.0143553335219622
0,0.398611119576417,-0.0222222230277034,0.911111130460381,0.0033597587607801,-0.00794124789535999,-0.0113010071218014
0,0.408333338447267,-0.0236111118719664,0.926388941176177,-0.000610865245107561,-0.017409659922123,0.00183259579353034
0,0.412500014097029,-0.0222222230277034,0.923611157409668,-0.00152716308366507,-0.0473420582711697,-0.00122173049021512
0,0.406944470875941,-0.0166666676506515,0.916666697993398,-0.00244346098043024,-0.0519235469400883,-0.00244346098043024
0,0.413888905980283,-0.0194444453391775,0.913888914226889,0.00244346098043024,-0.0232128798961639,-0.00794124789535999
0,0.412500014097029,-0.0222222230277034,0.913888914226889,0.00366519158706069,0.00977384392172098,-0.0204639863222837
0,0.409722230330521,-0.03194444645704,0.911111130460381,0.000916297896765172,0.0183259565383196,-0.00885754637420177
0,0.411111122213775,-0.0250000007162294,0.915277806110144,0.0106901414692402,-0.00671951752156019,-0.00916297826915979
0,0.404166687109433,-0.0208333341834404,0.926388941176177,0.0152716310694814,-0.0128281703218818,-0.00152716308366507
0,0.405555578992687,-0.0166666676506515,0.926388941176177,0.0415388382971287,0.0473420582711697,-0.0210748501121998
0,0.406944470875941,-0.0194444453391775,0.92083337364316,0.0299323964864016,0.0363464802503586,-0.017409659922123
0,0.406944470875941,-0.0236111118719664,0.911111130460381,0.03176499158144,-0.011606439948082,-0.0122173046693206
0,0.404166687109433,-0.029166668768514,0.911111130460381,0.0345138870179653,-0.0696386396884918,-0.00397062394768
0,0.404166687109433,-0.026388891079988,0.909722238577127,0.0403171069920063,-0.0561996027827263,0.00641408516094089
0,0.400000011459671,-0.0138888899621255,0.92083337364316,0.0326812900602817,-0.0418442711234093,0.00427605677396059
0,0.404166687109433,-0.0138888899621255,0.92083337364316,0.027488935738802,-0.037568211555481,0.00916297826915979
0,0.408333338447267,-0.0236111118719664,0.911111130460381,0.0626136884093285,-0.0736092627048492,0.0122173046693206
0,0.404166687109433,-0.0194444453391775,0.905555562927365,0.0656680166721344,-0.124005645513535,0.0103847095742822
0,0.406944470875941,-0.0138888899621255,0.906944454810619,0.0684169083833694,-0.136833816766739,0.0210748501121998
0,0.411111122213775,-0.0152777788063885,0.913888914226889,0.0794124826788902,-0.172263994812965,0.00580321997404099
0,0.420833365396554,-0.0194444453391775,0.930555616825939,0.0794124826788902,-0.29596421122551,0.0256563406437635
0,0.430555559955475,-0.0152777788063885,0.926388941176177,0.0488692186772823,-0.288022965192795,0.0552833043038845
0,0.431944451838729,-0.0138888899621255,0.895833319744586,-0.0180205255746841,-0.250760197639465,0.0516181141138077
0,0.433333343721983,-0.0180555564949145,0.884722281926269,-0.0323758572340012,-0.156992360949516,0.0595593601465225
0,0.416666689746791,-0.0125000003581147,0.887500065692777,-0.0427605658769607,-0.0244346093386412,0.0852157026529312
0,0.424999992422458,-0.0208333341834404,0.893055633225794,-0.0839939713478088,-0.0681114718317986,0.078801617026329
0,0.430555559955475,-0.0222222230277034,0.911111130460381,-0.124616511166096,-0.279470860958099,0.0992656052112579
0,0.454166673346937,-0.0361111129898289,0.904166671044111,-0.169820532202721,-0.287106662988663,0.105374254286289
0,0.462500024646461,-0.0361111129898289,0.916666697993398,-0.104152522981167,0.0577267669141293,0.0430659987032413
0,0.430555559955475,-0.0375000018340919,0.906944454810619,-0.0540615729987621,0.155159771442413,0.0436768643558025
0,0.456944457113445,-0.0444444460554069,0.911111130460381,-0.0277943685650826,-0.0445931628346443,0.0384845100343227
0,0.440277803138253,-0.0388888906783549,0.926388941176177,0.0207694191485643,-0.155465200543404,0.0201585534960032
0,0.451388889580428,-0.03194444645704,0.923611157409668,0.0351247526705265,-0.235793977975845,0.0479529201984406
0,0.462500024646461,-0.0347222241455659,0.926388941176177,0.100792765617371,-0.0934623852372169,-0.017409659922123
0,0.466666700296224,-0.0180555564949145,0.926388941176177,0.0641408488154411,0.0534507073462009,-0.0952949747443199
0,0.459722240879953,-0.0250000007162294,0.904166671044111,0.0183259565383196,0.0271835029125214,-0.124616511166096
0,0.469444484062732,-0.0361111129898289,0.884722281926269,-0.0222965814173222,-0.0690277740359306,-0.0821613743901253
0,0.466666700296224,-0.03194444645704,0.876388930626744,-0.0500909499824047,-0.171042263507843,-0.0647517144680023
0,0.466666700296224,-0.03194444645704,0.876388930626744,-0.0247400421649218,-0.183870434761047,-0.0339030213654041
0,0.459722240879953,-0.0361111129898289,0.881944498159761,-0.00885754637420177,-0.120035022497177,-0.0629191175103188
0,0.476388894855144,-0.0458333348996699,0.899999995394348,0.021685715764761,-0.298102229833603,-0.0534507073462009
0,0.462500024646461,-0.0416666683668809,0.916666697993398,0.147523954510689,-0.237321153283119,-0.112093769013882
0,0.473611111088636,-0.03194444645704,0.930555616825939,0.19578230381012,0.0320704244077206,-0.179288953542709
0,0.500000008246606,-0.00277777787846293,0.940277860008718,0.121256753802299,0.200058370828629,-0.208305045962334
0,0.472222219205382,-0.0375000018340919,0.915277806110144,0.0568104684352875,0.0513126812875271,-0.115148097276688
0,0.452777781463682,-0.03194444645704,0.911111130460381,0.0592539273202419,-0.0427605658769607,-0.0919352173805237
0,0.458333348996699,-0.027777779924251,0.883333390043015,0.113315500319004,0.0552833043038845,-0.0971275717020035
0,0.423611149163062,-0.00555555575692586,0.873611146860236,0.148745685815811,0.200974673032761,-0.136528387665749
0,0.412500014097029,0.0208333341834404,0.888888957576031,0.263588339090347,0.552527606487274,-0.121256753802299
0,0.461111132763207,0.0208333341834404,0.895833319744586,0.183565005660057,0.19028452038765,-0.148745685815811
0,0.46527780841297,0.0111111115138517,0.936111184358955,0.222965821623802,-0.109650313854218,-0.154243469238281
0,0.380555573717971,0.00277777787846293,0.881944498159761,0.0308486949652433,-0.463952153921127,0.0161879286170006
0,0.420833365396554,0.0777777813567098,0.906944454810619,0.0113010071218014,-0.254425376653671,-0.0794124826788902
0,0.515277818962402,0.030555557612777,0.808333374218867,-0.149661988019943,0.104457959532738,-0.105374254286289
0,0.529166689171085,-0.029166668768514,0.797222239152834,-0.283136039972305,0.0809396430850029,-0.282525181770325
0,0.476388894855144,-0.0388888906783549,0.880555606276507,-0.0497855171561241,-0.294131606817245,-0.193949714303017
0,0.29166668768514,-0.00555555575692586,0.89722221162784,0.29046642780304,-1.02381014823914,-0.0229074470698834
0,0.46527780841297,0.0180555564949145,0.904166671044111,0.463035851716995,0.557109117507935,-0.347276896238327
0,0.562499997121468,0.0652777787193518,0.944444438410764,0.415082931518555,1.87077486515045,-0.757167458534241
0,0.572222240304247,0.0208333341834404,0.955555573476797,0.346360594034195,2.25409269332886,-1.15728425979614
0,0.376388898068209,-0.101388894748172,0.761111147435943,0.608116328716278,2.12886548042297,-1.8545868396759
0,0.250000004123303,0.0611111152255539,0.697222266677827,0.821002900600433,3.52285981178284,0.256868839263916
0,0.340277782039389,-0.104166672436698,0.780555585177642,0.171958565711975,2.47156071662903,0.429743707180023
0,0.277777793164528,0.0180555564949145,0.825000028194058,-1.09925198554993,1.04702305793762,0.89461213350296
0,0.240277785252453,-0.0194444453391775,0.830555595727074,-2.10931777954102,0.417220950126648,1.10261178016663
0,0.204166669223633,0.00972222266958873,0.806944482335612,-2.80234432220459,0.881783962249756,1.9000962972641
0,0.241666677135707,0.0486111125881959,0.818055568777787,-3.29378533363342,1.14903748035431,2.74431204795837
0,0.240277785252453,-0.026388891079988,0.902777779160856,-3.24766516685486,1.06137835979462,3.06654357910156
0,0.176388892338373,-0.12916666555545,0.954166681593543,-2.59006857872009,1.76509511470795,2.95994758605957
0,0.20972223675665,-0.190277786858986,0.958333357243305,-1.856724858284,2.06105923652649,2.65756916999817
0,0.187500003092477,-0.351388892793493,0.906944454810619,-0.88819807767868,1.40834987163544,2.2101104259491
0,0.00277777787846293,-0.52083333787156,0.866666687443965,0.350942075252533,0.604756593704224,2.2724187374115
0,-0.179166676104882,-0.416666689746791,0.936111184358955,0.878118813037872,0.663094222545624,2.84143972396851
0,-0.25555557165632,-0.270833333748257,0.993055557076942,0.715017795562744,1.23669672012329,3.26446390151977
0,-0.275000009398019,-0.236111109602691,1.0125000434425,0.384539663791656,1.14659404754639,3.1401526927948
0,-0.226388890731841,-0.279166685047782,1.00555558402623,0.0427605658769607,1.02869701385498,2.27302956581116
0,-0.212499996211229,-0.304166666010569,0.972222276075846,-0.214413702487946,0.797484576702118,1.43400621414185
0,-0.238888893369199,-0.20138889761309,0.92083337364316,-0.603229403495789,0.234266817569733,0.883311152458191
0,-0.233333350148112,-0.113888891307548,0.92083337364316,-1.23180973529816,-0.787099897861481,0.664010524749756
0,-0.233333350148112,-0.113888891307548,0.92083337364316,-1.57267260551453,-1.1578950881958,0.498160600662232
0,-0.130555557438704,-0.254166679773066,1.05833337834217,-1.23364233970642,-0.108734011650086,0.388815730810165
0,-0.150000007336368,-0.375000006184955,0.933333400592447,-0.942870497703552,-0.0726929605007172,0.19578230381012
0,-0.150000007336368,-0.375000006184955,0.933333400592447,-0.657901883125305,0.913854420185089,0.398284137248993
0,-0.0736111117849297,-0.368055571080613,0.934722292475701,-0.803898692131042,0.631940066814423,0.335059583187103
0,-0.154166670830166,-0.351388892793493,0.99583334084345,-0.937678158283234,-0.167377084493637,0.204028993844986
0,-0.187500003092477,-0.381944465601225,1.01805561097552,-1.03022420406342,-1.36833810806274,0.0378736443817616
0,-0.112499999424294,-0.42916666807222,0.959722249126559,-1.25044119358063,-2.02257490158081,-0.139277279376984
0,-0.112499999424294,-0.487500029921177,0.905555562927365,-1.71928024291992,-2.05220174789429,-0.263282924890518
0,0.00138888893923146,-0.558333370095563,0.95000000594378,-2.11328840255737,-2.01768779754639,-0.352163821458816
0,0.00138888893923146,-0.558333370095563,0.95000000594378,-3.15939497947693,-2.43185448646545,-0.325896620750427
0,-0.104166672436698,-0.630555602153203,0.93750007624221,-4.09065914154053,-1.48684597015381,-0.429743707180023
0,-0.0250000007162294,-0.797222239152834,0.811111157985375,-4.72504281997681,-1.06809782981873,-0.360105067491531
0,-0.0250000007162294,-0.797222239152834,0.811111157985375,-5.27757024765015,-0.97830069065094,-0.0733038261532784
0,0.0222222230277034,-0.877777822509998,0.656944450687316,-5.8029146194458,-0.595288157463074,0.0665843114256859
0,-0.0388888906783549,-0.986111194908388,0.584722267253534,-6.13125467300415,0.159435823559761,-0.0394008085131645
0,-0.0847222225390337,-1.04722224327614,0.536111148587356,-6.34139204025269,0.564439475536346,-0.337503045797348
0,-0.0875000002275597,-1.09444447005906,0.422222257279808,-6.14591503143311,0.650571465492249,-0.998153805732727
0,-0.029166668768514,-1.15416672379127,0.356944460326509,-4.81025838851929,-0.654542088508606,-1.79716551303864
0,-0.131944449321958,-1.08888890252604,0.265277790527169,-3.51308608055115,0.213497400283814,-2.19789314270019
0,-0.111111119697004,-0.904166671044111,0.156944454596674,-2.49416279792786,1.6679675579071,-2.38115262985229
0,-0.0750000036681839,-0.92083337364316,0.12916666555545,-2.85365700721741,0.400727599859238,-2.11084485054016
0,0.0416666683668809,-0.940277860008718,-0.03194444645704,-3.791335105896,0.203112691640854,-1.73516273498535
0,0.190277786858986,-0.96666670854283,-0.202777789496344,-4.64990615844727,0.10598511993885,-1.72416710853577
0,0.24583335278547,-0.944444438410764,-0.244444460902216,-4.88844919204712,0.0164933614432812,-1.94835472106934
0,0.391666684472075,-0.958333357243305,-0.262500006760661,-3.61601686477661,0.0736092627048492,-2.082439661026
0,0.322222236180943,-0.85138887672817,-0.179166676104882,-1.36100780963898,1.06595981121063,-1.76631689071655
0,0.340277782039389,-0.836111163260091,-0.12777778582816,0.459065228700638,1.79716551303864,-1.45477557182312
0,0.340277782039389,-0.836111163260091,-0.12777778582816,0.922406494617462,1.80693936347961,-1.24647057056427
0,0.515277818962402,-0.779166693294388,-0.144444451959316,0.700967848300934,1.64200580120087,-1.00029182434082
0,0.663888910103586,-0.630555602153203,-0.259722222994153,-0.636521577835083,0.620639085769653,-0.833831071853638
0,0.663888910103586,-0.630555602153203,-0.259722222994153,-2.08824276924133,0.307265222072601,-1.71530961990356
0,0.705555569353494,-0.525000013521323,-0.2194444556275,-2.66153979301453,0.545197248458862,-2.48652696609497
0,0.705555569353494,-0.525000013521323,-0.2194444556275,-2.40650367736816,0.437379509210587,-2.03265404701233
0,0.647222256128395,-0.541666667496514,-0.197222234119292,-1.56839656829834,0.6722571849823,-1.11849427223206
0,0.647222256128395,-0.541666667496514,-0.197222234119292,0.0491746515035629,1.43522787094116,-0.789543330669403
0,0.904166671044111,-0.530555581054339,-0.231944458264858,1.41109871864319,0.890641510486603,-1.45538640022278
0,0.82916670384382,-0.512500035195893,-0.229166674498349,1.69301307201385,1.01159286499023,-1.75135064125061
0,0.856944444261187,-0.779166693294388,-0.187500003092477,0.387288570404053,1.75287783145904,1.1456778049469
0,0.926388941176177,-0.768055606852213,-0.20972223675665,0.810923635959625,1.23914015293121,1.18049705028534
0,1.11250006454136,-0.700000001820477,-0.325000019947452,0.413250327110291,0.879645943641663,0.257174253463745
0,1.09583336194232,-0.652777823661411,-0.33750002258481,-0.249843880534172,0.727845966815948,-0.59650993347168
0,0.89722221162784,-0.508333359546131,-0.250000004123303,-0.472198843955994,0.574518740177155,-1.95293617248535
0,0.770833341994863,-0.598611137462217,-0.101388894748172,-0.524122357368469,0.682336449623108,-2.64718461036682
0,0.736111142161226,-0.544444451263022,-0.0819444448505077,-0.207694187760353,1.0067058801651,-3.31547117233276
0,0.697222266677827,-0.393055576355329,-0.230555566381603,-0.287717521190643,0.966083407402039,-3.65266871452331
0,0.745833336720147,-0.351388892793493,-0.280555576931036,-0.73517632484436,0.936456441879272,-3.34448719024658
0,0.806944482335612,-0.330555563168539,-0.281944444502361,-0.747699081897736,0.68630713224411,-2.86709594726563
0,0.915277806110144,-0.456944457113445,-0.24583335278547,-0.432492583990097,0.583987176418304,-2.37046265602112
0,1.12499999424293,-0.666666693870094,-0.187500003092477,0.743728458881378,0.438906669616699,-0.762665271759033
0,0.965277816659576,-0.387500008822313,-0.208333344873396,0.817337691783905,0.648738861083984,-0.301156580448151
0,0.866666687443965,-0.294444447139719,-0.161111118090472,0.175929188728332,-0.0436768643558025,-0.478307485580444
0,0.951388897827035,-0.312500017310094,-0.144444451959316,-0.122173048555851,0.120340451598167,-1.37475228309631
0,1.04166667574312,-0.272222225631511,-0.187500003092477,-0.129503428936005,-0.106595985591412,-1.88665735721588
0,1.11944452395763,-0.277777793164528,-0.180555567988136,-0.0247400421649218,-0.132557764649391,-2.02440738677979
0,1.21250008564023,-0.14722222356986,-0.229166674498349,0.236099421977997,0.0516181141138077,-1.02350473403931
0,1.20277784245745,-0.055555559848502,-0.302777798439244,0.305432617664337,0.615141272544861,-0.0421497002243996
0,1.04305556762637,-0.0750000036681839,-0.151388899219622,-0.253814518451691,0.278249114751816,0.0183259565383196
0,1.0513889189259,-0.161111118090472,-0.112499999424294,-0.184786736965179,0.135917514562607,0.0167987942695618
0,1.04305556762637,-0.176388892338373,-0.14583334384257,-0.217468023300171,-0.101098194718361,-0.0439822971820831
0,1.04305556762637,-0.176388892338373,-0.14583334384257,-0.215024560689926,0.0522289797663689,-0.0827722400426865
0,1.0333333244436,-0.134722233088466,-0.187500003092477,-0.281303435564041,-0.683863639831543,-0.114537231624126
0,0.929166724942685,-0.123611110178398,-0.0361111129898289,-0.11606439948082,-1.77273094654083,-0.455705463886261
0,0.844444514559616,-0.0916666697993398,-0.00277777787846293,-0.234266817569733,-2.2189679145813,-0.647517144680023
0,0.809722266102121,-0.104166672436698,-0.0583333375370279,-0.096211276948452,-1.63742423057556,-0.647211730480194
0,0.523611121638068,-0.272222225631511,-0.236111109602691,-0.295353353023529,-0.261144906282425,-1.56961822509766
0,0.836111163260091,-0.184722231481934,-0.315277801076602,-0.177761793136597,-0.218995183706284,-1.15361905097961
0,1.11944452395763,-0.0972222251763917,-0.356944460326509,-0.200974673032761,-0.531758189201355,-0.96241819858551
0,1.20277784245745,-0.112499999424294,-0.308333341660331,0.0378736443817616,-0.456927210092545,-0.650876939296722
0,1.18750003174166,-0.027777779924251,-0.379166681834717,0.00519235478714108,-0.103541657328606,-0.30757063627243
0,1.02361117850853,-0.0138888899621255,-0.344444457689151,-0.0879645943641663,0.0983493030071259,-0.178067222237587
0,0.938888968125464,0.03194444645704,-0.388888900705567,-0.296269655227661,0.383928805589676,0.145691365003586
0,1.00694447590948,-0.0125000003581147,-0.237500001485945,-0.0219911485910416,0.251981914043427,0.0601702257990837
0,1.00694447590948,-0.0125000003581147,-0.237500001485945,0.00855211354792118,0.138971850275993,0.0284052342176437
0,1.00694447590948,-0.0125000003581147,-0.237500001485945,0.0546724386513233,1.63498079776764,-0.04764748737216
0,1.01666671909226,-0.0250000007162294,-0.406944470875941,-0.140193566679955,2.65512585639954,-0.00427605677396059
0,0.833333379493583,-0.0722222259796579,-0.202777789496344,-0.215330004692078,3.30294847488403,-0.070249505341053
0,0.833333379493583,-0.0722222259796579,-0.202777789496344,0.456010907888412,2.47430968284607,-0.565661191940308
0,0.833333379493583,-0.0722222259796579,-0.202777789496344,0.432492583990097,1.00792765617371,-0.0986547395586967
0,1.12222230772414,-0.00555555575692586,0.12777778582816,-0.16920967400074,-0.454178303480148,-0.182648703455925
0,1.04861113515939,-0.026388891079988,0.138888896582264,0.0971275717020035,-1.47249066829681,-0.15332718193531
0,1.04861113515939,-0.026388891079988,0.138888896582264,0.0125227374956012,-1.01586890220642,-0.0827722400426865
0,1.07638897282447,0.0222222230277034,-0.244444460902216,0.125227376818657,-0.75105881690979,0.000305432622553781
0,1.07777786470773,0.00694444498106275,-0.288888903918631,0.00733038317412138,0.183565005660057,0.0424551330506802
0,1.02222228662528,-0.029166668768514,-0.262500006760661,-0.0986547395586967,0.739146947860718,0.0757472887635231
0,0.99583334084345,-0.029166668768514,-0.136111112815755,0.0268780700862408,0.779158592224121,0.127976268529892
0,0.984722303025134,-0.00833333382532574,-0.104166672436698,-0.156686931848526,0.553443908691406,0.274278491735458
0,0.880555606276507,-0.108333335930496,-0.033333335301303,-0.457538068294525,0.0699440687894821,-0.281914323568344
0,1.02916674604155,0.00277777787846293,-0.0402777795226179,-0.484110713005066,-0.197004035115242,-0.0864374339580536
0,1.14166669684199,-0.00555555575692586,-0.0833333367337618,-0.272445887327194,-0.184481307864189,-0.207694187760353
0,1.12222230772414,0.00555555575692586,-0.122222230451108,-0.00244346098043024,0.107512280344963,-0.186924770474434
0,1.02222228662528,0.00972222266958873,-0.113888891307548,0.0394008085131645,0.279165416955948,0.029626963660121
0,0.92083337364316,0.0416666683668809,0.00416666691266287,0.170431405305862,-0.192727982997894,0.17440202832222
0,0.972222276075846,0.0388888906783549,-0.0652777787193518,0.11087204515934,-0.682336449623108,0.338113903999329
0,1.00000001649321,0.0138888899621255,-0.120833338567854,0.202196389436722,-0.542753756046295,0.456316351890564
0,0.990277773310434,-0.033333335301303,-0.159722226207217,0.178678080439568,-0.256257981061935,0.617584764957428
0,0.911111130460381,-0.0430555572111439,-0.0750000036681839,0.255647093057633,-0.261450320482254,0.816726803779602
0,0.92083337364316,-0.055555559848502,-0.111111119697004,0.04764748737216,-0.659429013729095,1.09589219093323
0,1.09722225382557,-0.104166672436698,-0.150000007336368,0.0824668109416962,-0.705243945121765,0.870482981204987
0,1.04166667574312,-0.14583334384257,-0.172222228844576,0.145691365003586,-0.464563012123108,0.535423398017883
0,0.98888888142718,-0.154166670830166,-0.188888894975731,0.164933621883392,-0.237321153283119,0.278859972953796
0,1.04861113515939,-0.0986111170596459,-0.181944447715425,-0.0134390350431204,-0.230601623654366,0.120340451598167
0,1.09722225382557,-0.104166672436698,-0.181944447715425,0.00183259579353034,-0.394008070230484,-0.0183259565383196
0,1.09722225382557,-0.104166672436698,-0.181944447715425,-0.0497855171561241,-0.217468023300171,-0.118507854640484
0,0.930555616825939,-0.0847222225390337,-0.20972223675665,0.12156218290329,0.22693644464016,-0.0415388382971287
0,0.936111184358955,-0.0861111144222878,-0.20972223675665,-0.124005645513535,0.304210901260376,-0.0729983970522881
0,0.936111184358955,-0.0861111144222878,-0.20972223675665,0.0916297882795334,0.324674874544144,0.230601623654366
0,0.959722249126559,-0.104166672436698,-0.10972222781375,0.18509216606617,0.28008171916008,0.209221348166466
0,0.959722249126559,-0.104166672436698,-0.10972222781375,0.127976268529892,0.0329867228865623,0.281303435564041
0,1.05555559457566,-0.101388894748172,-0.148611115453114,0.120951317250729,0.0345138870179653,0.218995183706284
0,1.00972225967599,-0.143055560076062,-0.17361112072783,0.0592539273202419,0.211053937673569,-0.0308486949652433
0,1.00972225967599,-0.123611110178398,-0.134722233088466,0.0919352173805237,0.178372651338577,-0.0888808965682983
0,1.04583335139288,-0.143055560076062,-0.170833336961321,0.0723875313997269,0.352163821458816,-0.0387899428606033
0,1.12083341584089,-0.13750000469901,-0.130555557438704,0.139277279376984,0.114231802523136,-0.139888137578964
0,1.06250005399193,-0.125000002061652,-0.150000007336368,0.0583376325666905,0.129197999835014,-0.180816113948822
0,1.01388893532575,-0.13750000469901,-0.118055554801345,0.155159771442413,0.0167987942695618,-0.160046696662903
0,1.04166667574312,-0.130555557438704,-0.163888889701015,0.127976268529892,0.190895393490791,-0.0607810914516449
0,1.05694448645892,-0.125000002061652,-0.156944454596674,0.12675453722477,0.220827788114548,-0.0647517144680023
0,1.04444445950963,-0.108333335930496,-0.108333335930496,0.150578290224075,0.0302378293126821,-0.0852157026529312
0,1.04166667574312,-0.115277783190802,-0.134722233088466,0.18020524084568,-0.0259617734700441,-0.0745255574584007
0,0.987499989543926,-0.125000002061652,-0.112499999424294,0.199447497725487,0.0754418596625328,-0.202807262539864
0,0.993055557076942,-0.126388893944906,-0.106944444047242,0.299934834241867,-0.0332921557128429,-0.144164204597473
0,1.06666672964169,-0.104166672436698,-0.14583334384257,0.282830595970154,0.0849102661013603,-0.0226020142436027
0,0.984722303025134,-0.0791666671619817,-0.12777778582816,0.261755764484406,-0.0125227374956012,0.00580321997404099
0,1.04583335139288,-0.12777778582816,-0.170833336961321,0.159130394458771,0.291993588209152,-0.0690277740359306
0,1.06527783775844,-0.102777780553444,-0.156944454596674,-0.0339030213654041,0.3378084897995,-0.0928515195846558
0,1.01527782720901,-0.118055554801345,-0.134722233088466,-0.100792765617371,0.444709897041321,-0.0678060427308083
0,1.01666671909226,-0.106944444047242,-0.0819444448505077,0.0192422550171614,0.473420560359955,-0.0561996027827263
0,1.00000001649321,-0.0916666697993398,-0.112499999424294,0.0943786799907684,0.388204872608185,-0.0186313893646002
0,0.991666665193688,-0.0875000002275597,-0.0875000002275597,0.0653625801205635,0.131641462445259,0.0357356183230877
0,0.99583334084345,-0.0861111144222878,-0.0875000002275597,-0.00366519158706069,-0.0134390350431204,0.144775062799454
0,1.04722224327614,-0.12777778582816,-0.0777777813567098,0.00305432616733015,0.0189368221908808,0.0329867228865623
0,1.05555559457566,-0.105555564319952,-0.0750000036681839,0.000610865245107561,0.0403171069920063,-0.0360410511493683
0,1.03194452980806,-0.0986111170596459,-0.0875000002275597,-0.0320704244077206,0.255647093057633,-0.0540615729987621
0,0.969444492309338,-0.106944444047242,-0.052777782159976,0.0974330082535744,0.214413702487946,0.0308486949652433
0,1.00138890837647,-0.111111119697004,-0.0638888929140799,0.188451930880547,0.288633823394775,0.0595593601465225
0,1.05694448645892,-0.111111119697004,-0.0930555616825939,0.126449108123779,0.248316720128059,-0.00488692196086049
0,1.06666672964169,-0.113888891307548,-0.1194444466846,0.0149661982432008,0.246789559721947,-0.0690277740359306
0,0.983333411141879,-0.0805555590452358,-0.0625000010308258,-0.029626963660121,0.167987942695618,-0.0638354197144508
0,1.02222228662528,-0.0861111144222878,-0.029166668768514,-0.0406225398182869,-0.262061178684235,0.021685715764761
0,1.02222228662528,-0.0861111144222878,-0.029166668768514,-0.0525344125926495,-0.22724187374115,-0.0280998013913631
0,1.05833337834217,-0.118055554801345,-0.0416666683668809,-0.0461203269660473,-0.0995710343122482,-0.0497855171561241
0,1.04583335139288,-0.0916666697993398,-0.108333335930496,-0.096211276948452,0.00488692196086049,-0.090408056974411
0,0.962500032893068,-0.0916666697993398,-0.0180555564949145,-0.168293371796608,0.0183259565383196,-0.104152522981167
0,0.962500032893068,-0.0916666697993398,-0.0180555564949145,-0.00946841109544039,-0.231517925858498,-0.00397062394768
0,1.01527782720901,-0.0680555564078778,-0.0833333367337618,-0.0464257597923279,-0.283746898174286,-0.0222965814173222
0,1.01527782720901,-0.0680555564078778,-0.0833333367337618,-0.027488935738802,-0.313679307699203,-0.0100792767480016
0,1.0125000434425,-0.0833333367337618,-0.0888888921108138,0.0369573459029198,-0.237015709280968,0.0167987942695618
0,1.02916674604155,-0.123611110178398,-0.111111119697004,0.00610865233466029,-0.18020524084568,0.0326812900602817
0,1.02361117850853,-0.0722222259796579,-0.0888888921108138,-0.119424156844616,0.0235183127224445,0.0659734457731247
0,1.04305556762637,-0.0736111117849297,-0.106944444047242,-0.232128798961639,0.402560204267502,0.0583376325666905
0,1.06666672964169,-0.113888891307548,-0.161111118090472,-0.333226978778839,0.813672482967377,0.0696386396884918
0,1.02777785415829,-0.104166672436698,-0.123611110178398,-0.436157792806625,0.613003253936768,-0.03176499158144
0,1.03472221632685,-0.133333341205212,-0.0611111152255539,-0.159435823559761,0.406530827283859,0.117591559886932
0,1.07777786470773,-0.154166670830166,-0.0569444456537738,-0.0616973899304867,0.234877690672875,-0.019547687843442
0,1.03194452980806,-0.111111119697004,-0.0250000007162294,0.0339030213654041,0.24342979490757,-0.101098194718361
0,1.07222229717471,-0.106944444047242,-0.0152777788063885,0.0870482996106148,0.120951317250729,-0.0699440687894821
0,0.970833384192592,-0.0638888929140799,0.0416666683668809,-0.149051114916802,-0.288022965192795,-0.0100792767480016
0,1.00972225967599,-0.0652777787193518,0.0222222230277034,-0.0809396430850029,-0.646600842475891,0.102319926023483
0,0.945833330294018,-0.0652777787193518,0.0416666683668809,0.207694187760353,-1.17041778564453,0.192117124795914
0,1.02361117850853,-0.0569444456537738,-0.00833333382532574,-0.0717766657471657,-0.664621412754059,0.0262672062963247
0,1.07500008094122,-0.13750000469901,-0.216666671860991,-0.132863193750381,0.277943700551987,-0.0357356183230877
0,1.13750002119222,-0.138888896582264,-0.18333333959868,0.0109955742955208,0.84085601568222,-0.0583376325666905
0,1.00694447590948,-0.0958333393711199,-0.0805555590452358,0.0558941699564457,0.40225476026535,0.00763581553474069
0,0.913888914226889,-0.0902777839940679,-0.00555555575692586,0.106595985591412,-0.240070044994354,0.00977384392172098
0,0.941666654644256,-0.0888888921108138,0.00277777787846293,-0.150578290224075,-0.83474737405777,0.0412334054708481
0,0.984722303025134,-0.118055554801345,-0.055555559848502,-0.30207285284996,-0.89308500289917,-0.0485637858510017
0,1.05277781080915,-0.101388894748172,-0.105555564319952,-0.0693332031369209,-0.453262001276016,-0.0537561401724815
0,1.08055555122652,-0.122222230451108,-0.150000007336368,-0.160352125763893,0.0821613743901253,0.00549778714776039
0,1.03194452980806,-0.120833338567854,-0.100000002864918,0.0458148941397667,0.117286130785942,-0.0164933614432812
0,1.04305556762637,-0.104166672436698,-0.0875000002275597,0.277332812547684,0.262672066688538,0.00610865233466029
0,0.962500032893068,-0.0986111170596459,-0.0583333375370279,-0.163101017475128,-0.578183948993683,-0.00641408516094089
0,0.973611167959101,-0.0777777813567098,-0.0833333367337618,-0.160046696662903,-0.642019391059875,-0.00702495034784079
0,1.0125000434425,-0.118055554801345,-0.0513888902767219,-0.113926365971565,-0.657290995121002,-0.0464257597923279
0,1.0305556379248,-0.113888891307548,-0.0652777787193518,-0.148134827613831,-0.43401974439621,-0.143858760595322
0,1.09861114570882,-0.0916666697993398,-0.202777789496344,-0.0601702257990837,0.270307868719101,0.0390953756868839
0,1.08750001064279,-0.0986111170596459,-0.179166676104882,0.0452040284872055,0.660039901733398,0.0397062413394451
0,1.04861113515939,-0.0736111117849297,-0.134722233088466,0.252898216247559,0.431576281785965,0.138055548071861
0,0.98888888142718,-0.0805555590452358,-0.125000002061652,0.208610475063324,0.229990765452385,0.141415297985077
0,1.0125000434425,-0.055555559848502,-0.166666673467524,-0.150578290224075,0.64537912607193,0.0164933614432812
0,1.07638897282447,-0.0625000010308258,-0.108333335930496,-0.171042263507843,0.763276100158691,-0.0641408488154411
0,0.954166681593543,-0.108333335930496,-0.00555555575692586,-0.0494800843298435,0.190895393490791,-0.0439822971820831
0,0.962500032893068,-0.126388893944906,-0.0583333375370279,-0.0775798857212067,-0.261144906282425,-0.0784961804747581
0,1.01944450285877,-0.105555564319952,-0.0375000018340919,-0.120340451598167,-0.37568211555481,-0.181426972150803
0,0.98888888142718,-0.0486111125881959,-0.0500000014324589,0.295047909021378,-0.257785141468048,0.0791070461273193
0,0.99583334084345,-0.0847222225390337,-0.14583334384257,0.0861319974064827,-0.129503428936005,0.13744467496872
0,1.01666671909226,-0.0972222251763917,-0.131944449321958,0.0106901414692402,0.202807262539864,0.143553331494331
0,1.0125000434425,-0.0680555564078778,-0.0819444448505077,0.0381790772080422,0.224492982029915,0.183565005660057
0,0.994444448960196,-0.0986111170596459,-0.0986111170596459,-0.00855211354792118,-0.206777885556221,0.150272846221924
0,0.975000059842355,-0.0972222251763917,-0.0583333375370279,0.0794124826788902,-0.344527989625931,0.111788339912891
0,1.02361117850853,-0.130555557438704,-0.113888891307548,-0.153632611036301,-0.309708684682846,0.0113010071218014
0,1.0513889189259,-0.101388894748172,-0.14722222356986,-0.47647488117218,-0.185703039169311,-0.0519235469400883
0,1.04444445950963,-0.0708333340964038,-0.101388894748172,-0.390037447214127,-0.149051114916802,0.0103847095742822
0,1.04861113515939,-0.0777777813567098,-0.105555564319952,-0.247094988822937,-0.197614908218384,0.0519235469400883
0,1.04861113515939,-0.0736111117849297,-0.186111123365188,-0.35491269826889,0.0833831056952477,0.11636982858181
0,1.00833336779274,-0.0833333367337618,-0.197222234119292,-0.588263213634491,0.359494209289551,0.000305432622553781
0,1.02500007039179,-0.120833338567854,-0.17361112072783,-0.528092980384827,0.329867243766785,0.161268427968025
0,1.08750001064279,-0.13750000469901,-0.130555557438704,-0.582459986209869,0.404698222875595,-0.0229074470698834
0,0.952777789710289,-0.143055560076062,-0.0236111118719664,-0.214108273386955,0.267253547906876,0.176845490932465
0,1.03194452980806,-0.0944444474878658,-0.0236111118719664,-0.173180297017098,0.497549742460251,-0.0247400421649218
0,0.973611167959101,-0.12916666555545,-0.0541666679652478,-0.196393176913261,-0.178678080439568,-0.0433714315295219
0,0.98888888142718,-0.108333335930496,-0.0569444456537738,-0.371100634336472,-0.51923543214798,-0.150272846221924
0,0.979166735492117,-0.120833338567854,-0.106944444047242,-0.550084173679352,-0.421191573143005,-0.178678080439568
0,1.00138890837647,-0.113888891307548,-0.101388894748172,0.0870482996106148,-0.617584764957428,-0.0659734457731247
0,1.02500007039179,-0.0916666697993398,-0.170833336961321,-0.179288953542709,0.0381790772080422,-0.0342084541916847
0,0.981944519258625,-0.125000002061652,-0.0819444448505077,-0.0809396430850029,0.28008171916008,-0.0027488935738802
0,1.05833337834217,-0.113888891307548,-0.133333341205212,0.078801617026329,0.224492982029915,0.0284052342176437
0,1.0125000434425,-0.0916666697993398,-0.115277783190802,0.0610865242779255,0.22235494852066,0.0992656052112579
0,1.0361111082101,-0.125000002061652,-0.111111119697004,0.0561996027827263,0.263282924890518,0.0815505087375641
0,1.05277781080915,-0.111111119697004,-0.0916666697993398,-0.110261179506779,0.648738861083984,0.0372627787292004
0,1.00972225967599,-0.0944444474878658,-0.180555567988136,-0.0598647929728031,0.681420207023621,0.0250454749912024
0,1.02916674604155,-0.101388894748172,-0.0875000002275597,-0.277638256549835,0.873537302017212,-0.0668897479772568
0,1.01666671909226,-0.101388894748172,-0.0847222225390337,-0.170125976204872,0.562606871128082,-0.0421497002243996
0,1.04444445950963,-0.125000002061652,-0.0819444448505077,-0.382401645183563,0.363464832305908,-0.153021737933159
0,0.870833363093728,-0.0944444474878658,0.111111119697004,0.265420943498612,-0.01191187184304,-0.126143679022789
0,1.00138890837647,-0.154166670830166,-0.0486111125881959,-0.56169056892395,-0.28008171916008,-0.0977384373545647
0,0.994444448960196,-0.105555564319952,-0.0486111125881959,-0.215940862894058,-0.51434850692749,-0.0201585534960032
0,1.13472223742571,-0.247222220356795,0.0625000010308258,-0.249843880534172,-0.156381502747536,0.0522289797663689
0,0.96666670854283,-0.026388891079988,-0.03194444645704,-0.883005738258362,0.0974330082535744,-0.472198843955994
0,0.987499989543926,-0.0388888906783549,-0.0597222233422998,-0.491135656833649,0.339946508407593,-0.262061178684235
0,1.0361111082101,-0.055555559848502,0.00277777787846293,-0.105068825185299,0.360105067491531,-0.0406225398182869
0,1.05000002704265,-0.118055554801345,-0.0763888894734557,0.0901026204228401,0.23273965716362,0.0164933614432812
0,1.01527782720901,-0.0847222225390337,-0.0722222259796579,0.147829383611679,0.285884946584701,-0.0268780700862408
0,1.01527782720901,-0.0847222225390337,-0.0722222259796579,0.443793594837189,0.499076902866364,0.0250454749912024
0,1.11388895642462,-0.0569444456537738,-0.026388891079988,0.538477718830109,0.471282541751862,0.215635433793068
0,1.11388895642462,-0.0569444456537738,-0.026388891079988,0.774882555007935,0.926682591438293,0.198225766420364
0,1.01805561097552,-0.1194444466846,-0.0750000036681839,0.75105881690979,0.60903263092041,0.162490159273148
0,0.968055600426084,-0.120833338567854,0.0708333340964038,0.203418120741844,0.204639852046967,-0.0558941699564457
0,0.952777789710289,-0.104166672436698,0.0486111125881959,0.276416510343552,-0.258090555667877,0.166766211390495
0,0.981944519258625,-0.0111111115138517,0.0722222259796579,0.593455612659454,-0.548556983470917,0.145691365003586
0,0.961111141009813,-0.0819444448505077,0.03194444645704,0.268780708312988,-1.16736352443695,-0.135306656360626
0,0.923611157409668,-0.101388894748172,0.0208333341834404,-0.249233022332191,-1.72691607475281,-0.236404851078987
0,0.930555616825939,-0.0513888902767219,0.0500000014324589,0.213497400283814,-2.00149989128113,-0.163101017475128
0,1.13055556177595,-0.130555557438704,-0.162500009973726,0.276416510343552,-0.315817326307297,-0.0928515195846558
0,1.15833339944103,-0.0694444482911319,-0.266666682410424,0.131030589342117,0.151494577527046,0.0879645943641663
0,1.02083339474202,-0.0763888894734557,-0.130555557438704,-0.0913243517279625,-0.454178303480148,-0.00366519158706069
0,0.98888888142718,-0.0888888921108138,-0.029166668768514,0.144775062799454,-0.52381694316864,0.0226020142436027
0,1.0305556379248,-0.0694444482911319,-0.0847222225390337,0.394924372434616,-0.185703039169311,0.113315500319004
0,1.08472222687628,-0.0847222225390337,-0.156944454596674,0.0613919571042061,0.0583376325666905,0.0021380283869803
0,1.05000002704265,-0.0722222259796579,-0.172222228844576,0.0290160998702049,0.131641462445259,0.0616973899304867
0,1.00833336779274,-0.0680555564078778,-0.0916666697993398,0.210137650370598,-0.0748309940099716,0.0986547395586967
0,0.991666665193688,-0.0986111170596459,-0.106944444047242,0.0332921557128429,-0.142637029290199,-0.00244346098043024
0,1.00833336779274,-0.101388894748172,-0.1194444466846,0.0290160998702049,-0.204334422945976,0.0180205255746841
0,1.02222228662528,-0.113888891307548,-0.154166670830166,-0.087659165263176,-0.144164204597473,-0.0464257597923279
0,1.02638896227504,-0.0986111170596459,-0.17361112072783,-0.0675006061792374,-0.019547687843442,-0.00183259579353034
0,1.02916674604155,-0.104166672436698,-0.130555557438704,-0.0873537287116051,0.217162594199181,-0.169820532202721
0,1.05833337834217,-0.0777777813567098,-0.12777778582816,-0.0455094613134861,0.369573473930359,-0.117591559886932
0,1.04166667574312,-0.0569444456537738,-0.144444451959316,-0.384539663791656,0.152716308832169,-0.115148097276688
0,0.98888888142718,-0.0472222237439329,-0.0763888894734557,-0.116675265133381,-0.0675006061792374,0.00488692196086049
0,1.0305556379248,-0.0694444482911319,-0.156944454596674,-0.243735238909721,0.0122173046693206,-0.0293215326964855
0,1.05833337834217,-0.0986111170596459,-0.12777778582816,-0.0684169083833694,0.423940479755402,0.0598647929728031
0,1.00416669214298,-0.150000007336368,-0.100000002864918,-0.136528387665749,0.128892570734024,-0.110261179506779
0,0.956944465360051,-0.0833333367337618,-0.055555559848502,-0.0219911485910416,-0.155159771442413,-0.0626136884093285
0,1.00277780025972,-0.0861111144222878,-0.052777782159976,-0.0589484944939613,-0.015577063895762,-0.0647517144680023
0,1.00277780025972,-0.0861111144222878,-0.052777782159976,-0.0192422550171614,0.0448985956609249,-0.0607810914516449
0,1.04583335139288,-0.052777782159976,-0.0569444456537738,0.214719131588936,-0.167682513594627,0.0161879286170006
0,1.00972225967599,-0.0416666683668809,-0.0805555590452358,-0.128281697630882,-0.4758640229702,-0.0033597587607801
0,0.976388951725609,-0.0638888929140799,-0.152777778946911,0.102930791676045,-0.575435042381287,-0.0748309940099716
0,1.03194452980806,-0.0819444448505077,-0.134722233088466,0.199447497725487,-0.390953749418259,-0.160352125763893
0,1.08472222687628,-0.0791666671619817,-0.14722222356986,-0.110566608607769,-0.098960168659687,-0.278249114751816
0,1.03888889197661,-0.0638888929140799,-0.154166670830166,-0.116980694234371,-0.0213802829384804,-0.0745255574584007
0,0.977777843608863,-0.0513888902767219,-0.170833336961321,-0.0995710343122482,0.0470366254448891,-0.00671951752156019
0,1.01388893532575,-0.052777782159976,-0.156944454596674,-0.177150920033455,0.17409659922123,-0.0394008085131645
0,1.04027778385987,-0.055555559848502,-0.190277786858986,-0.686001658439636,0.429132848978043,-0.136833816766739
0,1.02500007039179,-0.0819444448505077,-0.180555567988136,-0.983187615871429,0.279776275157929,-0.122173048555851
0,1.00000001649321,-0.0388888906783549,-0.187500003092477,-0.990823447704315,0.339641064405441,-0.0424551330506802
0,0.991666665193688,-0.0194444453391775,-0.180555567988136,-0.964250802993774,0.577267646789551,-0.252287358045578
0,0.990277773310434,-0.0541666679652478,-0.0361111129898289,-0.536034226417542,0.386066824197769,-0.224492982029915
0,1.00833336779274,-0.0361111129898289,-0.0180555564949145,-0.164628177881241,0.126143679022789,-0.152105450630188
0,1.04027778385987,-0.00555555575692586,-0.0819444448505077,0.0513126812875271,0.265420943498612,0.00855211354792118
0,1.00694447590948,-0.0222222230277034,-0.0722222259796579,0.219911485910416,0.200974673032761,0.100792765617371
0,0.99583334084345,-0.0625000010308258,-0.033333335301303,0.595899045467377,-0.108123145997524,0.15332718193531
0,0.998611124609959,-0.0486111125881959,-0.0625000010308258,0.689972281455994,-0.286801218986511,0.123700208961964
0,1.04027778385987,-0.0583333375370279,-0.156944454596674,0.294742494821549,-0.0833831056952477,0.0568104684352875
0,1.05833337834217,-0.0486111125881959,-0.179166676104882,0.229074463248253,0.213191971182823,0.0656680166721344
0,1.04583335139288,-0.0597222233422998,-0.144444451959316,0.331699818372726,0.230601623654366,0.0723875313997269
0,1.03888889197661,-0.0513888902767219,-0.101388894748172,0.267558991909027,0.376903861761093,0.0430659987032413
0,1.01527782720901,-0.055555559848502,-0.0861111144222878,0.285274058580399,0.257479697465897,0.0207694191485643
0,1.04027778385987,-0.0652777787193518,-0.120833338567854,0.152410879731178,0.321009695529938,0.0485637858510017
0,1.02083339474202,-0.0736111117849297,-0.0847222225390337,0.189062789082527,0.149051114916802,0.0360410511493683
0,0.980555627375371,-0.0736111117849297,-0.0625000010308258,0.0708603709936142,-0.0210748501121998,0.0464257597923279
0,1.02500007039179,-0.0763888894734557,-0.0944444474878658,0.0424551330506802,-0.00366519158706069,0.0305432621389627
0,1.04861113515939,-0.0763888894734557,-0.102777780553444,-0.0470366254448891,0.0925460830330849,-0.0149661982432008
0,1.04861113515939,-0.0763888894734557,-0.102777780553444,0.0290160998702049,0.0784961804747581,-0.00763581553474069
0,1.02222228662528,-0.0652777787193518,-0.0597222233422998,0.0897971913218498,-0.112093769013882,0.00244346098043024
0,1.00000001649321,-0.0625000010308258,-0.0486111125881959,0.181121543049812,-0.100181899964809,0.0244346093386412
0,1.00833336779274,-0.0694444482911319,-0.0375000018340919,0.166155353188515,-0.0965167060494423,0.00641408516094089
0,1.00277780025972,-0.052777782159976,-0.0722222259796579,0.172569438815117,-0.181426972150803,-0.02382374368608
0,1.03888889197661,-0.052777782159976,-0.116666675074056,0.0717766657471657,-0.0491746515035629,-0.0259617734700441
0,1.04305556762637,-0.055555559848502,-0.0972222251763917,0.0897971913218498,0.114842668175697,0.0241291765123606
0,1.02500007039179,-0.0638888929140799,-0.0402777795226179,0.206777885556221,0.102014496922493,0.0479529201984406
0,1.02500007039179,-0.0583333375370279,-0.027777779924251,0.31703907251358,0.0561996027827263,0.0455094613134861
0,1.02500007039179,-0.0513888902767219,-0.0680555564078778,0.230601623654366,-0.0757472887635231,0.01588249579072
0,1.01527782720901,-0.0611111152255539,-0.120833338567854,0.00671951752156019,-0.0861319974064827,-0.00824668072164059
0,1.02916674604155,-0.0652777787193518,-0.123611110178398,-0.0326812900602817,-0.0384845100343227,0.00610865233466029
0,1.02500007039179,-0.0638888929140799,-0.0444444460554069,0.0842994004487991,-0.110261179506779,0.00488692196086049
0,1.01666671909226,-0.0513888902767219,-0.0402777795226179,0.108428582549095,-0.204639852046967,-0.0262672062963247
0,1.01666671909226,-0.0625000010308258,-0.0541666679652478,0.119424156844616,-0.240986332297325,-0.00580321997404099
0,1.02361117850853,-0.0625000010308258,-0.0944444474878658,0.114842668175697,-0.12705996632576,0.00916297826915979
0,1.0333333244436,-0.0791666671619817,-0.0736111117849297,0.196393176913261,-0.170431405305862,-0.0280998013913631
0,1.02222228662528,-0.0680555564078778,-0.0805555590452358,0.145996794104576,-0.145080491900444,-0.0149661982432008
0,1.02638896227504,-0.0513888902767219,-0.118055554801345,-0.00122173049021512,-0.0647517144680023,-0.019547687843442
0,1.0125000434425,-0.052777782159976,-0.0750000036681839,0.0604756586253643,-0.181121543049812,-0.0268780700862408
0,1.01944450285877,-0.0486111125881959,-0.0861111144222878,0.0384845100343227,-0.0873537287116051,-0.0268780700862408
0,1.02638896227504,-0.0513888902767219,-0.111111119697004,-0.0229074470698834,0.0516181141138077,0.00671951752156019
0,1.02222228662528,-0.0513888902767219,-0.120833338567854,-0.0711658000946045,0.144164204597473,0.0381790772080422
0,1.02500007039179,-0.0597222233422998,-0.100000002864918,-0.111482910811901,0.291382730007172,0.0183259565383196
0,1.01944450285877,-0.0486111125881959,-0.123611110178398,-0.125838235020638,0.453567445278168,0.0583376325666905
0,1.03194452980806,-0.0458333348996699,-0.0652777787193518,0.133474051952362,0.261450320482254,0.245262399315834
0,1.05000002704265,-0.0861111144222878,-0.0750000036681839,0.00488692196086049,0.0326812900602817,0.0748309940099716
0,1.0305556379248,-0.0833333367337618,-0.0861111144222878,-0.103236228227615,0.0784961804747581,0.0610865242779255
0,0.979166735492117,-0.0722222259796579,-0.026388891079988,-0.196393176913261,-0.17409659922123,-0.00610865233466029
5,0.990277773310434,-0.0486111125881959,-0.00972222266958873,-0.261144906282425,-0.521984338760376,0.00549778714776039
5,1.00972225967599,-0.052777782159976,-0.0402777795226179,-0.235488548874855,-0.436463207006455,0.158214092254639
5,1.08194444310977,-0.0625000010308258,-0.130555557438704,-0.101403631269932,-0.00152716308366507,0.0250454749912024
5,1.06527783775844,-0.0750000036681839,-0.151388899219622,-0.0983493030071259,0.138055548071861,-0.0314595587551594
5,0.959722249126559,-0.125000002061652,-0.0944444474878658,-0.0742201283574104,-0.064446285367012,-0.0363464802503586
5,1.00555558402623,-0.0750000036681839,-0.0541666679652478,-0.064446285367012,-0.144469633698463,-0.0134390350431204
5,1.00138890837647,-0.0708333340964038,-0.0680555564078778,-0.00946841109544039,-0.409585148096085,-0.103847093880177
5,1.00555558402623,-0.0847222225390337,-0.0388888906783549,0.0558941699564457,-0.394008070230484,-0.0583376325666905
5,1.05555559457566,-0.0625000010308258,-0.151388899219622,0.0913243517279625,0.096211276948452,0.00977384392172098
5,1.0361111082101,-0.0583333375370279,-0.12916666555545,0.143247902393341,0.142942473292351,0.0390953756868839
5,1.01111115155925,-0.0625000010308258,-0.126388893944906,-0.0604756586253643,-0.0183259565383196,0.0500909499824047
5,1.01388893532575,-0.0805555590452358,-0.105555564319952,-0.0348193198442459,-0.154854342341423,0.0418442711234093
5,0.998611124609959,-0.0583333375370279,-0.120833338567854,0.12705996632576,-0.137139245867729,0.00244346098043024
5,1.03194452980806,-0.0569444456537738,-0.104166672436698,0.0299323964864016,-0.11087204515934,-0.0122173046693206
5,1.02222228662528,-0.0638888929140799,-0.102777780553444,0.0546724386513233,-0.0500909499824047,0.0360410511493683
5,1.00416669214298,-0.0652777787193518,-0.0944444474878658,0.200363799929619,-0.0626136884093285,0.037568211555481
5,0.99583334084345,-0.0750000036681839,-0.105555564319952,0.0849102661013603,-0.368657171726227,-0.0311541277915239
5,1.00555558402623,-0.0722222259796579,-0.150000007336368,-0.11636982858181,-0.411723166704178,-0.0534507073462009
5,1.04861113515939,-0.055555559848502,-0.172222228844576,-0.242513507604599,-0.0125227374956012,-0.116675265133381
5,1.01111115155925,-0.0486111125881959,-0.111111119697004,-0.00397062394768,-0.0308486949652433,-0.0525344125926495
5,0.993055557076942,-0.0819444448505077,-0.134722233088466,0.0604756586253643,-0.22235494852066,-0.0268780700862408
5,1.02222228662528,-0.0888888921108138,-0.180555567988136,0.0183259565383196,-0.182343274354935,-0.0293215326964855
5,1.02777785415829,-0.0847222225390337,-0.184722231481934,-0.0772744566202164,-0.096211276948452,-0.02382374368608
5,1.03750000009336,-0.0902777839940679,-0.158333334323963,0.0601702257990837,-0.0659734457731247,-0.00671951752156019
5,1.04305556762637,-0.0888888921108138,-0.17361112072783,0.193033412098885,0.0956004112958908,-0.0235183127224445
5,1.01944450285877,-0.0694444482911319,-0.177777784221628,0.200363799929619,0.180816113948822,0.0354301854968071
5,1.02222228662528,-0.0791666671619817,-0.181944447715425,0.0708603709936142,0.261144906282425,0.0253509078174829
5,1.02222228662528,-0.0791666671619817,-0.181944447715425,0.0980438739061356,0.289244681596756,0.0256563406437635
5,1.08888890252604,-0.133333341205212,-0.162500009973726,0.0488692186772823,0.405614525079727,0.0250454749912024
5,0.979166735492117,-0.0694444482911319,-0.0680555564078778,0.191506251692772,0.0232128798961639,0.0500909499824047
5,0.975000059842355,-0.055555559848502,-0.0791666671619817,0.193949714303017,-0.265726387500763,0.0412334054708481
5,1.02222228662528,-0.0722222259796579,-0.14583334384257,0.0335975885391235,-0.283746898174286,0.01191187184304
5,1.02222228662528,-0.0722222259796579,-0.14583334384257,0.0167987942695618,-0.0290160998702049,0.0164933614432812
5,1.02361117850853,-0.0736111117849297,-0.14722222356986,0.0113010071218014,0.0867428630590439,0.0149661982432008
5,1.00138890837647,-0.0666666706026059,-0.1194444466846,-0.00733038317412138,-0.0122173046693206,0.00794124789535999
5,1.00138890837647,-0.0666666706026059,-0.1194444466846,0.00397062394768,-0.0943786799907684,0.0140499006956816
5,1.01388893532575,-0.0750000036681839,-0.125000002061652,-0.00152716308366507,-0.0250454749912024,0.00946841109544039
5,1.02777785415829,-0.0722222259796579,-0.152777778946911,-0.00580321997404099,0.0748309940099716,-0.00580321997404099
5,1.02638896227504,-0.0722222259796579,-0.14583334384257,-0.011606439948082,0.0916297882795334,-0.00122173049021512
5,1.01527782720901,-0.0722222259796579,-0.131944449321958,-0.00702495034784079,0.013744467869401,-0.00152716308366507
5,1.00833336779274,-0.0750000036681839,-0.136111112815755,-0.0103847095742822,-0.0241291765123606,0.000305432622553781
5,1.01944450285877,-0.0805555590452358,-0.144444451959316,-0.00427605677396059,0.000305432622553781,0.00641408516094089
5,1.02083339474202,-0.0763888894734557,-0.150000007336368,-0.00427605677396059,0.0342084541916847,-0.00885754637420177
5,1.02083339474202,-0.0694444482911319,-0.14722222356986,0.00885754637420177,0.0192422550171614,0.00519235478714108
5,1.01111115155925,-0.0777777813567098,-0.144444451959316,0.021685715764761,0.011606439948082,-0.00610865233466029
5,1.0125000434425,-0.0750000036681839,-0.144444451959316,0.0363464802503586,0.00916297826915979,-0.00885754637420177
5,1.01527782720901,-0.0777777813567098,-0.14722222356986,0.0537561401724815,0.01191187184304,-0.00580321997404099
5,1.01527782720901,-0.0819444448505077,-0.148611115453114,0.0561996027827263,0.0140499006956816,-0.0021380283869803
5,1.0125000434425,-0.0791666671619817,-0.14722222356986,0.0574213340878487,-0.00946841109544039,0.00610865233466029
5,1.00972225967599,-0.0750000036681839,-0.151388899219622,0.0797179117798805,-0.0250454749912024,-0.00183259579353034
5,1.01527782720901,-0.0805555590452358,-0.154166670830166,0.0705549344420433,-0.0247400421649218,-0.0021380283869803
5,1.01805561097552,-0.0819444448505077,-0.16527778158427,0.0693332031369209,-0.0149661982432008,-0.0021380283869803
5,1.0125000434425,-0.0763888894734557,-0.154166670830166,0.0711658000946045,-0.0360410511493683,0.0106901414692402
5,1.00555558402623,-0.0736111117849297,-0.13750000469901,0.0620028227567673,-0.0864374339580536,0.0219911485910416
5,1.00555558402623,-0.0708333340964038,-0.12916666555545,0.0507018156349659,-0.124921940267086,0.019547687843442
5,1.00555558402623,-0.0652777787193518,-0.13750000469901,0.0357356183230877,-0.16371189057827,0.0271835029125214
5,1.00277780025972,-0.0652777787193518,-0.144444451959316,0.0125227374956012,-0.202807262539864,0.0400116741657257
5,1.00555558402623,-0.0680555564078778,-0.134722233088466,-0.00946841109544039,-0.244040668010712,0.0311541277915239
5,1.01805561097552,-0.0680555564078778,-0.140277788465518,-0.0613919571042061,-0.197920337319374,0.0213802829384804
5,1.02916674604155,-0.055555559848502,-0.130555557438704,-0.0418442711234093,-0.142331600189209,0.0265726372599602
5,1.02916674604155,-0.055555559848502,-0.134722233088466,-0.0143553335219622,-0.104152522981167,0.0455094613134861
5,1.02222228662528,-0.0597222233422998,-0.13750000469901,-0.0244346093386412,-0.10048733651638,0.0366519130766392
5,1.01944450285877,-0.0666666706026059,-0.154166670830166,-0.0723875313997269,-0.0928515195846558,0.0244346093386412
5,1.02777785415829,-0.0652777787193518,-0.154166670830166,-0.146302223205566,-0.019547687843442,-0.00244346098043024
5,1.02638896227504,-0.0583333375370279,-0.141666668192807,-0.144164204597473,0.029626963660121,0.0204639863222837
5,1.01666671909226,-0.0486111125881959,-0.125000002061652,-0.124921940267086,-0.000916297896765172,0.0436768643558025
5,1.00555558402623,-0.0472222237439329,-0.102777780553444,-0.133474051952362,-0.0812450796365738,0.0494800843298435
5,0.993055557076942,-0.055555559848502,-0.105555564319952,-0.16401731967926,-0.189062789082527,0.0604756586253643
5,1.00694447590948,-0.0611111152255539,-0.122222230451108,-0.17989981174469,-0.213497400283814,0.0537561401724815
5,1.01527782720901,-0.0611111152255539,-0.13750000469901,-0.181121543049812,-0.153632611036301,0.0580321997404099
5,1.01805561097552,-0.0652777787193518,-0.138888896582264,-0.166460782289505,-0.122783914208412,0.0632245540618896
5,1.02361117850853,-0.0791666671619817,-0.166666673467524,-0.162490159273148,-0.0806342139840126,0.0565050356090069
5,1.02222228662528,-0.0847222225390337,-0.184722231481934,-0.168598800897598,-0.021685715764761,0.0400116741657257
5,1.02083339474202,-0.0902777839940679,-0.200000005729836,-0.164933621883392,0.00519235478714108,0.0256563406437635
5,1.02222228662528,-0.0930555616825939,-0.193055558469529,-0.156076073646545,0.0497855171561241,0.0134390350431204
5,1.02083339474202,-0.102777780553444,-0.179166676104882,-0.145385921001434,0.0623082555830479,0.0128281703218818
5,1.01666671909226,-0.104166672436698,-0.179166676104882,-0.151189148426056,0.0784961804747581,-0.00122173049021512
5,1.0125000434425,-0.0944444474878658,-0.176388892338373,-0.144164204597473,0.076052725315094,-0.00885754637420177
5,1.01388893532575,-0.0861111144222878,-0.176388892338373,-0.106901414692402,0.0455094613134861,0.019547687843442
5,1.00833336779274,-0.0916666697993398,-0.162500009973726,-0.0910189226269722,0.0113010071218014,0.0152716310694814
5,1.00277780025972,-0.0888888921108138,-0.168055565350778,-0.076052725315094,-0.0033597587607801,0.0271835029125214
5,1.00000001649321,-0.0875000002275597,-0.179166676104882,-0.0607810914516449,-0.0256563406437635,0.0253509078174829
5,1.00416669214298,-0.0875000002275597,-0.180555567988136,-0.0687223374843597,-0.0601702257990837,0.0302378293126821
5,1.00000001649321,-0.0847222225390337,-0.17361112072783,-0.0555887371301651,-0.0949895456433296,0.0384845100343227
5,1.00555558402623,-0.0902777839940679,-0.175000000455119,-0.0513126812875271,-0.115758962929249,0.0332921557128429
5,1.00555558402623,-0.0902777839940679,-0.175000000455119,-0.0433714315295219,-0.0943786799907684,0.0397062413394451
5,1.0125000434425,-0.0916666697993398,-0.172222228844576,-0.0314595587551594,-0.0757472887635231,0.0345138870179653
5,1.00972225967599,-0.0916666697993398,-0.172222228844576,0.00122173049021512,-0.0864374339580536,0.0455094613134861
5,1.00972225967599,-0.0916666697993398,-0.19166667874224,0.03176499158144,-0.113010071218014,0.0439822971820831
5,1.00972225967599,-0.0916666697993398,-0.197222234119292,0.0277943685650826,-0.11117747426033,0.0287106670439243
5,1.01944450285877,-0.102777780553444,-0.215277779977737,0.0280998013913631,-0.0149661982432008,0.0183259565383196
5,1.02916674604155,-0.115277783190802,-0.233333350148112,0.0424551330506802,0.101098194718361,-0.00244346098043024
5,1.01944450285877,-0.111111119697004,-0.238888893369199,0.0742201283574104,0.144469633698463,-0.00244346098043024
5,1.00277780025972,-0.105555564319952,-0.211111128639904,0.116980694234371,0.104457959532738,0.0045814891345799
5,0.998611124609959,-0.101388894748172,-0.190277786858986,0.123700208961964,0.0445931628346443,-0.013744467869401
5,0.997222232726705,-0.0958333393711199,-0.20138889761309,0.0522289797663689,-0.00244346098043024,-0.0106901414692402
5,0.997222232726705,-0.0916666697993398,-0.208333344873396,0.0262672062963247,-0.0186313893646002,-0.0045814891345799
5,1.00694447590948,-0.0777777813567098,-0.197222234119292,0.0167987942695618,-0.00152716308366507,0.0109955742955208
5,0.993055557076942,-0.0680555564078778,-0.19166667874224,0.01191187184304,-0.0335975885391235,0.0189368221908808
5,0.98888888142718,-0.0763888894734557,-0.202777789496344,-0.011606439948082,-0.098960168659687,0.0259617734700441
5,0.99583334084345,-0.0875000002275597,-0.216666671860991,-0.0543670058250427,-0.124921940267086,0.00366519158706069
5,1.00972225967599,-0.0958333393711199,-0.229166674498349,-0.0503963828086853,-0.0519235469400883,0.00580321997404099
5,1.0125000434425,-0.0972222251763917,-0.234722242031366,-0.0381790772080422,0.00977384392172098,0.00397062394768
5,1.00555558402623,-0.0986111170596459,-0.222222239394008,-0.0448985956609249,-0.0351247526705265,0.00977384392172098
5,1.00416669214298,-0.108333335930496,-0.223611131277262,-0.0394008085131645,-0.0604756586253643,0.0128281703218818
5,1.00694447590948,-0.116666675074056,-0.238888893369199,-0.0259617734700441,-0.019547687843442,0.0103847095742822
5,1.00694447590948,-0.112499999424294,-0.237500001485945,0.000916297896765172,0.00855211354792118,0.00519235478714108
5,1.00000001649321,-0.108333335930496,-0.231944458264858,0.0146607663482428,-0.0314595587551594,0.0109955742955208
5,0.986111194908388,-0.106944444047242,-0.220833347510754,0.0253509078174829,-0.110261179506779,0.0109955742955208
5,1.00000001649321,-0.115277783190802,-0.236111109602691,0.0268780700862408,-0.148134827613831,-0.000916297896765172
5,1.0125000434425,-0.125000002061652,-0.248611112240049,0.0638354197144508,-0.115453533828259,-0.0140499006956816
5,1.01527782720901,-0.120833338567854,-0.262500006760661,0.0949895456433296,-0.0711658000946045,-0.0210748501121998
5,1.01944450285877,-0.115277783190802,-0.25555557165632,0.111788339912891,0.0229074470698834,-0.0409279726445675
5,1.01527782720901,-0.112499999424294,-0.252777787889811,0.098960168659687,0.0824668109416962,-0.0552833043038845
5,1.01527782720901,-0.112499999424294,-0.252777787889811,0.0855211317539215,0.103541657328606,-0.0552833043038845
5,0.997222232726705,-0.0930555616825939,-0.202777789496344,0.0711658000946045,0.0684169083833694,-0.0607810914516449
5,0.997222232726705,-0.0930555616825939,-0.202777789496344,0.0791070461273193,-0.029626963660121,-0.029626963660121
5,0.983333411141879,-0.0791666671619817,-0.175000000455119,0.0571159012615681,-0.108123145997524,-0.0149661982432008
5,0.991666665193688,-0.0750000036681839,-0.179166676104882,0.0381790772080422,-0.148440256714821,-0.00641408516094089
5,1.00277780025972,-0.0652777787193518,-0.166666673467524,0.0308486949652433,-0.17440202832222,0.01588249579072
5,1.00277780025972,-0.0652777787193518,-0.166666673467524,0.0381790772080422,-0.207694187760353,0.0320704244077206
5,1.00694447590948,-0.0777777813567098,-0.202777789496344,0.0143553335219622,-0.205861583352089,0.021685715764761
5,1.00972225967599,-0.0722222259796579,-0.223611131277262,-0.00916297826915979,-0.182954147458077,0.0284052342176437
5,1.00972225967599,-0.0722222259796579,-0.223611131277262,-0.0412334054708481,-0.150578290224075,0.0455094613134861
5,1.00694447590948,-0.0722222259796579,-0.222222239394008,-0.0400116741657257,-0.150272846221924,0.0497855171561241
5,1.00138890837647,-0.0763888894734557,-0.218055563744246,-0.0436768643558025,-0.186313897371292,0.0452040284872055
5,1.00277780025972,-0.0875000002275597,-0.227777782615095,-0.0650571510195732,-0.1750128865242,0.0342084541916847
5,1.00972225967599,-0.0819444448505077,-0.236111109602691,-0.0583376325666905,-0.115453533828259,0.0149661982432008
5,1.01527782720901,-0.0875000002275597,-0.243055569018962,-0.0592539273202419,-0.081855945289135,0.0201585534960032
5,1.00972225967599,-0.0847222225390337,-0.220833347510754,-0.0659734457731247,-0.081855945289135,0.0262672062963247
5,0.99583334084345,-0.0847222225390337,-0.216666671860991,-0.0525344125926495,-0.119729585945606,0.0540615729987621
5,0.98888888142718,-0.0777777813567098,-0.200000005729836,-0.0366519130766392,-0.16371189057827,0.0513126812875271
5,0.994444448960196,-0.0805555590452358,-0.229166674498349,-0.0345138870179653,-0.15851953625679,0.0409279726445675
5,1.00416669214298,-0.0972222251763917,-0.247222220356795,-0.00946841109544039,-0.098960168659687,0.0198531206697226
5,1.0125000434425,-0.0944444474878658,-0.254166679773066,-0.00122173049021512,-0.027488935738802,0.0189368221908808
5,1.01111115155925,-0.100000002864918,-0.252777787889811,-0.00152716308366507,0.0201585534960032,0.0033597587607801
5,1.01111115155925,-0.0986111170596459,-0.244444460902216,-0.00855211354792118,0.0232128798961639,-0.0033597587607801
5,1.00416669214298,-0.0916666697993398,-0.236111109602691,-0.0021380283869803,0.0326812900602817,-0.00702495034784079
5,1.00000001649321,-0.0916666697993398,-0.24583335278547,0.013744467869401,0.0326812900602817,-0.00702495034784079
5,1.00416669214298,-0.100000002864918,-0.252777787889811,0.0161879286170006,0.0537561401724815,-0.0250454749912024
5,1.00138890837647,-0.101388894748172,-0.250000004123303,0.021685715764761,0.0922406539320946,-0.0265726372599602
5,1.00000001649321,-0.0944444474878658,-0.243055569018962,0.0128281703218818,0.10048733651638,-0.0235183127224445
5,0.99583334084345,-0.0875000002275597,-0.220833347510754,0.0131336031481624,0.0791070461273193,-0.0213802829384804
5,0.98888888142718,-0.0833333367337618,-0.218055563744246,-0.000610865245107561,0.0687223374843597,-0.0198531206697226
5,0.986111194908388,-0.0722222259796579,-0.212499996211229,-0.0360410511493683,0.0045814891345799,0.00763581553474069
5,0.98888888142718,-0.0750000036681839,-0.212499996211229,-0.0421497002243996,-0.0604756586253643,0.0122173046693206
5,0.987499989543926,-0.0722222259796579,-0.213888888094483,-0.04764748737216,-0.08460483700037,0.0311541277915239
5,0.994444448960196,-0.0722222259796579,-0.227777782615095,-0.0458148941397667,-0.0791070461273193,0.0320704244077206
5,1.00694447590948,-0.0791666671619817,-0.238888893369199,-0.0626136884093285,-0.0433714315295219,0.0384845100343227
5,1.00277780025972,-0.0833333367337618,-0.236111109602691,-0.0647517144680023,-0.0348193198442459,0.0418442711234093
5,0.998611124609959,-0.0833333367337618,-0.236111109602691,-0.0751364231109619,-0.0519235469400883,0.0397062413394451
5,0.99583334084345,-0.0930555616825939,-0.238888893369199,-0.0791070461273193,-0.0400116741657257,0.0222965814173222
5,1.00555558402623,-0.100000002864918,-0.259722222994153,-0.0830776765942574,0.0100792767480016,0.011606439948082
5,1.0125000434425,-0.0944444474878658,-0.256944463539574,-0.076052725315094,0.0568104684352875,0.00519235478714108
5,1.00277780025972,-0.0986111170596459,-0.252777787889811,-0.0705549344420433,0.0714712366461754,-0.00885754637420177
5,0.991666665193688,-0.100000002864918,-0.238888893369199,-0.05283984541893,0.0513126812875271,-0.0131336031481624
5,0.98888888142718,-0.102777780553444,-0.231944458264858,-0.0339030213654041,0.0455094613134861,-0.0186313893646002
5,0.99583334084345,-0.108333335930496,-0.231944458264858,-0.00824668072164059,0.0525344125926495,-0.0143553335219622
5,0.998611124609959,-0.104166672436698,-0.224999998848587,0.00885754637420177,0.0751364231109619,-0.019547687843442
5,0.994444448960196,-0.104166672436698,-0.230555566381603,0.0366519130766392,0.0613919571042061,-0.01191187184304
5,0.98888888142718,-0.101388894748172,-0.241666677135707,0.0421497002243996,0.021685715764761,-0.00366519158706069
5,0.987499989543926,-0.101388894748172,-0.250000004123303,0.0400116741657257,-0.00916297826915979,-0.0021380283869803
5,0.993055557076942,-0.101388894748172,-0.259722222994153,0.0482583530247212,-0.0149661982432008,0.00244346098043024
5,0.994444448960196,-0.108333335930496,-0.256944463539574,0.0656680166721344,-0.00610865233466029,-0.00702495034784079
5,0.99583334084345,-0.10972222781375,-0.25555557165632,0.0684169083833694,-0.00610865233466029,-0.0152716310694814
5,0.994444448960196,-0.0972222251763917,-0.268055574293678,0.0775798857212067,0.0146607663482428,-0.00610865233466029
5,1.00000001649321,-0.0986111170596459,-0.25555557165632,0.0681114718317986,0.00305432616733015,-0.0100792767480016
5,1.00277780025972,-0.0958333393711199,-0.250000004123303,0.0546724386513233,0.00549778714776039,-0.0143553335219622
5,0.998611124609959,-0.0902777839940679,-0.237500001485945,0.0458148941397667,0.00397062394768,-0.000610865245107561
5,0.994444448960196,-0.0916666697993398,-0.234722242031366,0.0369573459029198,-0.00946841109544039,-0.000305432622553781
5,0.98888888142718,-0.101388894748172,-0.24583335278547,0.0342084541916847,-0.0241291765123606,-0.00671951752156019
5,1.00833336779274,-0.102777780553444,-0.250000004123303,0.0378736443817616,-0.00824668072164059,-0.0131336031481624
5,1.00972225967599,-0.0972222251763917,-0.25555557165632,0.0510072484612465,0.0482583530247212,-0.015577063895762
5,1.00277780025972,-0.101388894748172,-0.254166679773066,0.0684169083833694,0.0726929605007172,-0.0140499006956816
5,0.997222232726705,-0.0986111170596459,-0.250000004123303,0.0552833043038845,0.0507018156349659,-0.0259617734700441
5,0.997222232726705,-0.104166672436698,-0.236111109602691,0.0546724386513233,0.0464257597923279,-0.0302378293126821
5,0.994444448960196,-0.0986111170596459,-0.243055569018962,0.0797179117798805,0.0693332031369209,-0.0323758572340012
5,0.997222232726705,-0.0958333393711199,-0.238888893369199,0.0965167060494423,0.0867428630590439,-0.0293215326964855
5,0.998611124609959,-0.0958333393711199,-0.241666677135707,0.100792765617371,0.0910189226269722,-0.0323758572340012
5,0.99583334084345,-0.0986111170596459,-0.236111109602691,0.0867428630590439,0.096211276948452,-0.0424551330506802
5,1.00138890837647,-0.101388894748172,-0.233333350148112,0.090408056974411,0.0916297882795334,-0.0412334054708481
5,1.00138890837647,-0.0972222251763917,-0.229166674498349,0.0842994004487991,0.10048733651638,-0.0348193198442459
5,1.00000001649321,-0.0930555616825939,-0.224999998848587,0.10048733651638,0.0879645943641663,-0.0394008085131645
5,0.99583334084345,-0.0930555616825939,-0.222222239394008,0.0910189226269722,0.0720821022987366,-0.037568211555481
5,0.998611124609959,-0.0875000002275597,-0.227777782615095,0.0885754600167274,0.0907134860754013,-0.0280998013913631
5,0.997222232726705,-0.0902777839940679,-0.223611131277262,0.064446285367012,0.10048733651638,-0.021685715764761
5,0.98888888142718,-0.0902777839940679,-0.223611131277262,0.0516181141138077,0.0690277740359306,-0.0293215326964855
5,0.991666665193688,-0.0847222225390337,-0.218055563744246,0.0332921557128429,0.00885754637420177,-0.0247400421649218
5,0.993055557076942,-0.0847222225390337,-0.2194444556275,0.0308486949652433,0.00519235478714108,-0.0143553335219622
5,0.994444448960196,-0.0861111144222878,-0.224999998848587,0.00519235478714108,0.00305432616733015,-0.00122173049021512
5,0.986111194908388,-0.101388894748172,-0.237500001485945,-0.013744467869401,-0.0342084541916847,0.0134390350431204
5,0.98888888142718,-0.101388894748172,-0.250000004123303,-0.017409659922123,-0.11636982858181,0.0100792767480016
5,1.00000001649321,-0.0944444474878658,-0.250000004123303,-0.0201585534960032,-0.123700208961964,0.00763581553474069
5,1.00000001649321,-0.0847222225390337,-0.247222220356795,-0.00183259579353034,-0.0598647929728031,0.019547687843442
5,0.998611124609959,-0.0972222251763917,-0.241666677135707,-0.00977384392172098,-0.0546724386513233,0.017409659922123
5,0.990277773310434,-0.100000002864918,-0.243055569018962,-0.0128281703218818,-0.0980438739061356,0.0186313893646002
5,0.994444448960196,-0.100000002864918,-0.254166679773066,-0.00763581553474069,-0.11606439948082,0.0235183127224445
5,1.00555558402623,-0.0986111170596459,-0.265277790527169,-0.00794124789535999,-0.0766635909676552,0.0207694191485643
5,1.00000001649321,-0.108333335930496,-0.247222220356795,-0.0198531206697226,-0.0363464802503586,0.0192422550171614
5,1.00000001649321,-0.108333335930496,-0.247222220356795,-0.0164933614432812,-0.0613919571042061,0.0229074470698834
5,0.987499989543926,-0.108333335930496,-0.247222220356795,-0.0222965814173222,-0.0925460830330849,0.00702495034784079
5,0.987499989543926,-0.108333335930496,-0.247222220356795,-0.0222965814173222,-0.0925460830330849,0.00702495034784079
5,1.00416669214298,-0.106944444047242,-0.252777787889811,0.00549778714776039,-0.0656680166721344,0.00366519158706069
5,1.00833336779274,-0.104166672436698,-0.250000004123303,-0.00855211354792118,-0.0455094613134861,0.0125227374956012
5,0.997222232726705,-0.0972222251763917,-0.240277785252453,-0.0427605658769607,-0.0424551330506802,0.0207694191485643
5,0.986111194908388,-0.0888888921108138,-0.233333350148112,-0.0577267669141293,-0.0830776765942574,0.0311541277915239
5,0.986111194908388,-0.0916666697993398,-0.233333350148112,-0.0607810914516449,-0.152105450630188,0.0363464802503586
5,0.98888888142718,-0.0944444474878658,-0.236111109602691,-0.0445931628346443,-0.176234617829323,0.0467311926186085
5,0.993055557076942,-0.0986111170596459,-0.250000004123303,-0.0433714315295219,-0.148440256714821,0.0497855171561241
5,1.00277780025972,-0.101388894748172,-0.251388896006557,-0.0458148941397667,-0.122783914208412,0.0485637858510017
5,1.00277780025972,-0.101388894748172,-0.250000004123303,-0.0598647929728031,-0.107206851243973,0.0516181141138077
5,0.99583334084345,-0.0986111170596459,-0.241666677135707,-0.0510072484612465,-0.0882700309157372,0.0580321997404099
5,0.991666665193688,-0.0986111170596459,-0.252777787889811,-0.0427605658769607,-0.108428582549095,0.0497855171561241
5,0.994444448960196,-0.0930555616825939,-0.238888893369199,-0.04764748737216,-0.115453533828259,0.0442877300083637
5,0.997222232726705,-0.0916666697993398,-0.237500001485945,-0.0479529201984406,-0.115758962929249,0.0406225398182869
5,0.99583334084345,-0.0902777839940679,-0.24583335278547,-0.0479529201984406,-0.0980438739061356,0.0369573459029198
5,1.00277780025972,-0.0944444474878658,-0.243055569018962,-0.0439822971820831,-0.0766635909676552,0.0384845100343227
5,1.00000001649321,-0.100000002864918,-0.236111109602691,-0.0305432621389627,-0.0448985956609249,0.0394008085131645
5,1.00277780025972,-0.0986111170596459,-0.240277785252453,-0.029626963660121,-0.0543670058250427,0.0277943685650826
5,1.00138890837647,-0.0875000002275597,-0.234722242031366,-0.0470366254448891,-0.0488692186772823,0.0125227374956012
5,1.00277780025972,-0.0847222225390337,-0.233333350148112,-0.0235183127224445,-0.013744467869401,0.017409659922123
5,1.00555558402623,-0.0875000002275597,-0.233333350148112,-0.0164933614432812,0.0189368221908808,-0.000610865245107561
5,1.00555558402623,-0.0847222225390337,-0.241666677135707,-0.0161879286170006,0.0464257597923279,-0.0143553335219622
5,1.00416669214298,-0.0916666697993398,-0.238888893369199,-0.00916297826915979,0.0684169083833694,-0.0152716310694814
5,1.00000001649321,-0.0930555616825939,-0.236111109602691,-0.00763581553474069,0.0665843114256859,-0.0277943685650826
5,0.991666665193688,-0.0972222251763917,-0.244444460902216,0.0128281703218818,0.0729983970522881,-0.0250454749912024
5,0.99583334084345,-0.0972222251763917,-0.236111109602691,0.0201585534960032,0.0928515195846558,-0.027488935738802
5,0.99583334084345,-0.0986111170596459,-0.25555557165632,0.0268780700862408,0.0922406539320946,-0.0244346093386412
5,0.998611124609959,-0.0986111170596459,-0.254166679773066,0.0284052342176437,0.0965167060494423,-0.0394008085131645
5,0.998611124609959,-0.0986111170596459,-0.254166679773066,0.0308486949652433,0.115453533828259,-0.0332921557128429
5,0.993055557076942,-0.100000002864918,-0.252777787889811,0.0409279726445675,0.10598511993885,-0.0369573459029198
5,0.990277773310434,-0.100000002864918,-0.250000004123303,0.0390953756868839,0.113620936870575,-0.0332921557128429
5,0.993055557076942,-0.10972222781375,-0.247222220356795,0.0189368221908808,0.0971275717020035,-0.027488935738802
5,0.991666665193688,-0.0944444474878658,-0.248611112240049,0.0167987942695618,0.0757472887635231,-0.017409659922123
5,0.993055557076942,-0.0930555616825939,-0.247222220356795,0.0180205255746841,0.0485637858510017,-0.00610865233466029
5,0.98888888142718,-0.0972222251763917,-0.252777787889811,0.00519235478714108,0.0378736443817616,-0.0180205255746841
5,0.993055557076942,-0.102777780553444,-0.247222220356795,-0.00366519158706069,0.0464257597923279,-0.0161879286170006
5,0.994444448960196,-0.108333335930496,-0.251388896006557,0.00794124789535999,0.0574213340878487,-0.00519235478714108
5,0.99583334084345,-0.106944444047242,-0.251388896006557,0.01588249579072,0.0412334054708481,-0.0109955742955208
5,0.994444448960196,-0.104166672436698,-0.251388896006557,0.00152716308366507,0.0287106670439243,-0.0122173046693206
5,0.991666665193688,-0.101388894748172,-0.240277785252453,0.00702495034784079,0.027488935738802,0.00122173049021512
5,0.990277773310434,-0.101388894748172,-0.240277785252453,0.00733038317412138,0.00794124789535999,0.00397062394768
5,0.993055557076942,-0.108333335930496,-0.240277785252453,0.0033597587607801,-0.00671951752156019,-0.00152716308366507
5,0.998611124609959,-0.105555564319952,-0.237500001485945,0.0219911485910416,-0.00580321997404099,-0.00427605677396059
5,0.99583334084345,-0.101388894748172,-0.234722242031366,0.0326812900602817,-0.0213802829384804,0.00152716308366507
5,0.994444448960196,-0.0944444474878658,-0.24583335278547,0.037568211555481,-0.0287106670439243,0.00946841109544039
5,0.99583334084345,-0.0986111170596459,-0.247222220356795,0.03176499158144,-0.0335975885391235,0.00366519158706069
5,0.99583334084345,-0.0944444474878658,-0.258333331110899,0.0284052342176437,-0.0293215326964855,-0.00671951752156019
5,0.99583334084345,-0.0986111170596459,-0.250000004123303,0.0213802829384804,-0.0293215326964855,0.0033597587607801
5,0.991666665193688,-0.0986111170596459,-0.238888893369199,0.0235183127224445,-0.0369573459029198,-0.00641408516094089
5,0.991666665193688,-0.0916666697993398,-0.238888893369199,0.0354301854968071,-0.0500909499824047,0.00305432616733015
5,0.993055557076942,-0.0888888921108138,-0.236111109602691,0.0357356183230877,-0.0418442711234093,0.00366519158706069
5,0.99583334084345,-0.0916666697993398,-0.237500001485945,0.0210748501121998,-0.0549778714776039,0.01588249579072
5,0.994444448960196,-0.0930555616825939,-0.247222220356795,0.0161879286170006,-0.0696386396884918,0.011606439948082
5,0.994444448960196,-0.0986111170596459,-0.247222220356795,0.0259617734700441,-0.0342084541916847,0.0045814891345799
5,1.00277780025972,-0.101388894748172,-0.250000004123303,0.0403171069920063,-0.0033597587607801,-0.00763581553474069
5,1.00138890837647,-0.104166672436698,-0.25555557165632,0.0415388382971287,-0.00946841109544039,-0.0131336031481624
5,0.997222232726705,-0.111111119697004,-0.265277790527169,0.0442877300083637,-0.00946841109544039,-0.0180205255746841
5,0.997222232726705,-0.112499999424294,-0.259722222994153,0.0467311926186085,-0.0109955742955208,-0.0189368221908808
5,0.99583334084345,-0.106944444047242,-0.263888898643915,0.0516181141138077,0.00977384392172098,-0.0354301854968071
5,0.981944519258625,-0.0944444474878658,-0.250000004123303,0.0726929605007172,0.029626963660121,-0.0262672062963247
5,0.981944519258625,-0.0944444474878658,-0.250000004123303,0.0907134860754013,-0.00610865233466029,-0.00152716308366507
5,0.994444448960196,-0.0930555616825939,-0.250000004123303,0.0910189226269722,-0.0568104684352875,-0.00519235478714108
5,1.00000001649321,-0.0916666697993398,-0.256944463539574,0.0959058403968811,-0.0507018156349659,-0.00977384392172098
5,1.00000001649321,-0.0916666697993398,-0.256944463539574,0.0452040284872055,0.0360410511493683,-0.00946841109544039
5,1.00555558402623,-0.0916666697993398,-0.265277790527169,0.0433714315295219,0.0668897479772568,-0.00580321997404099
5,0.99583334084345,-0.0972222251763917,-0.258333331110899,0.029626963660121,0.0406225398182869,-0.0229074470698834
5,0.997222232726705,-0.0972222251763917,-0.258333331110899,0.0164933614432812,0.0305432621389627,-0.0186313893646002
5,0.997222232726705,-0.0972222251763917,-0.258333331110899,0.021685715764761,0.0620028227567673,-0.0192422550171614
5,0.99583334084345,-0.0958333393711199,-0.261111114877407,0.0229074470698834,0.0555887371301651,-0.0109955742955208
5,0.993055557076942,-0.104166672436698,-0.258333331110899,0.0265726372599602,0.0290160998702049,-0.02382374368608
5,0.993055557076942,-0.104166672436698,-0.258333331110899,0.0430659987032413,0.0302378293126821,-0.0250454749912024
5,0.99583334084345,-0.0986111170596459,-0.254166679773066,0.0519235469400883,0.0607810914516449,-0.0226020142436027
5,0.998611124609959,-0.0958333393711199,-0.259722222994153,0.0400116741657257,0.0681114718317986,-0.01191187184304
5,0.998611124609959,-0.0972222251763917,-0.24583335278547,0.0198531206697226,0.0458148941397667,-0.0164933614432812
5,0.998611124609959,-0.0944444474878658,-0.243055569018962,0.00397062394768,0.02382374368608,-0.0134390350431204
5,0.99583334084345,-0.0861111144222878,-0.223611131277262,0.00488692196086049,0.0232128798961639,0.00122173049021512
5,0.99583334084345,-0.0875000002275597,-0.234722242031366,0.00763581553474069,0.0568104684352875,-0.0106901414692402
5,0.993055557076942,-0.0930555616825939,-0.238888893369199,0.0128281703218818,0.037568211555481,0.00122173049021512
5,0.991666665193688,-0.0986111170596459,-0.24583335278547,0.00824668072164059,0.0161879286170006,0.0027488935738802
5,0.997222232726705,-0.0944444474878658,-0.243055569018962,0.017409659922123,0.0140499006956816,-0.0033597587607801
5,0.997222232726705,-0.0986111170596459,-0.230555566381603,0.00946841109544039,0.0332921557128429,0.00152716308366507
5,1.00138890837647,-0.104166672436698,-0.236111109602691,0.00549778714776039,0.0354301854968071,-0.00519235478714108
5,0.997222232726705,-0.100000002864918,-0.238888893369199,0.0164933614432812,0.0293215326964855,-0.0125227374956012
5,0.993055557076942,-0.101388894748172,-0.236111109602691,0.0171042270958424,0.0293215326964855,-0.00733038317412138
5,0.98888888142718,-0.0972222251763917,-0.236111109602691,0.0171042270958424,0.0222965814173222,-0.0100792767480016
5,0.99583334084345,-0.0944444474878658,-0.236111109602691,0.0280998013913631,-0.0045814891345799,0.00152716308366507
5,0.993055557076942,-0.101388894748172,-0.243055569018962,0.0180205255746841,-0.0177150927484035,0.0027488935738802
5,0.99583334084345,-0.100000002864918,-0.234722242031366,0.00946841109544039,-0.0290160998702049,0.00641408516094089
5,1.00138890837647,-0.0986111170596459,-0.240277785252453,0.01191187184304,-0.00610865233466029,-0.000305432622553781
5,1.00277780025972,-0.0986111170596459,-0.243055569018962,0.00977384392172098,0.0027488935738802,0.00366519158706069
5,1.00000001649321,-0.0986111170596459,-0.234722242031366,0.00305432616733015,0.00183259579353034,-0.000305432622553781
5,0.997222232726705,-0.0944444474878658,-0.226388890731841,-0.00183259579353034,-0.0241291765123606,0.00397062394768
5,0.99583334084345,-0.100000002864918,-0.233333350148112,0.000305432622553781,-0.0277943685650826,0.0045814891345799
5,0.99583334084345,-0.100000002864918,-0.231944458264858,-0.00519235478714108,-0.0342084541916847,0.00885754637420177
5,0.998611124609959,-0.106944444047242,-0.240277785252453,-0.00122173049021512,-0.0247400421649218,0.00946841109544039
5,0.997222232726705,-0.0986111170596459,-0.248611112240049,0.000305432622553781,-0.0219911485910416,0.0021380283869803
5,0.998611124609959,-0.104166672436698,-0.24583335278547,0.00855211354792118,-0.0320704244077206,0.0045814891345799
5,1.00277780025972,-0.102777780553444,-0.248611112240049,0.00916297826915979,-0.0198531206697226,0.0021380283869803
5,0.997222232726705,-0.0986111170596459,-0.244444460902216,0.0171042270958424,0.0021380283869803,-0.00122173049021512
5,0.99583334084345,-0.0972222251763917,-0.231944458264858,0.00549778714776039,-0.0021380283869803,-0.0021380283869803
5,0.993055557076942,-0.0972222251763917,-0.241666677135707,0.00885754637420177,-0.0372627787292004,0.0021380283869803
5,0.99583334084345,-0.0986111170596459,-0.234722242031366,0.011606439948082,-0.0592539273202419,0.00763581553474069
5,0.99583334084345,-0.0930555616825939,-0.243055569018962,0.0140499006956816,-0.0299323964864016,0.00916297826915979
5,0.99583334084345,-0.0930555616825939,-0.243055569018962,0.0171042270958424,-0.0186313893646002,0.00305432616733015
5,0.993055557076942,-0.0944444474878658,-0.24583335278547,0.00397062394768,-0.00977384392172098,0.00610865233466029
5,0.993055557076942,-0.0930555616825939,-0.236111109602691,-0.00733038317412138,-0.0323758572340012,-0.0027488935738802
5,0.993055557076942,-0.0930555616825939,-0.236111109602691,-0.0311541277915239,-0.0332921557128429,0.00366519158706069
5,0.991666665193688,-0.0930555616825939,-0.234722242031366,-0.0247400421649218,-0.0357356183230877,0.0103847095742822
5,0.998611124609959,-0.0972222251763917,-0.243055569018962,-0.0167987942695618,-0.00855211354792118,0.0189368221908808
5,0.998611124609959,-0.0972222251763917,-0.243055569018962,-0.01191187184304,-0.0253509078174829,0.0146607663482428
5,1.00138890837647,-0.108333335930496,-0.243055569018962,-0.0134390350431204,-0.0259617734700441,0.00366519158706069
5,0.998611124609959,-0.101388894748172,-0.24583335278547,-0.00977384392172098,-0.00580321997404099,0.00733038317412138
5,0.998611124609959,-0.101388894748172,-0.24583335278547,-0.00733038317412138,0.0033597587607801,0.0021380283869803
5,0.99583334084345,-0.104166672436698,-0.25555557165632,-0.00183259579353034,-0.00183259579353034,0.00794124789535999
5,0.99583334084345,-0.10972222781375,-0.252777787889811,0.0045814891345799,-0.013744467869401,-0.00122173049021512
5,0.998611124609959,-0.100000002864918,-0.269444466176932,-0.00733038317412138,-0.00152716308366507,0.00549778714776039
5,0.99583334084345,-0.100000002864918,-0.263888898643915,-0.00549778714776039,0.0140499006956816,0.0045814891345799
5,0.991666665193688,-0.0972222251763917,-0.251388896006557,-0.0045814891345799,-0.00305432616733015,0.00702495034784079
5,0.987499989543926,-0.0972222251763917,-0.258333331110899,0.00122173049021512,-0.0210748501121998,0.0106901414692402
5,0.98888888142718,-0.0986111170596459,-0.251388896006557,0.00366519158706069,-0.0140499006956816,0.00183259579353034
5,0.99583334084345,-0.111111119697004,-0.256944463539574,-0.00794124789535999,0.000305432622553781,-0.00152716308366507
5,0.99583334084345,-0.104166672436698,-0.25555557165632,-0.00366519158706069,0.01588249579072,0.0106901414692402
5,0.993055557076942,-0.102777780553444,-0.251388896006557,0.0122173046693206,-0.00427605677396059,-0.000305432622553781
5,0.99583334084345,-0.101388894748172,-0.248611112240049,0.00702495034784079,-0.0271835029125214,-0.00916297826915979
5,0.99583334084345,-0.101388894748172,-0.256944463539574,-0.00305432616733015,-0.0100792767480016,0.00610865233466029
5,0.994444448960196,-0.0986111170596459,-0.250000004123303,-0.00183259579353034,0.00702495034784079,0.00946841109544039
5,0.994444448960196,-0.105555564319952,-0.252777787889811,0.00183259579353034,-0.00122173049021512,0.00122173049021512
5,0.99583334084345,-0.105555564319952,-0.24583335278547,-0.00397062394768,-0.0180205255746841,0.000610865245107561
5,0.998611124609959,-0.104166672436698,-0.261111114877407,0.0027488935738802,-0.00824668072164059,-0.00305432616733015
5,1.00000001649321,-0.106944444047242,-0.25555557165632,0.0106901414692402,0.0140499006956816,0.000610865245107561
5,0.99583334084345,-0.105555564319952,-0.25555557165632,0.00397062394768,0.0213802829384804,-0.000305432622553781
5,0.993055557076942,-0.0944444474878658,-0.250000004123303,0.00946841109544039,0.017409659922123,-0.00366519158706069
5,0.993055557076942,-0.0986111170596459,-0.247222220356795,0.0113010071218014,-0.0033597587607801,-0.00824668072164059
5,0.997222232726705,-0.104166672436698,-0.250000004123303,0.00702495034784079,0.00397062394768,-0.00152716308366507
5,0.997222232726705,-0.104166672436698,-0.251388896006557,0.00183259579353034,0.0146607663482428,-0.00824668072164059
5,0.993055557076942,-0.104166672436698,-0.25555557165632,0.01191187184304,0.01588249579072,-0.00763581553474069
5,0.99583334084345,-0.101388894748172,-0.252777787889811,0.0146607663482428,-0.00733038317412138,0.00244346098043024
5,0.997222232726705,-0.101388894748172,-0.252777787889811,0.00244346098043024,0.0134390350431204,-0.00855211354792118
5,1.00000001649321,-0.0986111170596459,-0.261111114877407,-0.00488692196086049,0.0299323964864016,-0.00488692196086049
5,0.990277773310434,-0.0944444474878658,-0.256944463539574,-0.00610865233466029,0.01191187184304,-0.00305432616733015
5,0.987499989543926,-0.0916666697993398,-0.244444460902216,-0.0219911485910416,-0.0271835029125214,-0.000916297896765172
5,0.997222232726705,-0.0972222251763917,-0.244444460902216,-0.00244346098043024,0.00549778714776039,0.00366519158706069
5,1.00277780025972,-0.101388894748172,-0.248611112240049,0.00152716308366507,0.0351247526705265,0.0021380283869803
5,1.00277780025972,-0.101388894748172,-0.248611112240049,0.00702495034784079,0.0354301854968071,-0.00671951752156019
5,0.993055557076942,-0.0958333393711199,-0.24583335278547,-0.00763581553474069,0.0100792767480016,-0.00549778714776039
5,0.993055557076942,-0.101388894748172,-0.244444460902216,-0.00244346098043024,0.00427605677396059,-0.0021380283869803
5,0.994444448960196,-0.102777780553444,-0.252777787889811,0.00763581553474069,0.02382374368608,-0.00580321997404099
5,0.99583334084345,-0.0986111170596459,-0.24583335278547,0.00916297826915979,0.0290160998702049,-0.0143553335219622
5,0.994444448960196,-0.0930555616825939,-0.238888893369199,0.00519235478714108,0.0192422550171614,-0.000610865245107561
5,0.991666665193688,-0.0916666697993398,-0.238888893369199,-0.0027488935738802,-0.00397062394768,-0.00702495034784079
5,0.99583334084345,-0.0986111170596459,-0.240277785252453,0.00794124789535999,-0.0164933614432812,0.00366519158706069
5,0.99583334084345,-0.0930555616825939,-0.248611112240049,0.0027488935738802,0.0149661982432008,0.0045814891345799
5,0.99583334084345,-0.101388894748172,-0.250000004123303,-0.00580321997404099,0.0226020142436027,-0.00397062394768
5,0.991666665193688,-0.100000002864918,-0.256944463539574,0.000916297896765172,0.0045814891345799,-0.00244346098043024
5,0.990277773310434,-0.0986111170596459,-0.24583335278547,0.00244346098043024,0.000305432622553781,-0.00305432616733015
5,0.993055557076942,-0.100000002864918,-0.244444460902216,0.0027488935738802,0.000916297896765172,-0.00794124789535999
5,0.993055557076942,-0.0944444474878658,-0.251388896006557,0.00610865233466029,-0.00519235478714108,0.0027488935738802
5,0.997222232726705,-0.100000002864918,-0.247222220356795,0.00549778714776039,-0.00183259579353034,0.0103847095742822
5,0.99583334084345,-0.104166672436698,-0.247222220356795,0.00733038317412138,-0.0122173046693206,0.000916297896765172
5,0.99583334084345,-0.102777780553444,-0.24583335278547,0.00366519158706069,-0.019547687843442,0.00183259579353034
5,1.00000001649321,-0.100000002864918,-0.256944463539574,0.0045814891345799,-0.0113010071218014,-0.000610865245107561
5,1.00000001649321,-0.106944444047242,-0.250000004123303,0.00122173049021512,0.00549778714776039,0.000610865245107561
5,0.99583334084345,-0.104166672436698,-0.24583335278547,0.01588249579072,0.0161879286170006,-0.00824668072164059
5,0.99583334084345,-0.0986111170596459,-0.238888893369199,0.0146607663482428,0.000916297896765172,0.0100792767480016
5,0.993055557076942,-0.104166672436698,-0.243055569018962,0.0177150927484035,-0.0204639863222837,0.000610865245107561
5,0.99583334084345,-0.104166672436698,-0.252777787889811,0.0180205255746841,-0.01588249579072,0.00763581553474069
5,1.00000001649321,-0.0972222251763917,-0.243055569018962,0.0268780700862408,0.00733038317412138,0.000305432622553781
5,0.99583334084345,-0.100000002864918,-0.238888893369199,0.0244346093386412,-0.00152716308366507,-0.00305432616733015
5,0.993055557076942,-0.0944444474878658,-0.238888893369199,0.00733038317412138,0.0045814891345799,-0.00427605677396059
5,0.98888888142718,-0.0916666697993398,-0.238888893369199,0.00610865233466029,-0.00152716308366507,0.00549778714776039
5,0.991666665193688,-0.0958333393711199,-0.247222220356795,-0.00122173049021512,-0.0302378293126821,0.00641408516094089
5,0.991666665193688,-0.0958333393711199,-0.247222220356795,-0.00366519158706069,-0.00610865233466029,0.00427605677396059
5,1.00277780025972,-0.108333335930496,-0.256944463539574,0.013744467869401,0.0235183127224445,-0.0033597587607801
5,1.00000001649321,-0.104166672436698,-0.252777787889811,0.0125227374956012,0.0183259565383196,0.00763581553474069
5,0.993055557076942,-0.104166672436698,-0.250000004123303,0.0113010071218014,0.0021380283869803,0.00397062394768
5,0.994444448960196,-0.104166672436698,-0.252777787889811,0.0177150927484035,0.0167987942695618,-0.0125227374956012
5,1.00277780025972,-0.105555564319952,-0.24583335278547,0.0250454749912024,0.0345138870179653,-0.00488692196086049
5,0.98888888142718,-0.104166672436698,-0.258333331110899,0.027488935738802,0.03176499158144,-0.00885754637420177
5,0.993055557076942,-0.106944444047242,-0.252777787889811,0.0244346093386412,0.0146607663482428,-0.0100792767480016
5,0.994444448960196,-0.0986111170596459,-0.238888893369199,0.0198531206697226,0.0329867228865623,0.00122173049021512
5,0.991666665193688,-0.0930555616825939,-0.240277785252453,0.0226020142436027,0.0253509078174829,0.00122173049021512
5,0.990277773310434,-0.0930555616825939,-0.236111109602691,0.0229074470698834,0.0103847095742822,-0.00152716308366507
5,0.990277773310434,-0.102777780553444,-0.24583335278547,0.013744467869401,-0.00366519158706069,0.00702495034784079
5,0.997222232726705,-0.104166672436698,-0.254166679773066,0.0140499006956816,0.00519235478714108,-0.000305432622553781
5,0.997222232726705,-0.101388894748172,-0.248611112240049,0.0198531206697226,0.0128281703218818,0.0027488935738802
5,1.00000001649321,-0.100000002864918,-0.244444460902216,0.0226020142436027,0.0183259565383196,0.00183259579353034
5,0.99583334084345,-0.101388894748172,-0.240277785252453,0.0171042270958424,0.00580321997404099,-0.00427605677396059
5,0.99583334084345,-0.0986111170596459,-0.244444460902216,0.0192422550171614,-0.00183259579353034,-0.00488692196086049
5,0.994444448960196,-0.0944444474878658,-0.244444460902216,0.01191187184304,0.00305432616733015,0.0033597587607801
5,0.99583334084345,-0.101388894748172,-0.238888893369199,0.0103847095742822,0.00305432616733015,-0.00183259579353034
5,0.998611124609959,-0.0958333393711199,-0.24583335278547,0.0113010071218014,0.0183259565383196,-0.00794124789535999
5,1.00138890837647,-0.100000002864918,-0.243055569018962,0.0131336031481624,0.0219911485910416,0.000610865245107561
5,0.993055557076942,-0.102777780553444,-0.24583335278547,0.0140499006956816,0.019547687843442,-0.0027488935738802
5,0.993055557076942,-0.104166672436698,-0.244444460902216,0.00519235478714108,0.02382374368608,-0.0021380283869803
5,0.991666665193688,-0.104166672436698,-0.241666677135707,0.0152716310694814,0.0180205255746841,-0.000305432622553781
5,0.990277773310434,-0.10972222781375,-0.244444460902216,0.0180205255746841,0.00641408516094089,-0.00610865233466029
5,0.998611124609959,-0.104166672436698,-0.251388896006557,0.0103847095742822,-0.0033597587607801,-0.00366519158706069
5,0.997222232726705,-0.101388894748172,-0.251388896006557,0.0134390350431204,0.0232128798961639,-0.00916297826915979
5,0.993055557076942,-0.101388894748172,-0.243055569018962,0.0113010071218014,0.0140499006956816,0.00122173049021512
5,0.993055557076942,-0.102777780553444,-0.238888893369199,0.00885754637420177,-0.0146607663482428,0.000610865245107561
5,0.990277773310434,-0.0986111170596459,-0.234722242031366,-0.00580321997404099,-0.0198531206697226,0.0122173046693206
5,0.994444448960196,-0.100000002864918,-0.229166674498349,-0.0125227374956012,-0.013744467869401,0.00183259579353034
5,0.994444448960196,-0.100000002864918,-0.229166674498349,-0.0103847095742822,-0.0109955742955208,0.00427605677396059
5,1.00000001649321,-0.104166672436698,-0.236111109602691,-0.00488692196086049,-0.00427605677396059,0.00610865233466029
5,0.99583334084345,-0.104166672436698,-0.236111109602691,-0.00824668072164059,-0.0326812900602817,0.00885754637420177
5,0.99583334084345,-0.105555564319952,-0.247222220356795,-0.00855211354792118,-0.0339030213654041,0.0027488935738802
5,0.998611124609959,-0.104166672436698,-0.247222220356795,0.000916297896765172,-0.0235183127224445,0.00824668072164059
5,0.99583334084345,-0.106944444047242,-0.24583335278547,-0.00122173049021512,-0.01191187184304,-0.0033597587607801
5,0.99583334084345,-0.104166672436698,-0.250000004123303,-0.000916297896765172,0.00519235478714108,-0.00183259579353034
5,0.998611124609959,-0.101388894748172,-0.252777787889811,0.0113010071218014,-0.00244346098043024,-0.0033597587607801
5,0.993055557076942,-0.100000002864918,-0.241666677135707,0.011606439948082,-0.00549778714776039,-0.0021380283869803
5,0.997222232726705,-0.102777780553444,-0.241666677135707,0.00488692196086049,-0.00733038317412138,-0.00397062394768
5,0.99583334084345,-0.111111119697004,-0.250000004123303,0.0100792767480016,0.00824668072164059,-0.00183259579353034
5,0.994444448960196,-0.105555564319952,-0.248611112240049,0.00549778714776039,0.0027488935738802,-0.00671951752156019
5,0.994444448960196,-0.108333335930496,-0.251388896006557,0.00824668072164059,-0.00549778714776039,-0.0131336031481624
5,1.00000001649321,-0.104166672436698,-0.251388896006557,0.0122173046693206,-0.0125227374956012,-0.00794124789535999
5,0.994444448960196,-0.104166672436698,-0.251388896006557,0.0113010071218014,-0.0045814891345799,-0.00397062394768
5,0.993055557076942,-0.104166672436698,-0.254166679773066,0.00885754637420177,-0.00152716308366507,-0.00427605677396059
5,0.99583334084345,-0.0986111170596459,-0.248611112240049,-0.00152716308366507,0.0045814891345799,-0.0113010071218014
5,0.997222232726705,-0.0986111170596459,-0.24583335278547,-0.0033597587607801,0.00610865233466029,-0.01191187184304
5,0.998611124609959,-0.100000002864918,-0.240277785252453,0.000916297896765172,-0.0161879286170006,0.00183259579353034
5,0.998611124609959,-0.0958333393711199,-0.238888893369199,0.00183259579353034,-0.0100792767480016,0.00488692196086049
5,1.00000001649321,-0.0930555616825939,-0.236111109602691,-0.00977384392172098,0.00885754637420177,0.00733038317412138
5,1.00000001649321,-0.0916666697993398,-0.248611112240049,-0.0134390350431204,0.00305432616733015,0.00702495034784079
5,1.00000001649321,-0.0972222251763917,-0.238888893369199,-0.0244346093386412,-0.0125227374956012,0.00763581553474069
5,0.991666665193688,-0.101388894748172,-0.248611112240049,-0.0149661982432008,-0.017409659922123,0.0140499006956816
5,0.984722303025134,-0.108333335930496,-0.243055569018962,-0.00671951752156019,-0.0259617734700441,0.0100792767480016
5,0.99583334084345,-0.113888891307548,-0.24583335278547,-0.00427605677396059,-0.0201585534960032,-0.000610865245107561
5,0.998611124609959,-0.104166672436698,-0.250000004123303,0.00671951752156019,0.000610865245107561,0.00183259579353034
5,0.998611124609959,-0.104166672436698,-0.250000004123303,-0.00702495034784079,-0.00794124789535999,-0.00519235478714108
5,0.99583334084345,-0.0958333393711199,-0.250000004123303,-0.0186313893646002,0.000610865245107561,-0.00122173049021512
5,0.993055557076942,-0.0916666697993398,-0.237500001485945,-0.0226020142436027,-0.0207694191485643,0.00763581553474069
5,0.993055557076942,-0.0916666697993398,-0.237500001485945,-0.0167987942695618,-0.0268780700862408,0.00824668072164059
5,1.00000001649321,-0.0944444474878658,-0.252777787889811,-0.00977384392172098,-0.00366519158706069,0.00427605677396059
5,0.998611124609959,-0.0986111170596459,-0.250000004123303,-0.0122173046693206,0.01588249579072,-0.00305432616733015
5,0.998611124609959,-0.0986111170596459,-0.250000004123303,-0.00152716308366507,0.017409659922123,-0.0027488935738802
5,0.99583334084345,-0.0986111170596459,-0.243055569018962,-0.00641408516094089,0.00885754637420177,-0.000916297896765172
5,0.991666665193688,-0.10972222781375,-0.233333350148112,0.0033597587607801,0.0106901414692402,-0.00549778714776039
5,0.993055557076942,-0.102777780553444,-0.250000004123303,0.00702495034784079,0.00977384392172098,-0.000610865245107561
5,0.990277773310434,-0.105555564319952,-0.250000004123303,0.01191187184304,0.0125227374956012,-0.00366519158706069
5,0.98888888142718,-0.0986111170596459,-0.252777787889811,0.00885754637420177,0.0167987942695618,-0.0021380283869803
5,0.993055557076942,-0.0986111170596459,-0.243055569018962,0.0113010071218014,0.00244346098043024,0.00427605677396059
5,0.993055557076942,-0.0986111170596459,-0.243055569018962,0.0134390350431204,-0.0045814891345799,-0.000610865245107561
5,0.991666665193688,-0.0972222251763917,-0.252777787889811,0.00122173049021512,0.0033597587607801,-0.00244346098043024
5,0.998611124609959,-0.105555564319952,-0.252777787889811,0.00580321997404099,0.0143553335219622,-0.00122173049021512
5,0.997222232726705,-0.102777780553444,-0.24583335278547,0.00610865233466029,0.00610865233466029,-0.00183259579353034
5,0.998611124609959,-0.0986111170596459,-0.24583335278547,0.00519235478714108,0.00580321997404099,0.00183259579353034
5,0.997222232726705,-0.104166672436698,-0.243055569018962,0.0125227374956012,0.000305432622553781,-0.00122173049021512
5,0.990277773310434,-0.0972222251763917,-0.244444460902216,0.00885754637420177,0.00244346098043024,0.00397062394768
5,0.991666665193688,-0.101388894748172,-0.244444460902216,0.0103847095742822,0.00397062394768,0.0033597587607801
5,0.994444448960196,-0.0986111170596459,-0.243055569018962,0.00549778714776039,-0.00397062394768,0.0027488935738802
5,0.993055557076942,-0.0972222251763917,-0.250000004123303,0.0125227374956012,-0.013744467869401,0.0045814891345799
5,0.99583334084345,-0.101388894748172,-0.252777787889811,0.00641408516094089,-0.0146607663482428,-0.00183259579353034
5,0.99583334084345,-0.100000002864918,-0.243055569018962,0.00122173049021512,-0.0207694191485643,0.00122173049021512
5,0.997222232726705,-0.0986111170596459,-0.241666677135707,0.00305432616733015,-0.00671951752156019,0.00366519158706069
5,0.997222232726705,-0.0972222251763917,-0.259722222994153,0.00580321997404099,0.00946841109544039,0.00702495034784079
5,0.99583334084345,-0.0958333393711199,-0.250000004123303,-0.000610865245107561,0.00427605677396059,0.00519235478714108
5,0.993055557076942,-0.100000002864918,-0.252777787889811,0.00366519158706069,-0.00702495034784079,0.000916297896765172
5,0.99583334084345,-0.102777780553444,-0.252777787889811,0.00244346098043024,-0.0140499006956816,0.00549778714776039
5,1.00000001649321,-0.104166672436698,-0.244444460902216,0.00152716308366507,0.00244346098043024,0.00244346098043024
5,0.99583334084345,-0.101388894748172,-0.24583335278547,0.0106901414692402,0.0106901414692402,-0.000610865245107561
5,0.994444448960196,-0.106944444047242,-0.247222220356795,0.00366519158706069,-0.00946841109544039,-0.0021380283869803
5,0.991666665193688,-0.102777780553444,-0.24583335278547,-0.0027488935738802,-0.0232128798961639,0.00152716308366507
5,0.994444448960196,-0.0930555616825939,-0.252777787889811,-0.0131336031481624,-0.0299323964864016,0.00885754637420177
5,0.99583334084345,-0.0986111170596459,-0.258333331110899,-0.00610865233466029,-0.0113010071218014,0.0152716310694814
5,0.99583334084345,-0.106944444047242,-0.243055569018962,0.00122173049021512,0.00366519158706069,0.00885754637420177
5,0.990277773310434,-0.102777780553444,-0.250000004123303,0.0171042270958424,-0.00152716308366507,0.0033597587607801
5,0.991666665193688,-0.101388894748172,-0.25555557165632,0.013744467869401,-0.00855211354792118,0.00366519158706069
5,0.994444448960196,-0.101388894748172,-0.268055574293678,0.00641408516094089,0.00519235478714108,-0.00580321997404099
5,0.990277773310434,-0.105555564319952,-0.25555557165632,0.0122173046693206,0.00183259579353034,0.00122173049021512
5,0.993055557076942,-0.108333335930496,-0.263888898643915,0.0100792767480016,-0.0103847095742822,-0.00183259579353034
5,0.993055557076942,-0.105555564319952,-0.248611112240049,0.0128281703218818,0.00366519158706069,-0.00183259579353034
5,0.993055557076942,-0.101388894748172,-0.248611112240049,0.00977384392172098,0.013744467869401,-0.000305432622553781
5,0.993055557076942,-0.104166672436698,-0.250000004123303,0.0134390350431204,0.00305432616733015,-0.00488692196086049
5,0.993055557076942,-0.100000002864918,-0.258333331110899,0.0149661982432008,-0.00580321997404099,-0.000916297896765172
5,0.994444448960196,-0.102777780553444,-0.25555557165632,0.0186313893646002,-0.00488692196086049,0.000916297896765172
5,0.99583334084345,-0.101388894748172,-0.25555557165632,0.0198531206697226,-0.00855211354792118,-0.00702495034784079
5,0.993055557076942,-0.0986111170596459,-0.259722222994153,0.0134390350431204,-0.00152716308366507,-0.0045814891345799
5,0.99583334084345,-0.104166672436698,-0.248611112240049,0.0134390350431204,0.00305432616733015,-0.0027488935738802
5,0.99583334084345,-0.104166672436698,-0.248611112240049,0.00549778714776039,-0.00549778714776039,-0.000610865245107561
5,0.991666665193688,-0.0986111170596459,-0.25555557165632,0.01588249579072,-0.0033597587607801,-0.000916297896765172
5,0.993055557076942,-0.101388894748172,-0.244444460902216,0.01191187184304,-0.0103847095742822,-0.00152716308366507
5,0.993055557076942,-0.101388894748172,-0.244444460902216,0.0134390350431204,0.00366519158706069,0.00122173049021512
5,0.99583334084345,-0.101388894748172,-0.262500006760661,0.00397062394768,0.00152716308366507,-0.00763581553474069
5,0.994444448960196,-0.105555564319952,-0.265277790527169,0.00977384392172098,-0.00488692196086049,-0.00671951752156019
5,0.994444448960196,-0.105555564319952,-0.265277790527169,0.0113010071218014,0.017409659922123,-0.00702495034784079
5,0.997222232726705,-0.105555564319952,-0.256944463539574,0.00519235478714108,0.0177150927484035,-0.00946841109544039
5,0.99583334084345,-0.0986111170596459,-0.25555557165632,0.0128281703218818,0.0183259565383196,-0.00183259579353034
5,0.99583334084345,-0.0986111170596459,-0.25555557165632,0.00977384392172098,0.0177150927484035,-0.00519235478714108
5,0.98888888142718,-0.104166672436698,-0.25555557165632,0.0232128798961639,0.0164933614432812,-0.00824668072164059
5,0.98888888142718,-0.104166672436698,-0.256944463539574,0.0198531206697226,0.0128281703218818,-0.0131336031481624
5,0.987499989543926,-0.105555564319952,-0.258333331110899,0.017409659922123,0.0204639863222837,-0.00977384392172098
5,0.993055557076942,-0.104166672436698,-0.261111114877407,0.0122173046693206,0.0323758572340012,0.00183259579353034
5,0.99583334084345,-0.100000002864918,-0.254166679773066,0.00763581553474069,0.0113010071218014,-0.00488692196086049
5,0.994444448960196,-0.104166672436698,-0.265277790527169,0.00610865233466029,0.0106901414692402,0.0021380283869803
5,0.99583334084345,-0.104166672436698,-0.252777787889811,0.0045814891345799,0.00610865233466029,0.00488692196086049
5,0.986111194908388,-0.0986111170596459,-0.250000004123303,-0.00885754637420177,-0.0171042270958424,0.0027488935738802
5,0.991666665193688,-0.0930555616825939,-0.243055569018962,-0.011606439948082,-0.00152716308366507,0.00519235478714108
5,0.997222232726705,-0.0986111170596459,-0.247222220356795,0.00122173049021512,0.0125227374956012,-0.000305432622553781
5,0.993055557076942,-0.101388894748172,-0.250000004123303,0.00427605677396059,0.0305432621389627,-0.000305432622553781
5,0.99583334084345,-0.101388894748172,-0.256944463539574,0.00855211354792118,0.0198531206697226,-0.0033597587607801
5,0.993055557076942,-0.101388894748172,-0.250000004123303,0.01191187184304,0.00427605677396059,-0.00549778714776039
5,0.994444448960196,-0.104166672436698,-0.24583335278547,0.015577063895762,0.0180205255746841,-0.00549778714776039
5,0.994444448960196,-0.100000002864918,-0.251388896006557,0.0277943685650826,0.0271835029125214,-0.0149661982432008
5,0.997222232726705,-0.0986111170596459,-0.243055569018962,0.0265726372599602,0.0186313893646002,-0.00641408516094089
5,0.99583334084345,-0.0958333393711199,-0.252777787889811,0.0241291765123606,0.0103847095742822,-0.00824668072164059
5,0.994444448960196,-0.0972222251763917,-0.244444460902216,0.0299323964864016,0.00427605677396059,-0.00183259579353034
5,0.993055557076942,-0.0972222251763917,-0.240277785252453,0.0229074470698834,0.0045814891345799,-0.00916297826915979
5,0.998611124609959,-0.0986111170596459,-0.252777787889811,0.011606439948082,0.00610865233466029,0.00122173049021512
5,0.993055557076942,-0.100000002864918,-0.240277785252453,0.0177150927484035,-0.00855211354792118,0.00122173049021512
5,0.991666665193688,-0.101388894748172,-0.24583335278547,0.0207694191485643,-0.0180205255746841,0.00152716308366507
5,0.993055557076942,-0.101388894748172,-0.251388896006557,0.0204639863222837,0.0027488935738802,-0.00824668072164059
5,0.998611124609959,-0.102777780553444,-0.231944458264858,0.0164933614432812,-0.00763581553474069,-0.0045814891345799
5,0.98888888142718,-0.100000002864918,-0.240277785252453,0.0164933614432812,-0.0213802829384804,-0.0045814891345799
5,0.98888888142718,-0.100000002864918,-0.248611112240049,0.00824668072164059,-0.0293215326964855,-0.00122173049021512
5,0.98888888142718,-0.104166672436698,-0.24583335278547,0.0143553335219622,-0.0207694191485643,0.0033597587607801
5,0.993055557076942,-0.105555564319952,-0.250000004123303,0.00824668072164059,-0.0250454749912024,-0.00122173049021512
5,0.993055557076942,-0.106944444047242,-0.25555557165632,0.00488692196086049,-0.0268780700862408,0.00244346098043024
5,0.99583334084345,-0.101388894748172,-0.259722222994153,0.000916297896765172,-0.0189368221908808,0.00305432616733015
5,0.99583334084345,-0.0944444474878658,-0.262500006760661,-0.00305432616733015,-0.0045814891345799,-0.000916297896765172
5,0.99583334084345,-0.0986111170596459,-0.266666682410424,-0.000916297896765172,-0.00641408516094089,0.00305432616733015
5,0.998611124609959,-0.102777780553444,-0.252777787889811,-0.000305432622553781,-0.00244346098043024,-0.00366519158706069
5,0.99583334084345,-0.104166672436698,-0.250000004123303,-0.00366519158706069,0.00244346098043024,0.00519235478714108
5,0.98888888142718,-0.104166672436698,-0.248611112240049,-0.0033597587607801,-0.0103847095742822,0.0045814891345799
5,0.993055557076942,-0.104166672436698,-0.266666682410424,-0.00152716308366507,-0.017409659922123,-0.000305432622553781
5,1.00000001649321,-0.102777780553444,-0.259722222994153,0.00427605677396059,0.00641408516094089,0.000916297896765172
5,1.00000001649321,-0.102777780553444,-0.258333331110899,0.00366519158706069,0.0171042270958424,0.00305432616733015
5,0.99583334084345,-0.105555564319952,-0.252777787889811,0.00977384392172098,-0.00671951752156019,-0.00977384392172098
5,0.99583334084345,-0.0986111170596459,-0.247222220356795,-0.017409659922123,-0.00427605677396059,-0.00824668072164059
5,0.994444448960196,-0.0916666697993398,-0.247222220356795,-0.0152716310694814,-0.0161879286170006,0.00519235478714108
5,0.993055557076942,-0.0944444474878658,-0.250000004123303,-0.0146607663482428,-0.0143553335219622,0.00855211354792118
5,0.997222232726705,-0.0986111170596459,-0.25555557165632,-0.00794124789535999,0.0134390350431204,-0.000305432622553781
5,0.99583334084345,-0.106944444047242,-0.259722222994153,0.000305432622553781,0.0177150927484035,0.00427605677396059
5,0.993055557076942,-0.104166672436698,-0.256944463539574,0.0033597587607801,0.0109955742955208,-0.000305432622553781
5,0.994444448960196,-0.108333335930496,-0.251388896006557,0.00397062394768,0.0235183127224445,0.00580321997404099
5,0.994444448960196,-0.108333335930496,-0.251388896006557,0.0109955742955208,0.0210748501121998,-0.00488692196086049
5,0.99583334084345,-0.0986111170596459,-0.248611112240049,0.00671951752156019,0.0149661982432008,-0.01191187184304
5,0.997222232726705,-0.101388894748172,-0.258333331110899,0.00733038317412138,0.0161879286170006,-0.0027488935738802
5,0.997222232726705,-0.101388894748172,-0.258333331110899,0.00580321997404099,0.0226020142436027,-0.00488692196086049
5,0.99583334084345,-0.101388894748172,-0.258333331110899,0.00580321997404099,0.0134390350431204,0.00397062394768
5,1.00000001649321,-0.0972222251763917,-0.25555557165632,-0.00488692196086049,0.0177150927484035,-0.00702495034784079
5,1.00000001649321,-0.0972222251763917,-0.25555557165632,-0.00305432616733015,0.0265726372599602,-0.00183259579353034
5,0.998611124609959,-0.100000002864918,-0.248611112240049,0.00916297826915979,0.021685715764761,-0.00397062394768
5,1.00000001649321,-0.104166672436698,-0.254166679773066,0.013744467869401,0.021685715764761,-0.019547687843442
5,1.00000001649321,-0.104166672436698,-0.254166679773066,0.0354301854968071,0.0412334054708481,-0.0143553335219622
5,0.997222232726705,-0.0986111170596459,-0.252777787889811,0.0226020142436027,0.0458148941397667,-0.0152716310694814
5,0.99583334084345,-0.0972222251763917,-0.24583335278547,0.0271835029125214,0.0342084541916847,-0.015577063895762
5,0.993055557076942,-0.0958333393711199,-0.236111109602691,0.01191187184304,0.0302378293126821,-0.0161879286170006
5,0.99583334084345,-0.102777780553444,-0.244444460902216,0.0247400421649218,0.0287106670439243,-0.0167987942695618
5,0.99583334084345,-0.101388894748172,-0.243055569018962,0.029626963660121,0.029626963660121,-0.0171042270958424
5,0.99583334084345,-0.0944444474878658,-0.24583335278547,0.0323758572340012,0.0369573459029198,-0.00610865233466029
5,0.994444448960196,-0.101388894748172,-0.248611112240049,0.0226020142436027,0.0332921557128429,-0.0293215326964855
5,0.991666665193688,-0.102777780553444,-0.244444460902216,0.0277943685650826,0.0357356183230877,-0.015577063895762
5,1.00000001649321,-0.0875000002275597,-0.250000004123303,0.0342084541916847,0.0458148941397667,-0.0171042270958424
5,1.00000001649321,-0.0930555616825939,-0.240277785252453,0.0268780700862408,0.0519235469400883,-0.017409659922123
5,0.993055557076942,-0.100000002864918,-0.250000004123303,0.0284052342176437,0.0620028227567673,-0.0201585534960032
5,0.993055557076942,-0.104166672436698,-0.252777787889811,0.0277943685650826,0.0369573459029198,-0.0106901414692402
5,0.98888888142718,-0.104166672436698,-0.248611112240049,0.0323758572340012,0.0222965814173222,-0.0128281703218818
5,0.994444448960196,-0.104166672436698,-0.243055569018962,0.0171042270958424,0.00733038317412138,-0.0100792767480016
5,0.998611124609959,-0.0986111170596459,-0.248611112240049,0.0198531206697226,0.0439822971820831,-0.0045814891345799
5,0.998611124609959,-0.0986111170596459,-0.24583335278547,0.0256563406437635,0.0256563406437635,-0.0122173046693206
5,0.990277773310434,-0.0930555616825939,-0.224999998848587,0.00397062394768,0.0103847095742822,-0.00305432616733015
5,0.986111194908388,-0.0916666697993398,-0.234722242031366,-0.0100792767480016,-0.0161879286170006,-0.00122173049021512
5,0.997222232726705,-0.0861111144222878,-0.233333350148112,-0.0125227374956012,-0.0256563406437635,0.00885754637420177
5,0.994444448960196,-0.0958333393711199,-0.238888893369199,-0.00519235478714108,0.00763581553474069,0.00824668072164059
5,1.00000001649321,-0.0986111170596459,-0.238888893369199,-0.0027488935738802,0.0189368221908808,-0.00305432616733015
5,1.00416669214298,-0.104166672436698,-0.238888893369199,0.000610865245107561,0.0045814891345799,-0.00488692196086049
5,0.997222232726705,-0.0972222251763917,-0.236111109602691,-0.00183259579353034,0.015577063895762,-0.00244346098043024
5,0.997222232726705,-0.0916666697993398,-0.229166674498349,-0.00763581553474069,-0.00427605677396059,-0.00183259579353034
5,0.991666665193688,-0.0958333393711199,-0.236111109602691,0.00183259579353034,-0.0100792767480016,-0.00427605677396059
5,0.998611124609959,-0.0986111170596459,-0.227777782615095,0.0021380283869803,-0.00733038317412138,0.00152716308366507
5,1.00000001649321,-0.0944444474878658,-0.237500001485945,-0.00152716308366507,0.00855211354792118,-0.00122173049021512
5,1.00555558402623,-0.0944444474878658,-0.230555566381603,0.00519235478714108,0.0360410511493683,-0.00916297826915979
5,1.00694447590948,-0.0930555616825939,-0.24583335278547,-0.00702495034784079,0.0363464802503586,-0.00397062394768
5,1.00000001649321,-0.0944444474878658,-0.236111109602691,0.00366519158706069,0.0494800843298435,-0.00671951752156019
5,1.00555558402623,-0.0986111170596459,-0.233333350148112,-0.0329867228865623,0.0632245540618896,-0.0247400421649218
5,1.01388893532575,-0.0986111170596459,-0.24583335278547,-0.0473420582711697,0.117286130785942,-0.0351247526705265
5,1.0125000434425,-0.0944444474878658,-0.240277785252453,-0.0189368221908808,0.149356558918953,-0.0262672062963247
5,1.00277780025972,-0.0944444474878658,-0.233333350148112,-0.0280998013913631,0.164933621883392,-0.03176499158144
5,0.998611124609959,-0.0986111170596459,-0.2194444556275,-0.0113010071218014,0.147829383611679,-0.0421497002243996
5,0.99583334084345,-0.0902777839940679,-0.208333344873396,0.00366519158706069,0.131641462445259,-0.0372627787292004
5,1.00277780025972,-0.0972222251763917,-0.213888888094483,-0.0033597587607801,0.115758962929249,-0.0390953756868839
5,0.997222232726705,-0.0902777839940679,-0.213888888094483,-0.0149661982432008,0.120340451598167,-0.0397062413394451
5,0.991666665193688,-0.0875000002275597,-0.20138889761309,-0.0250454749912024,0.0995710343122482,-0.0161879286170006
5,0.991666665193688,-0.0777777813567098,-0.195833342236038,-0.0320704244077206,0.0620028227567673,-0.00794124789535999
5,0.993055557076942,-0.0791666671619817,-0.198611113846581,-0.0305432621389627,0.0348193198442459,-0.00152716308366507
5,1.00277780025972,-0.0805555590452358,-0.20972223675665,-0.0442877300083637,0.0268780700862408,-0.00702495034784079
5,1.00555558402623,-0.0833333367337618,-0.213888888094483,-0.0656680166721344,0.0332921557128429,-0.00702495034784079
5,0.99583334084345,-0.0930555616825939,-0.197222234119292,-0.0198531206697226,0.0290160998702049,0.00824668072164059
5,0.99583334084345,-0.0930555616825939,-0.204166669223633,-0.00122173049021512,-0.00824668072164059,0.0143553335219622
5,0.99583334084345,-0.0958333393711199,-0.216666671860991,-0.00183259579353034,-0.0308486949652433,0.011606439948082
5,1.00277780025972,-0.104166672436698,-0.231944458264858,-0.0033597587607801,-0.0280998013913631,0.0045814891345799
5,1.00138890837647,-0.101388894748172,-0.227777782615095,-0.0100792767480016,-0.00610865233466029,0.000305432622553781
5,1.00555558402623,-0.0944444474878658,-0.220833347510754,0.000916297896765172,0.0109955742955208,0.00488692196086049
5,1.00138890837647,-0.0986111170596459,-0.224999998848587,-0.00702495034784079,0.0027488935738802,-0.0027488935738802
5,0.997222232726705,-0.0944444474878658,-0.220833347510754,-0.0259617734700441,-0.00580321997404099,-0.000916297896765172
5,1.00000001649321,-0.0972222251763917,-0.20972223675665,-0.0210748501121998,-0.0164933614432812,0.00671951752156019
5,1.00416669214298,-0.0944444474878658,-0.212499996211229,-0.0219911485910416,-0.0177150927484035,0.00183259579353034
5,1.01111115155925,-0.0916666697993398,-0.212499996211229,-0.0106901414692402,0.00549778714776039,-0.00733038317412138
5,1.01111115155925,-0.0944444474878658,-0.216666671860991,-0.00610865233466029,0.0348193198442459,-0.0103847095742822
5,1.00555558402623,-0.0916666697993398,-0.206944452990142,0.00152716308366507,0.0345138870179653,-0.00183259579353034
5,1.00555558402623,-0.0916666697993398,-0.206944452990142,-0.00366519158706069,0.00794124789535999,-0.00488692196086049
5,1.00000001649321,-0.0944444474878658,-0.202777789496344,-0.00733038317412138,0.00519235478714108,-0.0164933614432812
