Activity,acc_x,acc_y,acc_z,gyro_x,gyro_y,gyro_z
0,0.618055575203916,0.354166676560001,0.752777796136418,-0.11606439948082,-0.0546724386513233,-0.0308486949652433
0,0.627777818386695,0.358333352209763,0.766666714968959,-0.200669229030609,0.01588249579072,-0.0656680166721344
0,0.636111121062362,0.358333352209763,0.761111147435943,-0.206777885556221,-0.110261179506779,0.0103847095742822
0,0.63888890482887,0.348611133338914,0.745833336720147,-0.0519235469400883,-0.164628177881241,0.0711658000946045
0,0.633333337295854,0.327777779402031,0.747222228603401,-0.0326812900602817,-0.224492982029915,0.0742201283574104
0,0.627777818386695,0.320833344297689,0.743055601577497,-0.138055548071861,-0.197004035115242,0.0106901414692402
0,0.618055575203916,0.322222236180943,0.745833336720147,-0.197004035115242,-0.0345138870179653,-0.0430659987032413
0,0.615277791437408,0.313888909193348,0.733333358394718,-0.218995183706284,0.070249505341053,-0.0308486949652433
0,0.6125000076709,0.309722233543585,0.736111142161226,-0.21685716509819,0.0879645943641663,0.0143553335219622
0,0.595833353695709,0.302777798439244,0.738888925927735,-0.164628177881241,0.0675006061792374,0.0232128798961639
0,0.580555591603771,0.301388906555989,0.751388904253164,-0.153938040137291,-0.0164933614432812,0.0226020142436027
0,0.575000024070755,0.305555557893823,0.765277823085705,-0.190895393490791,-0.0125227374956012,0.0128281703218818
0,0.580555591603771,0.295833339022973,0.752777796136418,-0.184175878763199,-0.0293215326964855,-0.0271835029125214
0,0.588888894279438,0.306944449777077,0.75000001236991,-0.120951317250729,-0.0458148941397667,0.00946841109544039
0,0.601388921228725,0.313888909193348,0.738888925927735,-0.0516181141138077,-0.0433714315295219,0.0427605658769607
0,0.606944488761742,0.318055560531181,0.731944466511464,-0.0513126812875271,-0.0305432621389627,0.0916297882795334
0,0.601388921228725,0.312500017310094,0.734722250277972,-0.119118720293045,-0.00183259579353034,0.0821613743901253
0,0.601388921228725,0.300000014672736,0.731944466511464,-0.127976268529892,0.0345138870179653,0.0546724386513233
0,0.598611137462217,0.290277795801886,0.745833336720147,-0.064446285367012,0.0366519130766392,0.0430659987032413
0,0.602777813111979,0.29166668768514,0.75000001236991,-0.0409279726445675,0.0247400421649218,0.0519235469400883
0,0.600000029345471,0.305555557893823,0.75694447178618,-0.0800233483314514,0.00824668072164059,0.0641408488154411
0,0.608333332021137,0.300000014672736,0.761111147435943,-0.13225232064724,0.00855211354792118,0.0839939713478088
0,0.613888899554154,0.295833339022973,0.762500039319197,-0.0998764708638191,0.0418442711234093,0.107206851243973
0,0.597222245578963,0.276388901281273,0.772222233878117,-0.0800233483314514,-0.0647517144680023,0.108428582549095
0,0.577777807837263,0.262500006760661,0.775000017644626,-0.011606439948082,-0.244346097111702,0.0934623852372169
0,0.554166694445801,0.265277790527169,0.761111147435943,0.0293215326964855,-0.237626582384109,0.00427605677396059
0,0.554166694445801,0.265277790527169,0.761111147435943,0.0302378293126821,-0.247094988822937,-0.0146607663482428
0,0.554166694445801,0.265277790527169,0.761111147435943,0.0302378293126821,-0.247094988822937,-0.0146607663482428
0,0.440277803138253,0.216666671860991,0.758333363669434,0.22724187374115,-0.625526010990143,-0.672562658786774
0,0.406944470875941,0.231944458264858,0.736111142161226,0.179288953542709,-0.415082931518555,-1.03969264030456
0,0.422222257279808,0.276388901281273,0.708333353120002,0.0149661982432008,0.149661988019943,-1.44042026996613
0,0.443055586904762,0.306944449777077,0.705555569353494,-0.146913096308708,0.188451930880547,-1.48501336574554
0,0.529166689171085,0.340277782039389,0.644444472361887,-0.343000829219818,-0.166766211390495,-1.41720736026764
0,0.581944483487025,0.358333352209763,0.630555602153203,-0.252592772245407,-0.276416510343552,-1.19607412815094
0,0.705555569353494,0.412500014097029,0.65833334257057,-0.00122173049021512,-0.285884946584701,-0.928820610046387
0,0.836111163260091,0.481944462388161,0.673611153286365,0.0207694191485643,-0.230907067656517,-0.468228220939636
0,0.96666670854283,0.568055564654484,0.705555569353494,-0.0213802829384804,-0.215330004692078,0.000916297896765172
0,1.04027778385987,0.609722223904392,0.747222228603401,-0.0888808965682983,-0.203723564743996,0.467006474733353
0,1.07500008094122,0.634722229179108,0.770833341994863,-0.112704634666443,-0.112704634666443,0.876897037029266
0,1.06250005399193,0.595833353695709,0.765277823085705,-0.10598511993885,0.00702495034784079,1.30389189720154
0,0.963888924776322,0.502777792013115,0.769444450111609,-0.173485726118088,-0.000305432622553781,1.49723076820373
0,0.820833352544296,0.411111122213775,0.758333363669434,-0.253203630447388,0.100792765617371,1.56931281089783
0,0.650000039894903,0.334722238818301,0.755555579902926,-0.361937671899795,0.208305045962334,1.43370068073273
0,0.505555575779623,0.240277785252453,0.733333358394718,-0.452345728874206,0.145691365003586,1.24372160434723
0,0.380555573717971,0.125000002061652,0.687500023495048,-0.292909890413284,-0.0830776765942574,1.01373088359833
0,0.290277795801886,0.0500000014324589,0.663888910103586,0.02382374368608,-0.246484130620956,0.597731649875641
0,0.240277785252453,0.026388891079988,0.651388931778157,0.123700208961964,-0.415388375520706,0.257174253463745
0,0.248611112240049,0.0472222237439329,0.656944450687316,0.176540061831474,-0.350942075252533,-0.109650313854218
0,0.316666668647927,0.10972222781375,0.629166710269949,0.0806342139840126,-0.0632245540618896,-0.350942075252533
0,0.400000011459671,0.159722226207217,0.640277796712124,0.021685715764761,0.0335975885391235,-0.472504258155823
0,0.498611116363352,0.186111123365188,0.655555558804062,0.0653625801205635,0.0690277740359306,-0.540615737438202
0,0.601388921228725,0.238888893369199,0.683333347845286,0.160352125763893,0.155159771442413,-0.518930017948151
0,0.680555564078778,0.279166685047782,0.726388898978447,0.177456349134445,0.130419731140137,-0.498160600662232
0,0.716666704419527,0.300000014672736,0.738888925927735,0.0653625801205635,0.196698606014252,-0.462119549512863
0,0.761111147435943,0.325000019947452,0.758333363669434,0.0250454749912024,0.202196389436722,-0.358272463083267
0,0.779166693294388,0.336111130701556,0.752777796136418,0.0262672062963247,0.195476874709129,-0.182648703455925
0,0.775000017644626,0.333333346935047,0.743055601577497,0.153632611036301,0.0949895456433296,0.0943786799907684
0,0.740277817810989,0.312500017310094,0.729166682744956,0.23243422806263,-0.0134390350431204,0.275500237941742
0,0.720833380069289,0.293055555256465,0.723611115211939,0.27000242471695,-0.027488935738802,0.276416510343552
0,0.687500023495048,0.265277790527169,0.706944461236748,0.287412106990814,-0.0574213340878487,0.262061178684235
0,0.661111126337078,0.275000009398019,0.722222271952543,0.233655959367752,0.104457959532738,0.105068825185299
0,0.651388931778157,0.319444452414435,0.736111142161226,0.0482583530247212,0.103541657328606,-0.0394008085131645
0,0.65833334257057,0.315277801076602,0.741666709694243,-0.247094988822937,0.209832206368446,-0.131030589342117
0,0.634722229179108,0.315277801076602,0.744444493460751,-0.146913096308708,0.098960168659687,-0.133474051952362
0,0.622222250853679,0.308333341660331,0.733333358394718,0.0323758572340012,-0.117591559886932,-0.078801617026329
0,0.627777818386695,0.323611128064198,0.726388898978447,0.140499010682106,-0.244651526212692,0.000916297896765172
0,0.634722229179108,0.322222236180943,0.709722245003256,0.109039448201656,-0.1750128865242,-0.0021380283869803
0,0.640277796712124,0.312500017310094,0.705555569353494,-0.0641408488154411,-0.0235183127224445,-0.0693332031369209
0,0.640277796712124,0.312500017310094,0.705555569353494,-0.0839939713478088,0.114537231624126,-0.139277279376984
0,0.640277796712124,0.312500017310094,0.705555569353494,-0.0943786799907684,0.0638354197144508,-0.107512280344963
0,0.647222256128395,0.304166666010569,0.691666699144811,0.0152716310694814,-0.0589484944939613,-0.0497855171561241
0,0.647222256128395,0.304166666010569,0.694444482911319,0.081855945289135,-0.0464257597923279,-0.0326812900602817
0,0.640277796712124,0.301388906555989,0.700000001820477,0.0192422550171614,0.021685715764761,-0.0791070461273193
0,0.643055580478633,0.298611122789481,0.708333353120002,-0.011606439948082,0.0791070461273193,-0.136528387665749
0,0.644444472361887,0.301388906555989,0.712500028769764,0.0479529201984406,0.0623082555830479,-0.116980694234371
0,0.644444472361887,0.301388906555989,0.712500028769764,0.0690277740359306,-0.0415388382971287,-0.0525344125926495
0,0.647222256128395,0.305555557893823,0.716666704419527,0.0522289797663689,-0.123394779860973,-0.00671951752156019
0,0.645833364245141,0.301388906555989,0.712500028769764,0.0604756586253643,-0.183259576559067,-0.0207694191485643
0,0.645833364245141,0.301388906555989,0.712500028769764,0.0235183127224445,-0.105068825185299,-0.0604756586253643
0,0.65833334257057,0.318055560531181,0.723611115211939,-0.0494800843298435,-0.01191187184304,-0.0415388382971287
0,0.661111126337078,0.323611128064198,0.729166682744956,-0.0568104684352875,-0.0525344125926495,0.0207694191485643
0,0.66527780198684,0.319444452414435,0.723611115211939,0.0171042270958424,-0.0381790772080422,0.0287106670439243
0,0.650000039894903,0.308333341660331,0.731944466511464,0.00885754637420177,-0.0488692186772823,0.0167987942695618
0,0.647222256128395,0.301388906555989,0.715277812536273,-0.0519235469400883,0.00305432616733015,-0.0213802829384804
0,0.647222256128395,0.298611122789481,0.715277812536273,-0.0659734457731247,0.0482583530247212,-0.0442877300083637
0,0.640277796712124,0.284722228268869,0.697222266677827,-0.0033597587607801,0.021685715764761,-0.0415388382971287
0,0.644444472361887,0.301388906555989,0.697222266677827,0.0439822971820831,0.0543670058250427,0.0189368221908808
0,0.659722234453824,0.320833344297689,0.687500023495048,0.0226020142436027,0.015577063895762,0.0601702257990837
0,0.644444472361887,0.279166685047782,0.693055591028065,-0.0311541277915239,0.111788339912891,-0.0448985956609249
0,0.634722229179108,0.263888898643915,0.687500023495048,-0.0192422550171614,0.230296194553375,-0.156686931848526
0,0.659722234453824,0.268055574293678,0.690277807261557,-0.00549778714776039,0.463341295719147,-0.204028993844986
0,0.652777823661411,0.279166685047782,0.700000001820477,-0.110566608607769,0.603229403495789,-0.162490159273148
0,0.644444472361887,0.277777793164528,0.716666704419527,-0.126143679022789,0.603534877300262,-0.131030589342117
0,0.618055575203916,0.302777798439244,0.745833336720147,0.0534507073462009,0.188757359981537,-0.109039448201656
0,0.6125000076709,0.294444447139719,0.759722255552688,0.0687223374843597,0.0983493030071259,-0.0742201283574104
0,0.609722223904392,0.319444452414435,0.759722255552688,0.0140499006956816,0.0287106670439243,-0.029626963660121
0,0.598611137462217,0.330555563168539,0.744444493460751,0.0180205255746841,0.090408056974411,-0.0268780700862408
0,0.602777813111979,0.327777779402031,0.752777796136418,0.0699440687894821,-0.000305432622553781,-0.0339030213654041
0,0.611111115787646,0.308333341660331,0.741666709694243,0.064446285367012,-0.222965821623802,0.00488692196086049
0,0.608333332021137,0.315277801076602,0.736111142161226,0.127670839428902,-0.282525181770325,0.0122173046693206
0,0.622222250853679,0.315277801076602,0.716666704419527,0.146913096308708,-0.176540061831474,0.0271835029125214
0,0.634722229179108,0.329166671285285,0.712500028769764,0.0360410511493683,-0.0525344125926495,0.0626136884093285
0,0.634722229179108,0.320833344297689,0.713888920653019,-0.0247400421649218,0.127976268529892,0.0510072484612465
0,0.6125000076709,0.290277795801886,0.716666704419527,0.0351247526705265,0.129197999835014,-0.0277943685650826
0,0.597222245578963,0.279166685047782,0.726388898978447,0.0897971913218498,0.171347707509995,-0.132863193750381
0,0.608333332021137,0.308333341660331,0.713888920653019,-0.0122173046693206,0.430965423583984,-0.179288953542709
0,0.613888899554154,0.326388911830706,0.723611115211939,-0.0861319974064827,0.642019391059875,-0.147829383611679
0,0.581944483487025,0.341666673922643,0.726388898978447,-0.0775798857212067,0.511905074119568,-0.155770644545555
0,0.56666667277123,0.316666668647927,0.765277823085705,0.000305432622553781,0.127670839428902,-0.11606439948082
0,0.559722261978817,0.325000019947452,0.786111152710659,0.139888137578964,-0.0635299831628799,-0.0891863256692886
0,0.568055564654484,0.331944455051793,0.779166693294388,0.0855211317539215,-0.0809396430850029,-0.0882700309157372
0,0.579166699720517,0.348611133338914,0.768055606852213,-0.019547687843442,-0.0164933614432812,-0.0360410511493683
0,0.573611132187501,0.344444457689151,0.777777801411134,-0.027488935738802,0.104457959532738,-0.0412334054708481
0,0.572222240304247,0.345833349572405,0.766666714968959,-0.130725160241127,0.0852157026529312,-0.0021380283869803
0,0.570833348420992,0.33750002258481,0.770833341994863,-0.24862214922905,0.0992656052112579,-0.00519235478714108
0,0.562499997121468,0.322222236180943,0.763888931202451,-0.208610475063324,0.0204639863222837,-0.0757472887635231
0,0.575000024070755,0.316666668647927,0.75694447178618,-0.119424156844616,-0.256563395261765,-0.0797179117798805
0,0.587500002396184,0.336111130701556,0.761111147435943,-0.124616511166096,-0.151189148426056,-0.0635299831628799
0,0.577777807837263,0.340277782039389,0.761111147435943,-0.228769034147263,-0.0641408488154411,-0.102625362575054
0,0.573611132187501,0.341666673922643,0.759722255552688,-0.207694187760353,0.0033597587607801,-0.0284052342176437
0,0.58611111051293,0.344444457689151,0.751388904253164,-0.11606439948082,-0.0287106670439243,0.0348193198442459
0,0.590277786162692,0.316666668647927,0.75000001236991,-0.0513126812875271,-0.0479529201984406,-0.00946841109544039
0,0.600000029345471,0.311111125426839,0.745833336720147,-0.0610865242779255,-0.0348193198442459,-0.109039448201656
0,0.601388921228725,0.322222236180943,0.743055601577497,-0.152105450630188,-0.114842668175697,-0.103847093880177
0,0.588888894279438,0.33750002258481,0.743055601577497,-0.0763581544160843,-0.246789559721947,-0.0265726372599602
0,0.594444461812454,0.341666673922643,0.743055601577497,0.0497855171561241,-0.351247519254685,0.0452040284872055
0,0.620833358970425,0.341666673922643,0.738888925927735,0.0360410511493683,-0.161879286170006,0.116980694234371
0,0.615277791437408,0.334722238818301,0.727777790861702,-0.149661988019943,0.0507018156349659,0.0870482996106148
0,0.594444461812454,0.309722233543585,0.725000007095193,-0.133474051952362,0.139277279376984,-0.00122173049021512
0,0.594444461812454,0.309722233543585,0.725000007095193,-0.0537561401724815,0.0436768643558025,0.00855211354792118
0,0.597222245578963,0.297222230906227,0.731944466511464,-0.0797179117798805,-0.0968221426010132,0.0583376325666905
0,0.601388921228725,0.306944449777077,0.725000007095193,-0.0320704244077206,-0.0821613743901253,0.0806342139840126
0,0.604166704995233,0.305555557893823,0.729166682744956,0.0128281703218818,-0.0339030213654041,0.0806342139840126
0,0.605555596878487,0.298611122789481,0.736111142161226,-0.064446285367012,0.0332921557128429,0.0143553335219622
0,0.602777813111979,0.297222230906227,0.745833336720147,-0.0497855171561241,0.0650571510195732,-0.0207694191485643
0,0.587500002396184,0.298611122789481,0.75000001236991,-0.0204639863222837,0.029626963660121,0.00671951752156019
0,0.609722223904392,0.294444447139719,0.754166688019672,0.01191187184304,-0.102930791676045,0.0705549344420433
0,0.611111115787646,0.294444447139719,0.752777796136418,0.0739146918058395,-0.0733038261532784,0.0558941699564457
0,0.606944488761742,0.280555576931036,0.745833336720147,0.00519235478714108,0.0510072484612465,0.0177150927484035
0,0.602777813111979,0.281944444502361,0.747222228603401,-0.10048733651638,0.124616511166096,-0.0247400421649218
0,0.5930555699292,0.272222225631511,0.75000001236991,-0.101098194718361,0.0809396430850029,-0.01191187184304
0,0.595833353695709,0.269444466176932,0.744444493460751,-0.0442877300083637,-0.0394008085131645,0.0671951770782471
0,0.594444461812454,0.286111120152123,0.752777796136418,0.0332921557128429,-0.0956004112958908,0.0714712366461754
0,0.58611111051293,0.281944444502361,0.755555579902926,0.0607810914516449,-0.0754418596625328,0.0177150927484035
0,0.600000029345471,0.286111120152123,0.75694447178618,-0.0241291765123606,-0.0366519130766392,0.011606439948082
0,0.594444461812454,0.283333336385615,0.758333363669434,-0.106901414692402,0.0623082555830479,-0.0235183127224445
0,0.591666678045946,0.284722228268869,0.759722255552688,-0.100181899964809,0.0592539273202419,-0.021685715764761
0,0.594444461812454,0.281944444502361,0.751388904253164,-0.0226020142436027,0.00152716308366507,0.0171042270958424
0,0.601388921228725,0.279166685047782,0.752777796136418,0.00794124789535999,-0.05283984541893,-0.0021380283869803
0,0.600000029345471,0.275000009398019,0.751388904253164,0.0146607663482428,-0.0433714315295219,-0.0229074470698834
0,0.605555596878487,0.270833333748257,0.743055601577497,-0.0302378293126821,-0.00488692196086049,-0.0204639863222837
0,0.601388921228725,0.283333336385615,0.738888925927735,-0.15332718193531,0.0650571510195732,0.0448985956609249
0,0.601388921228725,0.281944444502361,0.748611120486655,-0.119118720293045,-0.0140499006956816,0.058643065392971
0,0.584722267253534,0.262500006760661,0.761111147435943,-0.0910189226269722,-0.0372627787292004,0.0226020142436027
0,0.581944483487025,0.265277790527169,0.769444450111609,-0.245262399315834,-0.0128281703218818,-0.0271835029125214
0,0.577777807837263,0.258333331110899,0.772222233878117,-0.328645497560501,0.124005645513535,-0.0873537287116051
0,0.551388910679293,0.265277790527169,0.769444450111609,-0.333837866783142,0.26419922709465,-0.0913243517279625
0,0.545833343146276,0.263888898643915,0.791666671619817,-0.313068449497223,0.297185927629471,-0.141415297985077
0,0.584722267253534,0.251388896006557,0.797222239152834,-0.481667250394821,0.00397062394768,-0.140193566679955
0,0.601388921228725,0.248611112240049,0.808333374218867,-0.464868456125259,-0.156076073646545,-0.0803287774324417
0,0.598611137462217,0.269444466176932,0.773611125761372,-0.248011291027069,-0.289244681596756,-0.123394779860973
0,0.625000034620187,0.240277785252453,0.775000017644626,-0.154854342341423,-0.167682513594627,-0.189673662185669
0,0.594444461812454,0.269444466176932,0.847222298326124,-0.369268029928207,-0.117896988987923,-0.486554175615311
0,0.575000024070755,0.231944458264858,0.887500065692777,-0.965777933597565,0.01191187184304,-0.811534464359283
0,0.577777807837263,0.222222239394008,0.852777768611424,-1.10505521297455,0.0943786799907684,-0.960585594177246
0,0.568055564654484,0.226388890731841,0.794444455386325,-0.925155401229858,0.118202425539494,-0.91049462556839
0,0.54027777561326,0.211111128639904,0.798611131036088,-0.615141272544861,-0.0320704244077206,-0.821919202804565
0,0.515277818962402,0.16527778158427,0.804166698569104,-0.820086598396301,0.214719131588936,-1.19729590415955
0,0.502777792013115,0.140277788465518,0.775000017644626,-1.42698121070862,0.704938471317291,-1.60382664203644
0,0.488888921804431,0.163888889701015,0.75694447178618,-1.49295461177826,0.891252398490906,-1.61054623126984
0,0.468055592179478,0.15555556271342,0.75694447178618,-1.17835903167725,0.634688973426819,-1.29075825214386
0,0.436111127488491,0.13750000469901,0.791666671619817,-0.835358202457428,0.374154955148697,-1.04091441631317
0,0.444444478788016,0.158333334323963,0.788888936477167,-0.918435871601105,0.329561799764633,-1.25502264499664
0,0.486111138037923,0.180555567988136,0.759722255552688,-1.10902583599091,0.608727216720581,-1.30541908740997
0,0.529166689171085,0.187500003092477,0.752777796136418,-1.01189827919006,0.766025006771088,-1.24860858917236
0,0.545833343146276,0.180555567988136,0.736111142161226,-0.733038306236267,0.780380368232727,-0.898277342319489
0,0.50138890012986,0.200000005729836,0.815277785011279,-0.206472456455231,0.421191573143005,-0.612392425537109
0,0.483333354271415,0.208333344873396,0.843055622676362,0.147218525409698,0.280387133359909,-0.538477718830109
0,0.483333354271415,0.208333344873396,0.843055622676362,0.0830776765942574,0.0387899428606033,-0.488997638225555
0,0.476388894855144,0.251388896006557,0.913888914226889,0.0045814891345799,0.0739146918058395,-0.442877292633057
0,0.484722246154669,0.251388896006557,0.911111130460381,-0.10048733651638,0.223882108926773,-0.448375076055527
0,0.466666700296224,0.277777793164528,0.92083337364316,-0.0232128798961639,0.0940732508897781,-0.435241490602493
0,0.443055586904762,0.266666682410424,0.901388887277602,-0.293520748615265,0.53817230463028,-0.395840674638748
0,0.462500024646461,0.293055555256465,0.938888968125464,-0.274889349937439,0.509461641311646,-0.273973047733307
0,0.444444478788016,0.288888903918631,0.913888914226889,-0.0671951770782471,0.401338458061218,-0.0937678143382072
0,0.420833365396554,0.269444466176932,0.93750007624221,0.130419731140137,0.211970239877701,-0.0549778714776039
0,0.361111135976272,0.186111123365188,1.00138890837647,-0.0207694191485643,0.0565050356090069,0.11117747426033
0,0.462500024646461,0.026388891079988,0.956944465360051,0.0348193198442459,0.276721954345703,0.233655959367752
0,0.379166681834717,0.116666675074056,0.630555602153203,-1.37261426448822,-1.26632368564606,0.516181111335754
0,0.24583335278547,0.212499996211229,0.606944488761742,-1.91475713253021,-2.76080536842346,0.981965899467468
0,0.176388892338373,0.202777789496344,0.880555606276507,-1.15331363677978,-1.86405527591705,1.00976026058197
0,0.538888932353864,0.0819444448505077,0.99583334084345,-0.85215699672699,-1.31824719905853,0.356745302677154
0,0.402777795226179,0.0625000010308258,0.827777811960566,-1.06076753139496,1.42484319210052,0.69730269908905
0,0.354166676560001,0.237500001485945,0.952777789710289,-0.507323563098907,1.28098440170288,1.27640295028687
0,0.216666671860991,0.312500017310094,0.970833384192592,-0.800844311714172,0.675006091594696,1.70736837387085
0,0.200000005729836,0.295833339022973,0.980555627375371,-0.829249560832977,-0.81886488199234,1.83687174320221
0,0.259722222994153,0.193055558469529,1.00000001649321,-0.570242702960968,0.0748309940099716,1.90040183067322
0,0.377777789951463,0.156944454596674,0.834722271376837,-0.954782366752625,1.58977675437927,1.66185891628265
0,0.655555558804062,0.0722222259796579,0.65833334257057,-1.48195910453796,2.29563164710998,0.9245445728302
0,0.502777792013115,-0.0722222259796579,0.893055633225794,-1.61451685428619,1.64536559581757,0.710741698741913
0,0.437500019371745,-0.184722231481934,0.93750007624221,-1.49051117897034,1.71714222431183,0.768163025379181
0,0.359722244093018,-0.438888911254999,0.904166671044111,-1.63650798797607,2.73270559310913,0.658512711524963
0,0.238888893369199,-0.58611111051293,0.798611131036088,-1.60871362686157,3.74246597290039,1.06412720680237
0,0.169444445078067,-0.286111120152123,0.912500022343635,-1.50486648082733,1.92392003536224,0.817032277584076
0,0.176388892338373,-0.0486111125881959,1.10416671324184,-1.39704883098602,0.0849102661013603,0.592233836650848
0,0.19166667874224,-0.151388899219622,1.09722225382557,-1.58855509757996,0.637743294239044,0.493579119443893
0,0.184722231481934,-0.322222236180943,1.07361118905796,-1.36955988407135,2.80875849723816,0.255341678857803
0,0.140277788465518,-0.390277792588821,1.00138890837647,-0.944092214107513,2.72720789909363,0.126143679022789
0,0.179166676104882,-0.452777781463682,1.0361111082101,-0.418748140335083,1.97553825378418,-0.160046696662903
0,0.158333334323963,-0.562499997121468,1.06527783775844,-0.423024177551269,1.53999125957489,-0.307265222072601
0,0.163888889701015,-0.526388905404577,0.963888924776322,-0.723569869995117,0.0885754600167274,-0.409279704093933
0,0.0486111125881959,-0.500000008246606,0.863888903677457,-0.69913524389267,-0.819781184196472,-0.82375180721283
0,0.0875000002275597,-0.54027777561326,0.87500003874349,-1.34176552295685,-1.24585962295532,-0.236099421977997
0,0.150000007336368,-0.487500029921177,0.884722281926269,-1.61665487289429,-1.22570109367371,-0.383317947387695
0,0.175000000455119,-0.488888921804431,0.877777822509998,-1.37353050708771,-0.726013362407684,-0.279165416955948
0,0.18333333959868,-0.544444451263022,0.84583340644287,-0.683863639831543,-0.484416127204895,-0.278249114751816
0,0.224999998848587,-0.58333337537028,0.77638890952788,-0.250454753637314,-0.907745778560638,-0.0293215326964855
0,0.236111109602691,-0.559722261978817,0.731944466511464,-0.111788339912891,-1.18080246448517,0.103236228227615
0,0.236111109602691,-0.559722261978817,0.731944466511464,0.0433714315295219,-1.75012898445129,0.117591559886932
0,0.277777793164528,-0.506944467662877,0.784722260827405,0.00763581553474069,-1.75745928287506,0.229990765452385
0,0.295833339022973,-0.486111138037923,0.825000028194058,0.163406446576118,-1.08611845970154,0.2379320114851
0,0.302777798439244,-0.572222240304247,0.813888941751883,0.171958565711975,-0.0662788823246956,0.233961388468742
0,0.309722233543585,-0.561111153862072,0.826388920077312,0.351247519254685,-0.015577063895762,0.529620170593262
0,0.281944444502361,-0.561111153862072,0.818055568777787,0.499993205070496,-0.132863193750381,0.720515549182892
0,0.20138889761309,-0.441666695021508,0.830555595727074,0.675311505794525,-0.00916297826915979,0.980744123458862
0,0.17361112072783,-0.430555559955475,0.831944487610329,1.05282628536224,0.25411993265152,0.988685369491577
0,0.195833342236038,-0.519444445988306,0.858333336144441,1.43431162834168,0.308181524276733,0.874148190021515
0,0.156944454596674,-0.469444484062732,0.923611157409668,1.6279559135437,-0.447153359651566,1.06443274021149
0,0.226388890731841,-0.477777786738398,0.880555606276507,0.970054030418396,-1.11055302619934,0.262977480888367
0,0.19166667874224,-0.376388898068209,0.848611190209378,0.0235183127224445,-1.35092854499817,0.108734011650086
0,0.0750000036681839,-0.204166669223633,0.959722249126559,-0.315511912107468,-1.58061385154724,0.524733245372772
0,0.14722222356986,-0.370833354847121,0.979166735492117,-0.369268029928207,-1.03541660308838,0.455705463886261
0,0.277777793164528,-0.358333352209763,0.918055589876652,-0.162490159273148,-0.133779495954514,-0.0901026204228401
0,0.238888893369199,-0.443055586904762,0.840277838909853,0.188757359981537,-0.303905457258224,-0.204028993844986
0,0.226388890731841,-0.449999997697174,0.809722266102121,0.552222192287445,0.0329867228865623,0.0253509078174829
0,0.251388896006557,-0.372222246730376,0.841666730793107,0.781602084636688,1.65819370746613,-0.08460483700037
0,0.120833338567854,-0.369444462963867,0.906944454810619,0.945313990116119,2.32953453063965,0.160046696662903
0,0.281944444502361,-0.381944465601225,0.818055568777787,0.690888583660126,2.12794899940491,-0.345138877630234
0,0.0513888902767219,-0.354166676560001,0.837500055143345,0.422107875347138,2.68383646011352,-0.429132848978043
0,0.120833338567854,-0.375000006184955,0.89166674134254,0.288939267396927,2.35549640655518,-0.137750118970871
0,0.156944454596674,-0.479166678621653,0.929166724942685,0.447153359651566,1.34329271316528,-0.510072469711304
0,0.156944454596674,-0.444444478788016,0.92083337364316,0.340557366609573,0.326812893152237,-0.352774679660797
0,0.00138888893923146,-0.400000011459671,0.886111173809523,-0.240986332297325,-0.568715572357178,-0.333226978778839
0,0.0513888902767219,-0.387500008822313,0.86805557932722,-0.375987559556961,-0.760832667350769,-0.271224170923233
0,0.0986111170596459,-0.412500014097029,0.854166660494678,-0.432187169790268,-0.64049220085144,-0.124311074614525
0,0.1194444466846,-0.418055581630046,0.890277849459286,0.0125227374956012,-0.248316720128059,-0.0222965814173222
0,0.134722233088466,-0.379166681834717,0.904166671044111,0.741895854473114,0.26908615231514,-0.0965167060494423
0,0.0944444474878658,-0.359722244093018,0.869444471210474,1.12154853343964,0.574213325977325,-0.156686931848526
0,0.104166672436698,-0.327777779402031,0.849999984844916,0.925766289234161,0.631023824214935,0.170736834406853
0,0.140277788465518,-0.229166674498349,0.883333390043015,0.317955374717712,0.114842668175697,0.147829383611679
0,0.111111119697004,-0.276388901281273,0.894444525109048,-0.281303435564041,-0.261144906282425,-0.19058994948864
0,0.0208333341834404,-0.354166676560001,0.981944519258625,-0.413555771112442,-0.858876526355743,-0.339946508407593
0,-0.0361111129898289,-0.440277803138253,1.0125000434425,-0.359188765287399,-1.60107779502869,-0.690583169460297
0,0.033333335301303,-0.459722240879953,1.02083339474202,-0.447764217853546,-1.96301543712616,-0.791070520877838
0,0.0750000036681839,-0.369444462963867,1.0333333244436,-0.379347324371338,-1.75532126426697,-0.626136898994446
0,0.13750000469901,-0.362500003547597,1.00555558402623,-0.124311074614525,-1.14689946174622,-0.506101846694946
0,0.161111118090472,-0.422222257279808,0.948611114060526,0.127670839428902,-0.310319542884827,-0.404392778873444
0,0.161111118090472,-0.422222257279808,0.948611114060526,0.262061178684235,-0.608116328716278,-0.0797179117798805
0,0.168055565350778,-0.397222227693163,0.886111173809523,0.0134390350431204,-1.21745443344116,0.0164933614432812
0,0.211111128639904,-0.325000019947452,0.955555573476797,-0.351552963256836,-1.14323425292969,-0.32742378115654
0,0.211111128639904,-0.325000019947452,0.955555573476797,-0.26969701051712,-0.461814135313034,-0.394313514232635
0,0.241666677135707,-0.354166676560001,0.990277773310434,-0.0574213340878487,0.214108273386955,-0.204334422945976
0,0.279166685047782,-0.380555573717971,0.952777789710289,0.112704634666443,0.592233836650848,0.0436768643558025
0,0.279166685047782,-0.380555573717971,0.952777789710289,0.22724187374115,0.403781920671463,0.192422553896904
0,0.256944463539574,-0.366666679197359,0.944444438410764,0.217773467302322,0.132557764649391,0.231517925858498
0,0.237500001485945,-0.331944455051793,0.941666654644256,0.318871647119522,0.0452040284872055,0.196698606014252
0,0.237500001485945,-0.331944455051793,0.941666654644256,0.423940479755402,0.0772744566202164,0.149661988019943
0,0.240277785252453,-0.318055560531181,0.933333400592447,0.230601623654366,-0.183259576559067,0.105068825185299
0,0.25555557165632,-0.311111125426839,0.915277806110144,-0.175929188728332,-0.376903861761093,0.0226020142436027
0,0.273611117514765,-0.304166666010569,0.919444481759906,-0.285274058580399,-0.552833020687103,-0.04764748737216
0,0.281944444502361,-0.315277801076602,0.904166671044111,-0.107206851243973,-0.6294966340065,0.0113010071218014
0,0.293055555256465,-0.341666673922643,0.887500065692777,-0.0418442711234093,-0.88208943605423,0.124005645513535
0,0.312500017310094,-0.351388892793493,0.856944444261187,0.0491746515035629,-0.918435871601105,0.146607652306557
0,0.358333352209763,-0.33750002258481,0.899999995394348,0.317955374717712,-0.612392425537109,0.10048733651638
0,0.408333338447267,-0.341666673922643,0.936111184358955,0.418748140335083,-0.120645888149738,0.151800006628036
0,0.398611119576417,-0.323611128064198,0.94305554652751,0.135001212358475,0.466090172529221,0.276416510343552
0,0.398611119576417,-0.323611128064198,0.94305554652751,0.0277943685650826,0.477391183376312,0.222965821623802
0,0.347222241455659,-0.33750002258481,0.883333390043015,-0.145691365003586,0.0745255574584007,0.194866016507149
0,0.286111120152123,-0.363888895430851,0.848611190209378,0.0320704244077206,-0.0891863256692886,0.284357786178589
0,0.297222230906227,-0.327777779402031,0.848611190209378,0.0647517144680023,-0.254730820655823,0.255952537059784
0,0.287500012035377,-0.301388906555989,0.827777811960566,-0.205861583352089,-0.463341295719147,0.170431405305862
0,0.273611117514765,-0.297222230906227,0.85138887672817,-0.315206468105316,-0.529009282588959,0.00733038317412138
0,0.279166685047782,-0.295833339022973,0.872222254976982,-0.200058370828629,-0.216246291995048,-0.117286130785942
0,0.283333336385615,-0.293055555256465,0.858333336144441,0.0397062413394451,-0.240680903196335,-0.166460782289505
0,0.281944444502361,-0.343055565805897,0.881944498159761,0.102625362575054,-0.781907498836517,-0.19028452038765
0,0.318055560531181,-0.338888890156135,0.884722281926269,0.00366519158706069,-0.802371501922607,-0.138360977172852
0,0.319444452414435,-0.315277801076602,0.884722281926269,-0.0916297882795334,-0.966388821601868,-0.0287106670439243
0,0.327777779402031,-0.309722233543585,0.85138887672817,-0.666759431362152,-1.28190076351166,0.0357356183230877
0,0.404166687109433,-0.297222230906227,0.82222224442755,-1.22753369808197,-1.32069063186646,-0.201280102133751
0,0.449999997697174,-0.316666668647927,0.837500055143345,-1.00701141357422,-1.13956916332245,-0.564439475536346
0,0.423611149163062,-0.348611133338914,0.827777811960566,-0.90408056974411,-1.43767130374908,-0.692110300064087
0,0.394444468238583,-0.400000011459671,0.759722255552688,-1.09436511993408,-1.40865528583527,-0.701273322105408
0,0.493055597454194,-0.481944462388161,0.781944477060896,-0.707992792129517,-0.483499854803085,-0.606589198112488
0,0.513888927079148,-0.470833327322128,0.811111157985375,0.249843880534172,0.618806481361389,-0.616973876953125
0,0.584722267253534,-0.506944467662877,0.769444450111609,0.92607170343399,0.841772317886353,-0.562606871128082
0,0.49444444071359,-0.568055564654484,0.736111142161226,0.465784758329391,-0.240986332297325,-0.346971452236175
0,0.430555559955475,-0.559722261978817,0.713888920653019,-0.419664412736893,-1.60962986946106,-0.463646709918976
0,0.470833327322128,-0.529166689171085,0.733333358394718,-1.05435335636139,-2.47766947746277,-0.786183595657349
0,0.551388910679293,-0.515277818962402,0.869444471210474,-0.762970685958862,-1.3335188627243,-1.03755462169647
0,0.644444472361887,-0.505555575779623,0.841666730793107,-1.05160450935364,-1.50364482402801,-1.18080246448517
0,0.675000045169619,-0.529166689171085,0.758333363669434,-1.22997713088989,-1.5845844745636,-1.07359564304352
0,0.743055601577497,-0.527777797287831,0.731944466511464,-0.838717997074127,-0.870177567005157,-1.06168377399445
0,0.691666699144811,-0.463888916529715,0.645833364245141,-0.759000062942505,-0.66584312915802,-1.12643551826477
0,0.691666699144811,-0.463888916529715,0.645833364245141,-1.23150432109833,-1.02961337566376,-1.11818885803223
0,0.701388893703731,-0.456944457113445,0.58611111051293,-1.62703955173492,-1.16980695724487,-1.00823307037353
0,0.726388898978447,-0.420833365396554,0.548611126912784,-1.23425328731537,-0.9056077003479,-0.855516791343689
0,0.716666704419527,-0.375000006184955,0.508333359546131,-0.87109386920929,-0.601396858692169,-0.843604922294617
0,0.663888910103586,-0.263888898643915,0.543055559379768,-0.632550954818726,-0.0797179117798805,-1.36039686203003
0,0.779166693294388,-0.236111109602691,0.533333364820847,-0.66584312915802,-0.0574213340878487,-1.89032244682312
0,0.85138887672817,-0.384722225055805,0.454166673346937,-1.12490832805634,-0.5711590051651,-1.37383592128754
0,0.820833352544296,-0.391666684472075,0.394444468238583,-1.09619772434235,-0.991128861904144,-0.801149785518646
0,0.826388920077312,-0.286111120152123,0.420833365396554,-0.588874101638794,-0.951117157936096,-0.717766642570496
0,0.831944487610329,-0.24583335278547,0.483333354271415,-0.128587126731873,-0.208305045962334,-0.814894258975983
0,0.794444455386325,-0.243055569018962,0.493055597454194,-0.12675453722477,0.104763388633728,-0.834136486053467
0,0.841666730793107,-0.318055560531181,0.418055581630046,-0.215024560689926,-0.415693789720535,-0.845437526702881
0,0.849999984844916,-0.363888895430851,0.343055565805897,-0.197309479117393,-1.51372408866882,-0.413861215114594
0,0.861111119910949,-0.293055555256465,0.295833339022973,-0.161573857069016,-2.28585767745972,0.0711658000946045
0,0.986111194908388,-0.181944447715425,0.52083333787156,-0.0265726372599602,-1.22845005989075,-0.127976268529892
0,0.96666670854283,-0.13750000469901,0.587500002396184,0.556803643703461,0.802371501922607,-0.266642689704895
0,0.873611146860236,-0.216666671860991,0.518055554105052,0.455400049686432,0.38026362657547,-0.145996794104576
0,0.904166671044111,-0.276388901281273,0.409722230330521,0.0965167060494423,-0.505796432495117,-0.0546724386513233
0,0.906944454810619,-0.272222225631511,0.265277790527169,-0.00580321997404099,-1.65666651725769,0.0482583530247212
0,0.927777833059431,-0.240277785252453,0.256944463539574,-0.0616973899304867,-2.62855315208435,-0.17440202832222
0,0.933333400592447,-0.161111118090472,0.330555563168539,-0.0595593601465225,-1.85031080245972,-0.455400049686432
0,0.94305554652751,-0.254166679773066,0.354166676560001,-0.166766211390495,-1.44225287437439,-0.343611687421799
0,0.994444448960196,-0.312500017310094,0.308333341660331,-0.0827722400426865,-1.5934419631958,-0.25870144367218
0,1.02222228662528,-0.305555557893823,0.197222234119292,-0.321315109729767,-2.68841791152954,-0.39675697684288
0,1.01527782720901,-0.306944449777077,0.0791666671619817,-0.546724379062653,-3.92450380325317,-0.584598064422607
0,1.03888889197661,-0.227777782615095,0.112499999424294,-0.738841533660889,-3.59310936927795,-0.983798503875732
0,1.03888889197661,-0.233333350148112,0.193055558469529,-0.765414178371429,-2.4691174030304,-1.13834738731384
0,1.02638896227504,-0.288888903918631,0.0847222225390337,-0.601091384887695,-1.71561503410339,-1.1545352935791
0,0.926388941176177,-0.156944454596674,-0.0916666697993398,-1.24616515636444,-2.80600953102112,-1.21195662021637
0,0.926388941176177,-0.156944454596674,-0.0916666697993398,-1.44408547878265,-2.72537517547607,-1.11482906341553
0,0.89722221162784,-0.187500003092477,-0.0472222237439329,-1.16980695724487,-2.02165842056274,-1.47279608249664
0,0.958333357243305,-0.0819444448505077,-0.102777780553444,-0.678060412406921,-1.20432078838348,-1.00578963756561
0,0.919444481759906,-0.0986111170596459,-0.12916666555545,0.11606439948082,0.0827722400426865,-0.199752941727638
0,0.947222222177272,-0.0875000002275597,-0.200000005729836,0.32253685593605,0.0583376325666905,0.00977384392172098
0,0.972222276075846,-0.0819444448505077,-0.205555561106887,0.0522289797663689,-0.421497017145157,0.05283984541893
0,1.01944450285877,-0.0777777813567098,-0.204166669223633,-0.0354301854968071,-0.468839079141617,0.188451930880547
0,1.04583335139288,-0.102777780553444,-0.198611113846581,-0.108428582549095,-0.733954608440399,0.142331600189209
0,1.06111116210868,-0.0819444448505077,-0.212499996211229,-0.219300627708435,-0.603534877300262,-0.145691365003586
0,0.976388951725609,-0.033333335301303,-0.259722222994153,-0.120035022497177,-0.618195652961731,-0.0943786799907684
0,0.926388941176177,-0.0208333341834404,-0.286111120152123,-0.240680903196335,-0.949895441532135,-0.184786736965179
0,0.972222276075846,-0.0500000014324589,-0.306944449777077,-0.395840674638748,-0.949284613132477,-0.458759784698486
0,0.940277860008718,-0.101388894748172,-0.352777784676747,-0.204334422945976,-0.297491371631622,-0.307265222072601
0,0.952777789710289,-0.0833333367337618,-0.365277787314105,-0.01191187184304,-0.192727982997894,-0.0781907513737679
0,0.963888924776322,-0.0916666697993398,-0.341666673922643,0.00122173049021512,-0.569937288761139,0.0308486949652433
0,0.951388897827035,-0.104166672436698,-0.305555557893823,-0.109955742955208,-0.795957386493683,-0.0235183127224445
0,0.961111141009813,-0.0847222225390337,-0.361111135976272,-0.35491269826889,-0.814588785171509,-0.175318330526352
0,0.991666665193688,-0.0777777813567098,-0.388888900705567,-0.42363503575325,-0.372016936540604,-0.334143280982971
0,0.979166735492117,-0.026388891079988,-0.402777795226179,-0.295658767223358,0.0516181141138077,-0.202196389436722
0,0.947222222177272,-0.0166666676506515,-0.406944470875941,-0.0916297882795334,0.464868456125259,-0.0186313893646002
0,0.92083337364316,-0.0750000036681839,-0.377777789951463,-0.0348193198442459,0.755334854125977,0.0485637858510017
0,0.979166735492117,-0.0680555564078778,-0.377777789951463,-0.212886542081833,0.293520748615265,-0.154548913240433
0,0.965277816659576,0.0111111115138517,-0.398611119576417,-0.335670441389084,0.339335650205612,-0.139277279376984
0,0.956944465360051,0.033333335301303,-0.347222241455659,-0.37568211555481,0.130114302039146,-0.103541657328606
0,1.00416669214298,-0.030555557612777,-0.343055565805897,-0.295047909021378,0.135917514562607,-0.0794124826788902
0,0.940277860008718,-0.0777777813567098,-0.340277782039389,-0.684169054031372,0.81428337097168,-0.0726929605007172
0,0.952777789710289,-0.0361111129898289,-0.379166681834717,-0.533896207809448,0.617584764957428,-0.186313897371292
0,0.854166660494678,0.0888888921108138,-0.358333352209763,-0.278554558753967,0.287106662988663,0.282219737768173
0,1.01666671909226,0.0361111129898289,-0.320833344297689,-0.0916297882795334,-0.0149661982432008,0.388510286808014
0,0.977777843608863,0.0111111115138517,-0.334722238818301,-0.0323758572340012,0.138666406273842,0.552222192287445
0,1.03472221632685,-0.0583333375370279,-0.306944449777077,-0.0180205255746841,-0.0812450796365738,0.491746515035629
0,1.0513889189259,-0.0708333340964038,-0.295833339022973,-0.0421497002243996,-0.267864406108856,0.15332718193531
0,1.11250006454136,-0.0513888902767219,-0.312500017310094,-0.0140499006956816,-0.467006474733353,-0.107817716896534
0,1.04583335139288,-0.0416666683668809,-0.327777779402031,0.0558941699564457,-0.357356160879135,-0.161268427968025
0,0.968055600426084,-0.0194444453391775,-0.323611128064198,0.0146607663482428,-0.13225232064724,-0.111788339912891
0,1.03472221632685,-0.101388894748172,-0.459722240879953,-0.743117570877075,0.804509520530701,-0.656069278717041
0,0.944444438410764,-0.0180555564949145,-0.316666668647927,-0.559552550315857,0.668897449970245,-0.552833020687103
0,0.922222265526414,-0.00416666691266287,-0.297222230906227,-0.50182580947876,0.215635433793068,-0.399200439453125
0,0.908333346693873,-0.00416666691266287,-0.441666695021508,-0.839634299278259,-0.337197601795196,-0.334143280982971
0,0.879166714393253,0.0500000014324589,-0.397222227693163,-1.15972769260406,-0.44409903883934,-0.188757359981537
0,0.890277849459286,0.100000002864918,-0.252777787889811,-0.781296670436859,0.134695783257484,0.0791070461273193
0,1.02222228662528,0.0861111144222878,-0.343055565805897,-0.53481251001358,0.94042706489563,0.268169850111008
0,1.0305556379248,-0.0236111118719664,-0.163888889701015,-0.228769034147263,0.856433093547821,0.182648703455925
0,1.04166667574312,-0.026388891079988,-0.188888894975731,0.0534507073462009,0.788016140460968,-0.153938040137291
0,1.00000001649321,0.00277777787846293,-0.230555566381603,0.10598511993885,0.522900640964508,-0.430049121379852
0,1.00000001649321,0.00277777787846293,-0.230555566381603,0.0742201283574104,0.437074095010758,-0.530841886997223
0,0.613888899554154,0.0472222237439329,-0.288888903918631,-0.109650313854218,1.12551915645599,0.0678060427308083
0,1.00555558402623,0.116666675074056,-0.202777789496344,-0.0839939713478088,0.872926414012909,-0.219911485910416
0,1.00555558402623,0.116666675074056,-0.202777789496344,-0.114231802523136,0.507323563098907,-0.0106901414692402
0,0.986111194908388,0.03194444645704,-0.17361112072783,0.0769690200686455,0.376903861761093,-0.117286130785942
0,0.700000001820477,-0.0138888899621255,-0.240277785252453,-0.23273965716362,0.0103847095742822,0.894001305103302
0,0.700000001820477,-0.0138888899621255,-0.240277785252453,-0.141109868884087,1.03327858448029,0.58062744140625
0,1.1291666698927,-0.00138888893923146,-0.138888896582264,-0.0293215326964855,0.661567032337189,0.246484130620956
0,0.916666697993398,0.0152777788063885,-0.205555561106887,-0.132863193750381,0.464257597923279,0.909272909164429
0,0.916666697993398,0.0152777788063885,-0.205555561106887,0.134084925055504,0.711963415145874,1.15422987937927
0,1.12222230772414,-0.0611111152255539,-0.15555556271342,0.0623082555830479,0.350942075252533,0.745561003684998
0,1.13750002119222,-0.00277777787846293,0.0194444453391775,-0.0733038261532784,0.398284137248993,0.474336862564087
0,1.07500008094122,-0.0222222230277034,-0.0652777787193518,-0.0345138870179653,0.240986332297325,0.59162300825119
0,0.972222276075846,-0.0388888906783549,-0.186111123365188,-0.0589484944939613,0.525954961776733,0.564134061336517
0,1.03750000009336,-0.0777777813567098,-0.0680555564078778,0.0439822971820831,0.346055150032044,0.0452040284872055
0,1.03750000009336,-0.0777777813567098,-0.0680555564078778,0.05283984541893,0.290160983800888,-0.0192422550171614
0,1.1083333888916,-0.144444451959316,-0.0986111170596459,-0.0302378293126821,0.283746898174286,0.0956004112958908
0,1.07222229717471,-0.190277786858986,-0.140277788465518,-0.0329867228865623,0.0397062413394451,0.272445887327194
0,1.07222229717471,-0.055555559848502,-0.1194444466846,0.00519235478714108,-0.0910189226269722,0.286190360784531
0,0.98888888142718,0.0138888899621255,-0.0513888902767219,0.0632245540618896,-0.293826192617416,0.223576679825783
0,0.993055557076942,-0.0208333341834404,-0.0583333375370279,0.0641408488154411,-0.326202034950256,0.24862214922905
0,0.98888888142718,-0.03194444645704,-0.0916666697993398,0.027488935738802,-0.475558578968048,0.20616702735424
0,1.00833336779274,0.0125000003581147,-0.0750000036681839,-0.00122173049021512,-0.708909094333649,0.280387133359909
0,1.01944450285877,-0.00694444498106275,-0.1194444466846,-0.64049220085144,0.477696627378464,0.757472932338715
0,0.99583334084345,-0.0694444482911319,-0.281944444502361,-0.186619326472282,0.317344486713409,0.485027015209198
0,1.00555558402623,-0.156944454596674,-0.108333335930496,0.157297804951668,-0.0937678143382072,0.292909890413284
0,0.948611114060526,-0.169444445078067,-0.0763888894734557,0.353996396064758,0.0623082555830479,0.273056775331497
0,0.929166724942685,-0.12777778582816,-0.13750000469901,0.102625362575054,0.473420560359955,0.178678080439568
0,0.994444448960196,-0.10972222781375,-0.197222234119292,0.212275668978691,0.801455199718475,0.411417752504349
0,0.994444448960196,-0.0708333340964038,-0.0805555590452358,0.233655959367752,0.612697839736938,0.526565849781036
0,0.947222222177272,-0.0583333375370279,-0.0750000036681839,0.248011291027069,0.753807723522186,0.940121591091156
0,0.884722281926269,-0.0652777787193518,-0.0708333340964038,0.293826192617416,0.637437880039215,1.29564523696899
0,0.972222276075846,-0.170833336961321,0.0444444460554069,0.229074463248253,0.226020142436027,1.15392446517944
0,0.977777843608863,-0.241666677135707,-0.0569444456537738,0.0766635909676552,0.201890960335732,0.967915952205658
0,1.17638889667562,-0.290277795801886,-0.0805555590452358,-0.015577063895762,0.0968221426010132,0.375987559556961
0,1.05555559457566,-0.258333331110899,-0.0791666671619817,0.0210748501121998,0.0436768643558025,0.446847915649414
0,1.13333334554246,-0.237500001485945,-0.0944444474878658,-0.0910189226269722,0.173791155219078,0.237626582384109
0,1.08055555122652,-0.261111114877407,-0.104166672436698,-0.200974673032761,0.299629390239716,0.0580321997404099
0,0.997222232726705,-0.295833339022973,-0.0402777795226179,-0.16401731967926,0.182343274354935,0.04764748737216
0,0.870833363093728,-0.265277790527169,0.00138888893923146,-0.0717766657471657,0.0684169083833694,0.373238652944565
0,0.870833363093728,-0.181944447715425,-0.0652777787193518,-0.0485637858510017,0.196393176913261,0.602923989295959
0,0.92083337364316,-0.248611112240049,-0.029166668768514,-0.0882700309157372,0.324064016342163,0.711963415145874
0,1.0125000434425,-0.293055555256465,-0.0152777788063885,-0.0690277740359306,0.19058994948864,0.570853590965271
0,1.06388894587519,-0.318055560531181,-0.0138888899621255,0.16401731967926,0.175929188728332,0.406225383281708
0,1.14166669684199,-0.326388911830706,-0.033333335301303,0.158214092254639,0.138666406273842,0.151494577527046
0,1.10138892947533,-0.322222236180943,-0.029166668768514,0.0299323964864016,-0.0635299831628799,0.124921940267086
0,0.98888888142718,-0.301388906555989,-0.00277777787846293,-0.03176499158144,-0.154854342341423,0.0357356183230877
0,0.923611157409668,-0.259722222994153,-0.00138888893923146,-0.0394008085131645,-0.223271250724793,0.151189148426056
0,1.05555559457566,-0.284722228268869,-0.055555559848502,-0.0833831056952477,-0.000305432622553781,-0.0561996027827263
0,1.02777785415829,-0.329166671285285,-0.0152777788063885,-0.372627794742584,-0.365602850914002,-0.019547687843442
0,1.10138892947533,-0.402777795226179,-0.101388894748172,0.0369573459029198,0.126449108123779,0.16951510310173
0,0.940277860008718,-0.327777779402031,-0.0180555564949145,-0.162795588374138,-0.162795588374138,-0.00244346098043024
0,0.911111130460381,-0.305555557893823,-0.055555559848502,0.183870434761047,0.26419922709465,-0.0891863256692886
0,0.931944508709193,-0.275000009398019,0.00694444498106275,0.145385921001434,0.325591176748276,-0.0192422550171614
0,0.944444438410764,-0.281944444502361,0.0166666676506515,-0.102014496922493,-0.0534507073462009,-0.0791070461273193
0,0.981944519258625,-0.275000009398019,-0.00277777787846293,-0.271835029125214,-0.247094988822937,-0.0549778714776039
0,0.959722249126559,-0.327777779402031,-0.0388888906783549,-0.101709060370922,-0.0106901414692402,-0.204334422945976
0,1.00972225967599,-0.352777784676747,-0.033333335301303,0.0271835029125214,0.0201585534960032,-0.188451930880547
0,1.04166667574312,-0.334722238818301,-0.0458333348996699,0.154243469238281,-0.0800233483314514,-0.251676470041275
0,1.0333333244436,-0.301388906555989,-0.0388888906783549,0.107817716896534,-0.149661988019943,-0.168598800897598
0,1.0333333244436,-0.301388906555989,-0.0388888906783549,0.0995710343122482,-0.201585531234741,-0.198225766420364
0,0.977777843608863,-0.269444466176932,-0.052777782159976,0.113315500319004,-0.169820532202721,-0.1795943826437
0,0.934722292475701,-0.316666668647927,-0.0361111129898289,0.220522359013557,0.0928515195846558,-0.290771842002869
0,0.934722292475701,-0.316666668647927,-0.0361111129898289,0.142637029290199,-0.0537561401724815,-0.585208892822266
0,1.00138890837647,-0.25555557165632,-0.0347222241455659,-0.0726929605007172,-0.0919352173805237,-0.412028610706329
0,0.993055557076942,-0.250000004123303,-0.0486111125881959,-0.169820532202721,-0.203112691640854,-0.377514719963074
0,0.993055557076942,-0.250000004123303,-0.0486111125881959,-0.220827788114548,-0.239764615893364,-0.304821759462357
0,0.972222276075846,-0.215277779977737,-0.030555557612777,-0.321620553731918,-0.403476506471634,-0.35979962348938
0,0.972222276075846,-0.215277779977737,-0.030555557612777,-0.309708684682846,-0.50335294008255,-0.399505883455276
0,1.02500007039179,-0.224999998848587,-0.0888888921108138,-0.137139245867729,-0.367740869522095,-0.16371189057827
0,0.994444448960196,-0.223611131277262,-0.0847222225390337,-0.0659734457731247,-0.260228604078293,-0.262366622686386
0,0.98888888142718,-0.230555566381603,-0.143055560076062,0.0836885422468185,0.0668897479772568,-0.2379320114851
0,1.0513889189259,-0.211111128639904,-0.148611115453114,0.0262672062963247,0.240070044994354,-0.0791070461273193
0,0.979166735492117,-0.156944454596674,-0.0541666679652478,0.090408056974411,-0.199142068624496,-0.197309479117393
0,0.96666670854283,-0.202777789496344,-0.0375000018340919,0.0033597587607801,-0.497549742460251,-0.753807723522186
0,1.16111118320754,-0.290277795801886,-0.12916666555545,0.0427605658769607,-0.357356160879135,-0.588568687438965
0,1.14444448060849,-0.256944463539574,-0.144444451959316,-0.0210748501121998,-0.193338856101036,-0.272445887327194
0,1.05555559457566,-0.181944447715425,-0.1194444466846,0.0421497002243996,0.249843880534172,0.0226020142436027
0,1.00694447590948,-0.12777778582816,-0.133333341205212,0.0140499006956816,0.355523586273193,0.0986547395586967
0,0.977777843608863,-0.144444451959316,-0.102777780553444,0.0470366254448891,0.357661604881287,0.211970239877701
0,1.04861113515939,-0.20972223675665,-0.0986111170596459,0.122173048555851,0.492051959037781,0.0354301854968071
0,1.03472221632685,-0.247222220356795,-0.100000002864918,0.219300627708435,0.572380721569061,0.0207694191485643
0,1.00694447590948,-0.226388890731841,-0.0750000036681839,0.210443079471588,0.648738861083984,0.000610865245107561
0,0.98888888142718,-0.188888894975731,-0.0625000010308258,0.0714712366461754,0.705243945121765,-0.00977384392172098
0,0.977777843608863,-0.177777784221628,-0.026388891079988,0.0409279726445675,0.386983126401901,-0.0366519130766392
0,1.0361111082101,-0.247222220356795,0.00555555575692586,0.0836885422468185,0.197920337319374,-0.100181899964809
0,0.993055557076942,-0.193055558469529,0.0125000003581147,0.0537561401724815,0.137750118970871,0.00763581553474069
0,1.07222229717471,-0.156944454596674,-0.0500000014324589,0.0342084541916847,-0.00580321997404099,0.11606439948082
0,0.831944487610329,-0.0625000010308258,-0.0152777788063885,0.017409659922123,0.058643065392971,0.655458390712738
0,0.793055563503071,-0.198611113846581,-0.0402777795226179,-0.0125227374956012,0.207388743758202,-0.0812450796365738
0,1.03888889197661,-0.268055574293678,0.0236111118719664,-0.0192422550171614,0.175623759627342,-0.308181524276733
0,1.05277781080915,-0.250000004123303,-0.0180555564949145,-0.0152716310694814,0.0867428630590439,-0.72570788860321
0,0.954166681593543,-0.252777787889811,0.0194444453391775,-0.0232128798961639,-0.0378736443817616,-0.831693053245544
0,0.894444525109048,-0.162500009973726,0.030555557612777,-0.0861319974064827,0.0519235469400883,-0.771217346191406
0,1.04027778385987,-0.154166670830166,-0.0125000003581147,-0.0415388382971287,0.342695415019989,-0.319787949323654
0,1.1708333291426,-0.17361112072783,-0.029166668768514,0.118202425539494,0.404087364673615,-0.287717521190643
0,1.06666672964169,-0.130555557438704,-0.0250000007162294,0.136528387665749,0.415999233722687,-0.159435823559761
0,1.03888889197661,-0.13750000469901,-0.00277777787846293,0.118202425539494,0.440433830022812,-0.0781907513737679
0,1.06666672964169,-0.141666668192807,0.00694444498106275,0.0143553335219622,0.338113903999329,0.064446285367012
0,1.01527782720901,-0.176388892338373,0.0402777795226179,-0.0284052342176437,0.0717766657471657,-0.134084925055504
0,0.962500032893068,-0.170833336961321,0.0666666706026059,0.11117747426033,0.150272846221924,-0.339946508407593
0,1.11388895642462,-0.14722222356986,0.030555557612777,0.076052725315094,0.271835029125214,-0.233655959367752
0,1.10972228077486,-0.104166672436698,0.0138888899621255,0.0647517144680023,0.36529740691185,-0.0149661982432008
0,1.08472222687628,-0.125000002061652,0.0138888899621255,0.0537561401724815,0.425162196159363,0.0250454749912024
0,1.04861113515939,-0.134722233088466,0.0625000010308258,-0.03176499158144,0.0836885422468185,-0.114231802523136
0,1.01944450285877,-0.131944449321958,0.0680555564078778,0.0134390350431204,0.0503963828086853,-0.0784961804747581
0,1.01805561097552,-0.118055554801345,0.0458333348996699,0.00702495034784079,0.106595985591412,0.00366519158706069
0,0.981944519258625,-0.108333335930496,0.052777782159976,-0.00244346098043024,0.145385921001434,0.0873537287116051
0,1.00277780025972,-0.125000002061652,0.0583333375370279,-0.0372627787292004,0.180510684847832,0.0503963828086853
0,1.09861114570882,-0.163888889701015,0.0722222259796579,0.0378736443817616,0.22754730284214,-0.158824965357781
0,1.05833337834217,-0.130555557438704,0.0652777787193518,0.0656680166721344,0.184481307864189,-0.109955742955208
0,1.04861113515939,-0.101388894748172,0.0680555564078778,0.0265726372599602,0.0198531206697226,0.102625362575054
0,1.01805561097552,-0.0847222225390337,0.0680555564078778,0.0253509078174829,0.0925460830330849,-0.0555887371301651
0,0.938888968125464,-0.105555564319952,0.0722222259796579,-0.0253509078174829,0.207083314657211,0.0351247526705265
0,0.916666697993398,-0.13750000469901,0.0638888929140799,-0.0488692186772823,0.289550125598908,0.0922406539320946
0,1.02500007039179,-0.1194444466846,0.118055554801345,-0.147829383611679,-0.0601702257990837,0.0332921557128429
0,1.02500007039179,-0.1194444466846,0.118055554801345,-0.120951317250729,-0.243735238909721,0.0620028227567673
0,0.99583334084345,-0.14722222356986,0.0777777813567098,-0.104763388633728,-0.199752941727638,-0.00733038317412138
0,1.03194452980806,-0.125000002061652,0.055555559848502,-0.00855211354792118,0.0320704244077206,-0.0171042270958424
0,1.03194452980806,-0.125000002061652,0.055555559848502,0.0183259565383196,0.240986332297325,0.0430659987032413
0,1.05972227022542,-0.144444451959316,0.0680555564078778,0.0314595587551594,0.253814518451691,-0.000916297896765172
0,1.02083339474202,-0.15555556271342,0.0875000002275597,0.0791070461273193,0.118813291192055,0.0372627787292004
0,0.948611114060526,-0.15555556271342,0.111111119697004,0.134390354156494,-0.18020524084568,0.143247902393341
0,0.986111194908388,-0.120833338567854,0.0833333367337618,0.151494577527046,-0.416304677724838,0.120035022497177
0,1.0361111082101,-0.134722233088466,0.055555559848502,0.0983493030071259,-0.368657171726227,-0.0592539273202419
0,1.02500007039179,-0.15555556271342,0.0444444460554069,0.0910189226269722,-0.207694187760353,-0.21685716509819
0,0.99583334084345,-0.14583334384257,0.0416666683668809,0.0708603709936142,-0.267864406108856,-0.173485726118088
0,0.99583334084345,-0.14583334384257,0.0416666683668809,-0.0021380283869803,-0.245262399315834,0.00519235478714108
0,1.04722224327614,-0.101388894748172,0.0430555572111439,-0.0403171069920063,-0.140804439783096,0.0748309940099716
0,1.04722224327614,-0.101388894748172,0.0430555572111439,0.0232128798961639,-0.188757359981537,-0.0409279726445675
0,1.03750000009336,-0.148611115453114,0.0458333348996699,0.162795588374138,-0.0901026204228401,-0.117286130785942
0,1.03888889197661,-0.123611110178398,0.0194444453391775,0.206472456455231,0.0427605658769607,-0.113926365971565
0,1.03888889197661,-0.123611110178398,0.0194444453391775,0.172874867916107,0.0910189226269722,-0.0458148941397667
0,1.00555558402623,-0.130555557438704,0.0458333348996699,0.122783914208412,0.0748309940099716,-0.0717766657471657
0,0.963888924776322,-0.112499999424294,0.112499999424294,0.101098194718361,0.25870144367218,-0.145996794104576
0,0.963888924776322,-0.112499999424294,0.112499999424294,-0.00488692196086049,0.162490159273148,-0.270613312721252
0,1.00416669214298,-0.16527778158427,0.111111119697004,-0.01191187184304,0.248011291027069,0.0519235469400883
0,1.07777786470773,-0.0819444448505077,0.03194444645704,-0.0916297882795334,0.22785273194313,0.22235494852066
0,1.07777786470773,-0.0819444448505077,0.03194444645704,-0.0705549344420433,0.31703907251358,0.192117124795914
0,0.990277773310434,-0.111111119697004,0.0847222225390337,0.0485637858510017,0.161573857069016,0.0445931628346443
0,0.961111141009813,-0.144444451959316,0.0972222251763917,-0.00885754637420177,0.0439822971820831,-0.00610865233466029
0,0.993055557076942,-0.144444451959316,0.0847222225390337,-0.0549778714776039,0.0891863256692886,-0.00366519158706069
0,1.0361111082101,-0.116666675074056,0.0680555564078778,-0.160962998867035,0.191200822591782,-0.0302378293126821
0,1.02916674604155,-0.120833338567854,0.0986111170596459,-0.0836885422468185,0.106290549039841,0.0308486949652433
0,1.01666671909226,-0.134722233088466,0.111111119697004,0.03176499158144,-0.02382374368608,0.0360410511493683
0,1.00555558402623,-0.118055554801345,0.0930555616825939,0.0363464802503586,0.0189368221908808,-0.03176499158144
0,1.00277780025972,-0.108333335930496,0.0625000010308258,-0.0925460830330849,0.0729983970522881,-0.0629191175103188
0,0.976388951725609,-0.131944449321958,0.0944444474878658,-0.0729983970522881,-0.140193566679955,-0.098960168659687
0,1.00277780025972,-0.138888896582264,0.0819444448505077,0.0601702257990837,-0.24862214922905,-0.0369573459029198
0,1.0513889189259,-0.120833338567854,0.0583333375370279,0.131946891546249,-0.226325571537018,0.00946841109544039
0,1.06250005399193,-0.118055554801345,0.0611111152255539,0.087659165263176,-0.141109868884087,0.00671951752156019
0,1.04444445950963,-0.115277783190802,0.0694444482911319,0.0681114718317986,-0.0314595587551594,-0.0113010071218014
0,1.03888889197661,-0.118055554801345,0.0750000036681839,0.0045814891345799,0.0448985956609249,-0.0922406539320946
0,1.03888889197661,-0.12777778582816,0.0763888894734557,0.0604756586253643,-0.0189368221908808,0.0394008085131645
0,1.03888889197661,-0.12777778582816,0.0763888894734557,0.0604756586253643,-0.0189368221908808,0.0394008085131645
0,1.0125000434425,-0.16527778158427,0.0680555564078778,-0.0668897479772568,-0.159130394458771,0.429743707180023
0,1.06527783775844,-0.134722233088466,0.0569444456537738,-0.236099421977997,-0.0745255574584007,0.222965821623802
0,1.07777786470773,-0.120833338567854,0.00277777787846293,-0.0861319974064827,0.141109868884087,0.0720821022987366
0,1.00138890837647,-0.130555557438704,0.0541666679652478,0.122478485107422,0.663399636745453,-0.0134390350431204
0,0.887500065692777,-0.138888896582264,0.161111118090472,-0.0314595587551594,-0.0956004112958908,0.201280102133751
0,0.952777789710289,-0.19166667874224,0.134722233088466,0.0568104684352875,-0.296269655227661,-0.0033597587607801
0,1.05555559457566,-0.12916666555545,0.055555559848502,0.104152522981167,-0.0369573459029198,-0.0106901414692402
0,1.0694445134082,-0.112499999424294,0.0236111118719664,0.00519235478714108,0.231517925858498,0.00549778714776039
0,1.04305556762637,-0.138888896582264,0.0402777795226179,-0.136528387665749,0.43401974439621,0.0397062413394451
0,1.07777786470773,-0.181944447715425,0.033333335301303,-0.2165517359972,0.737619757652283,-0.0650571510195732
0,1.07777786470773,-0.181944447715425,0.033333335301303,-0.139888137578964,0.924849987030029,-0.17409659922123
0,1.02083339474202,-0.130555557438704,0.1194444466846,-0.0613919571042061,0.891557812690735,-0.0794124826788902
0,0.947222222177272,-0.0958333393711199,0.200000005729836,0.0855211317539215,0.178067222237587,-0.168293371796608
0,0.947222222177272,-0.0958333393711199,0.200000005729836,0.238848313689232,-0.572075307369232,-0.0736092627048492
0,0.983333411141879,-0.123611110178398,0.115277783190802,0.0537561401724815,-0.680198431015015,0.277332812547684
0,1.16388896697405,-0.275000009398019,-0.0111111115138517,-0.0931569486856461,-0.394618958234787,0.293520748615265
0,1.16388896697405,-0.275000009398019,-0.0111111115138517,0.2379320114851,-0.0323758572340012,-0.037568211555481
0,1.00277780025972,-0.161111118090472,0.13750000469901,-0.0500909499824047,-0.451734840869904,-0.145691365003586
0,1.04305556762637,-0.12777778582816,0.0972222251763917,-0.0681114718317986,-0.164628177881241,-0.0280998013913631
0,1.04305556762637,-0.12777778582816,0.0972222251763917,-0.251371055841446,-0.151189148426056,0.0213802829384804
0,1.08055555122652,-0.12777778582816,0.0652777787193518,-0.0897971913218498,0.309708684682846,0.0497855171561241
0,1.12499999424293,-0.14722222356986,0.0569444456537738,0.0775798857212067,0.294131606817245,-0.0583376325666905
0,0.952777789710289,-0.13750000469901,0.13750000469901,0.0940732508897781,-0.101098194718361,-0.0842994004487991
0,0.925000049292922,-0.12777778582816,0.154166670830166,0.0271835029125214,-0.0867428630590439,-0.0140499006956816
0,1.05277781080915,-0.0916666697993398,0.0847222225390337,-0.127670839428902,-0.0833831056952477,-0.0345138870179653
0,1.02500007039179,-0.0916666697993398,0.00833333382532574,-0.145691365003586,-0.0592539273202419,0.0113010071218014
0,1.0305556379248,-0.140277788465518,0.0944444474878658,-0.182343274354935,-0.308181524276733,0.0433714315295219
0,1.00277780025972,-0.12916666555545,0.0666666706026059,-0.00671951752156019,-0.00580321997404099,-0.0201585534960032
0,1.0361111082101,-0.138888896582264,0.0791666671619817,-0.0332921557128429,-0.0445931628346443,-0.0397062413394451
0,1.02916674604155,-0.150000007336368,0.0930555616825939,-0.0259617734700441,-0.0467311926186085,-0.0109955742955208
0,1.03472221632685,-0.125000002061652,0.0777777813567098,-0.0128281703218818,0.0222965814173222,-0.0134390350431204
0,0.962500032893068,-0.122222230451108,0.0986111170596459,0.0167987942695618,-0.173180297017098,-0.00397062394768
0,1.04305556762637,-0.14722222356986,0.0680555564078778,-0.0198531206697226,0.00763581553474069,-0.00183259579353034
0,1.05833337834217,-0.152777778946911,0.0750000036681839,0.01588249579072,0.0201585534960032,-0.0323758572340012
0,1.0361111082101,-0.14722222356986,0.0750000036681839,0.0537561401724815,0.104152522981167,-0.0363464802503586
0,1.03472221632685,-0.134722233088466,0.0944444474878658,0.0494800843298435,0.0772744566202164,-0.0106901414692402
0,1.01527782720901,-0.12777778582816,0.0888888921108138,0.00763581553474069,-0.0171042270958424,0.0113010071218014
0,0.997222232726705,-0.120833338567854,0.0819444448505077,-0.0131336031481624,-0.0403171069920063,-0.00946841109544039
0,1.0125000434425,-0.130555557438704,0.108333335930496,-0.0125227374956012,-0.128587126731873,0.00763581553474069
0,1.0125000434425,-0.126388893944906,0.0958333393711199,-0.0485637858510017,-0.181121543049812,0.0406225398182869
0,1.01666671909226,-0.118055554801345,0.0819444448505077,-0.0360410511493683,-0.217468023300171,0.0626136884093285
0,0.994444448960196,-0.118055554801345,0.0916666697993398,-0.0592539273202419,-0.137750118970871,0.058643065392971
0,1.01527782720901,-0.1194444466846,0.0944444474878658,-0.00763581553474069,-0.129503428936005,0.03176499158144
0,1.06250005399193,-0.156944454596674,0.055555559848502,-0.017409659922123,0.0766635909676552,-0.0882700309157372
0,1.06666672964169,-0.152777778946911,0.0583333375370279,0.00427605677396059,-0.0421497002243996,0.00946841109544039
0,0.972222276075846,-0.120833338567854,0.0944444474878658,-0.0913243517279625,-0.115758962929249,-0.0128281703218818
0,0.983333411141879,-0.125000002061652,0.0791666671619817,-0.110566608607769,-0.123700208961964,-0.00305432616733015
0,1.03888889197661,-0.138888896582264,0.0777777813567098,0.0604756586253643,0.0299323964864016,-0.0323758572340012
0,1.0694445134082,-0.16527778158427,0.0652777787193518,0.128281697630882,0.269391566514969,-0.0733038261532784
0,1.06250005399193,-0.161111118090472,0.0513888902767219,0.110566608607769,0.276416510343552,-0.0665843114256859
0,1.04722224327614,-0.134722233088466,0.055555559848502,0.0464257597923279,0.199752941727638,-0.0491746515035629
0,1.01666671909226,-0.108333335930496,0.101388894748172,0.177456349134445,0.368657171726227,-0.11636982858181
0,0.997222232726705,-0.113888891307548,0.0986111170596459,0.203112691640854,0.456316351890564,-0.0665843114256859
0,1.03888889197661,-0.154166670830166,0.0763888894734557,0.105068825185299,0.467617332935333,-0.0146607663482428
0,1.00138890837647,-0.133333341205212,0.112499999424294,0.0345138870179653,0.21685716509819,0.013744467869401
0,0.99583334084345,-0.108333335930496,0.0986111170596459,-0.0659734457731247,0.150883719325066,-0.0363464802503586
0,1.0125000434425,-0.113888891307548,0.102777780553444,-0.0781907513737679,0.184786736965179,-0.0308486949652433
0,1.04166667574312,-0.138888896582264,0.116666675074056,-0.0699440687894821,0.170736834406853,0.0638354197144508
0,0.973611167959101,-0.125000002061652,0.151388899219622,-0.00244346098043024,0.0574213340878487,0.0235183127224445
0,0.973611167959101,-0.134722233088466,0.14722222356986,0.107512280344963,0.0662788823246956,0.0378736443817616
0,0.975000059842355,-0.12916666555545,0.133333341205212,0.11606439948082,-0.0815505087375641,-0.0400116741657257
0,1.01944450285877,-0.13750000469901,0.116666675074056,0.0671951770782471,-0.0946841165423393,-0.0797179117798805
0,1.0125000434425,-0.113888891307548,0.123611110178398,0.0244346093386412,-0.144164204597473,-0.0696386396884918
0,1.00416669214298,-0.101388894748172,0.108333335930496,0.0100792767480016,-0.0864374339580536,-0.0467311926186085
0,1.04166667574312,-0.130555557438704,0.112499999424294,0.104457959532738,0.17440202832222,-0.0873537287116051
0,1.0305556379248,-0.104166672436698,0.116666675074056,0.0864374339580536,0.104457959532738,-0.0113010071218014
0,1.01944450285877,-0.0972222251763917,0.106944444047242,0.0711658000946045,0.17989981174469,-0.0183259565383196
0,1.00694447590948,-0.104166672436698,0.0986111170596459,-0.0262672062963247,0.157297804951668,0.0400116741657257
0,1.04722224327614,-0.144444451959316,0.113888891307548,0.0021380283869803,0.116980694234371,0.0384845100343227
0,1.05694448645892,-0.161111118090472,0.208333344873396,0.0256563406437635,-0.0922406539320946,0.0592539273202419
0,0.940277860008718,-0.140277788465518,0.169444445078067,-0.0842994004487991,-0.199752941727638,-0.0699440687894821
0,0.904166671044111,-0.0194444453391775,0.144444451959316,-0.207694187760353,-0.277332812547684,0.17989981174469
0,1.02916674604155,-0.116666675074056,0.141666668192807,-0.0229074470698834,-0.0519235469400883,-0.000610865245107561
0,1.0125000434425,-0.156944454596674,0.130555557438704,0.0503963828086853,-0.0571159012615681,-0.0497855171561241
0,1.03888889197661,-0.154166670830166,0.0916666697993398,0.0287106670439243,-0.0229074470698834,-0.0693332031369209
0,1.02222228662528,-0.0888888921108138,0.102777780553444,-0.0723875313997269,-0.108734011650086,-0.0369573459029198
0,1.06388894587519,-0.143055560076062,0.122222230451108,-0.0186313893646002,0.0653625801205635,0.0351247526705265
0,0.962500032893068,-0.115277783190802,0.126388893944906,-0.114231802523136,-0.143247902393341,-0.00885754637420177
0,0.986111194908388,-0.102777780553444,0.112499999424294,-0.0940732508897781,-0.134695783257484,-0.0403171069920063
0,1.01666671909226,-0.115277783190802,0.112499999424294,0.161573857069016,-0.0357356183230877,0.131946891546249
0,1.11666674019113,-0.159722226207217,-0.0222222230277034,-0.0348193198442459,0.0369573459029198,-0.10598511993885
0,1.03194452980806,-0.0875000002275597,0.193055558469529,-0.0821613743901253,-0.192727982997894,-0.0213802829384804
0,1.03472221632685,-0.118055554801345,0.202777789496344,0.135917514562607,-0.188146501779556,-0.0247400421649218
0,1.04166667574312,-0.106944444047242,0.243055569018962,-0.0183259565383196,0.0467311926186085,-0.0106901414692402
0,1.05833337834217,-0.131944449321958,-0.0486111125881959,-0.165544480085373,-0.0598647929728031,0.0284052342176437
0,1.12777777800944,-0.244444460902216,-0.187500003092477,-0.00671951752156019,-0.0815505087375641,0.0699440687894821
0,1.0305556379248,-0.112499999424294,0.166666673467524,-0.0384845100343227,0.00794124789535999,-0.0103847095742822
0,1.0305556379248,-0.112499999424294,0.166666673467524,-0.0390953756868839,-0.0708603709936142,-0.0693332031369209
0,1.00416669214298,-0.105555564319952,0.126388893944906,0.104763388633728,-0.0616973899304867,-0.0534507073462009
0,1.00000001649321,-0.10972222781375,0.0944444474878658,0.16371189057827,-0.178067222237587,-0.0045814891345799
0,1.02222228662528,-0.0902777839940679,0.104166672436698,0.0439822971820831,-0.23243422806263,0.0219911485910416
0,1.05694448645892,-0.108333335930496,0.0777777813567098,-0.114537231624126,-0.0552833043038845,-0.0959058403968811
0,1.08194444310977,-0.140277788465518,0.0750000036681839,-0.0598647929728031,0.0919352173805237,-0.171958565711975
0,1.02638896227504,-0.116666675074056,0.0847222225390337,-0.0189368221908808,0.0510072484612465,-0.15332718193531
0,0.983333411141879,-0.120833338567854,0.0916666697993398,-0.0305432621389627,-0.0671951770782471,-0.0470366254448891
0,0.986111194908388,-0.108333335930496,0.0930555616825939,-0.0232128798961639,-0.143247902393341,0.0729983970522881
0,1.02083339474202,-0.12777778582816,0.0805555590452358,-0.0458148941397667,-0.178983509540558,0.0864374339580536
0,1.01944450285877,-0.150000007336368,0.0680555564078778,-0.0241291765123606,-0.0320704244077206,-0.0308486949652433
0,1.02500007039179,-0.111111119697004,0.101388894748172,0.0146607663482428,0.0638354197144508,-0.100792765617371
0,0.998611124609959,-0.0986111170596459,0.120833338567854,0.076052725315094,-0.0675006061792374,-0.00427605677396059
0,1.01527782720901,-0.125000002061652,0.0777777813567098,0.156076073646545,-0.109650313854218,0.00671951752156019
0,1.02638896227504,-0.113888891307548,0.0750000036681839,0.109039448201656,-0.0882700309157372,-0.01191187184304
0,1.01944450285877,-0.112499999424294,0.0750000036681839,0.0290160998702049,-0.0305432621389627,0.0210748501121998
0,1.02916674604155,-0.112499999424294,0.0944444474878658,-0.0577267669141293,-0.0256563406437635,0.0647517144680023
0,1.03194452980806,-0.108333335930496,0.0750000036681839,-0.161573857069016,-0.140804439783096,0.076052725315094
0,1.0333333244436,-0.104166672436698,0.0791666671619817,-0.124616511166096,-0.0729983970522881,0.0549778714776039
0,1.00138890837647,-0.0888888921108138,0.115277783190802,0.0739146918058395,-0.00641408516094089,0.0403171069920063
0,1.02222228662528,-0.102777780553444,0.0750000036681839,-0.0458148941397667,0.0354301854968071,0.00916297826915979
0,1.00972225967599,-0.130555557438704,0.0777777813567098,-0.12675453722477,-0.0461203269660473,-0.0198531206697226
0,0.98888888142718,-0.0875000002275597,0.0722222259796579,-0.109955742955208,-0.0568104684352875,-0.0400116741657257
0,1.01944450285877,-0.106944444047242,0.0777777813567098,-0.0290160998702049,0.0149661982432008,-0.0171042270958424
0,1.02361117850853,-0.112499999424294,0.0777777813567098,0.0604756586253643,-0.00580321997404099,0.0268780700862408
0,1.02361117850853,-0.112499999424294,0.0777777813567098,0.05283984541893,-0.0390953756868839,0.0290160998702049
0,1.02777785415829,-0.123611110178398,0.0625000010308258,0.00824668072164059,0.00122173049021512,-0.0335975885391235
0,1.0361111082101,-0.120833338567854,0.0583333375370279,0.00580321997404099,0.114231802523136,-0.0448985956609249
0,1.0361111082101,-0.120833338567854,0.0583333375370279,0.01191187184304,0.0974330082535744,-0.00916297826915979
0,1.03888889197661,-0.113888891307548,0.0625000010308258,0.0653625801205635,0.0956004112958908,0.0742201283574104
0,1.02916674604155,-0.106944444047242,0.0708333340964038,0.0488692186772823,0.207083314657211,0.0445931628346443
0,0.993055557076942,-0.122222230451108,0.0847222225390337,0.0678060427308083,0.288939267396927,0.0299323964864016
0,0.98888888142718,-0.120833338567854,0.0944444474878658,0.03176499158144,0.209832206368446,0.0516181141138077
0,1.00694447590948,-0.130555557438704,0.113888891307548,0.107206851243973,0.153938040137291,0.0577267669141293
0,1.00694447590948,-0.130555557438704,0.113888891307548,0.142942473292351,0.0653625801205635,0.0791070461273193
0,1.01666671909226,-0.10972222781375,0.0763888894734557,0.0500909499824047,-0.0149661982432008,0.0415388382971287
0,1.04027778385987,-0.105555564319952,0.0750000036681839,-0.0287106670439243,0.00763581553474069,0.0140499006956816
0,1.04027778385987,-0.105555564319952,0.0750000036681839,-0.243735238909721,0.0757472887635231,0.0342084541916847
0,1.07638897282447,-0.108333335930496,0.265277790527169,0.144469633698463,0.0861319974064827,0.078801617026329
0,0.972222276075846,-0.108333335930496,0.14722222356986,0.131030589342117,0.0113010071218014,0.0815505087375641
0,0.969444492309338,-0.108333335930496,0.1194444466846,0.125227376818657,-0.0378736443817616,0.0638354197144508
0,1.00416669214298,-0.12777778582816,0.104166672436698,0.0293215326964855,-0.0568104684352875,0.0531452745199203
0,1.03888889197661,-0.118055554801345,0.0875000002275597,-0.0232128798961639,0.01191187184304,-0.000610865245107561
0,1.0513889189259,-0.120833338567854,0.0819444448505077,0.0134390350431204,-0.0113010071218014,-0.000916297896765172
0,1.02777785415829,-0.12777778582816,0.0944444474878658,0.0558941699564457,-0.00397062394768,-0.0149661982432008
0,1.00833336779274,-0.126388893944906,0.104166672436698,-0.0607810914516449,-0.0226020142436027,0.0113010071218014
0,1.01527782720901,-0.1194444466846,0.101388894748172,-0.0580321997404099,-0.0714712366461754,-0.0284052342176437
0,1.0513889189259,-0.12916666555545,0.0625000010308258,-0.0106901414692402,-0.0519235469400883,-0.0265726372599602
0,1.05833337834217,-0.12777778582816,0.0513888902767219,-0.0815505087375641,-0.0922406539320946,-0.0439822971820831
0,0.998611124609959,-0.120833338567854,0.105555564319952,-0.123089343309402,-0.253509074449539,-0.0455094613134861
0,0.991666665193688,-0.123611110178398,0.108333335930496,-0.107817716896534,-0.23273965716362,-0.0708603709936142
0,1.01527782720901,-0.120833338567854,0.0819444448505077,-0.0910189226269722,-0.172874867916107,0.000610865245107561
0,1.04305556762637,-0.125000002061652,0.0791666671619817,-0.0949895456433296,-0.11087204515934,0.0397062413394451
0,1.0125000434425,-0.131944449321958,0.0902777839940679,-0.0968221426010132,-0.171347707509995,-0.00244346098043024
0,0.983333411141879,-0.148611115453114,0.101388894748172,-0.0681114718317986,-0.255036234855652,-0.0305432621389627
0,0.994444448960196,-0.118055554801345,0.0708333340964038,0.00366519158706069,-0.224492982029915,-0.0507018156349659
0,1.0333333244436,-0.101388894748172,0.0361111129898289,0.0733038261532784,-0.150883719325066,-0.00702495034784079
0,1.04305556762637,-0.104166672436698,0.0388888906783549,0.0742201283574104,-0.0629191175103188,0.0351247526705265
0,1.0361111082101,-0.12777778582816,0.0486111125881959,0.0736092627048492,0.110566608607769,0.0482583530247212
0,1.01944450285877,-0.13750000469901,0.0625000010308258,0.0595593601465225,0.238848313689232,0.0568104684352875
0,1.02361117850853,-0.12777778582816,0.0652777787193518,0.0308486949652433,0.389121174812317,0.0558941699564457
0,1.02916674604155,-0.126388893944906,0.0722222259796579,0.0436768643558025,0.426383942365646,0.147829383611679
0,1.03194452980806,-0.140277788465518,0.0833333367337618,0.087659165263176,0.404392778873444,0.192422553896904
0,1.01805561097552,-0.144444451959316,0.0986111170596459,0.11117747426033,0.309708684682846,0.105068825185299
0,1.01111115155925,-0.144444451959316,0.0972222251763917,0.135612085461616,0.141415297985077,-0.0910189226269722
0,0.991666665193688,-0.130555557438704,0.104166672436698,0.096211276948452,0.0598647929728031,0.021685715764761
0,1.0361111082101,-0.134722233088466,0.0986111170596459,0.0287106670439243,0.0705549344420433,-0.00152716308366507
0,1.0125000434425,-0.118055554801345,0.101388894748172,0.0149661982432008,-0.0500909499824047,0.0323758572340012
0,1.00972225967599,-0.125000002061652,0.0944444474878658,-0.0433714315295219,-0.0772744566202164,0.0177150927484035
0,1.02222228662528,-0.130555557438704,0.0680555564078778,-0.037568211555481,-0.0568104684352875,0.00366519158706069
0,1.01527782720901,-0.143055560076062,0.0986111170596459,0.0412334054708481,-0.0424551330506802,-0.0284052342176437
0,1.02777785415829,-0.148611115453114,0.101388894748172,0.0244346093386412,0.000305432622553781,-0.00885754637420177
0,1.02500007039179,-0.13750000469901,0.0986111170596459,0.00824668072164059,0.00733038317412138,-0.000916297896765172
0,1.02083339474202,-0.134722233088466,0.0861111144222878,-0.000305432622553781,0.00549778714776039,-0.00244346098043024
0,1.01527782720901,-0.134722233088466,0.0944444474878658,0.00183259579353034,-0.0021380283869803,0.00183259579353034
0,1.01805561097552,-0.134722233088466,0.0944444474878658,0.00855211354792118,-0.00977384392172098,-0.000305432622553781
0,1.01944450285877,-0.134722233088466,0.0944444474878658,0.00794124789535999,-0.000916297896765172,0.0106901414692402
0,1.01944450285877,-0.130555557438704,0.0888888921108138,0.0167987942695618,-0.00183259579353034,0.0103847095742822
0,1.01944450285877,-0.131944449321958,0.0888888921108138,0.0128281703218818,-0.00488692196086049,0.00183259579353034
0,1.01666671909226,-0.134722233088466,0.100000002864918,0.00183259579353034,-0.00183259579353034,-0.00855211354792118
0,1.01805561097552,-0.134722233088466,0.0847222225390337,-0.0027488935738802,0.00916297826915979,-0.00519235478714108
0,1.02083339474202,-0.136111112815755,0.0986111170596459,0.00183259579353034,0.00549778714776039,-0.0134390350431204
0,1.01527782720901,-0.143055560076062,0.0944444474878658,0.00152716308366507,0.00397062394768,-0.0100792767480016
0,1.01805561097552,-0.144444451959316,0.0930555616825939,-0.00183259579353034,-0.0021380283869803,-0.00549778714776039
5,1.01527782720901,-0.140277788465518,0.0986111170596459,0.0103847095742822,0.000916297896765172,-0.00519235478714108
5,1.0125000434425,-0.143055560076062,0.0875000002275597,0.0210748501121998,-0.0152716310694814,-0.00122173049021512
5,1.01527782720901,-0.141666668192807,0.0888888921108138,0.0265726372599602,-0.00549778714776039,-0.00152716308366507
5,1.01666671909226,-0.138888896582264,0.0958333393711199,0.0244346093386412,-0.00610865233466029,0.00152716308366507
5,1.01944450285877,-0.13750000469901,0.111111119697004,0.0290160998702049,-0.00580321997404099,-0.00641408516094089
5,1.01805561097552,-0.138888896582264,0.0986111170596459,0.0329867228865623,-0.00397062394768,-0.000610865245107561
5,1.01527782720901,-0.13750000469901,0.101388894748172,0.0332921557128429,-0.00519235478714108,-0.0027488935738802
5,1.01388893532575,-0.138888896582264,0.0930555616825939,0.0363464802503586,-0.000916297896765172,-0.00549778714776039
5,1.01388893532575,-0.13750000469901,0.100000002864918,0.0455094613134861,-0.00641408516094089,-0.0134390350431204
5,1.01944450285877,-0.134722233088466,0.0902777839940679,0.0397062413394451,-0.00916297826915979,-0.00244346098043024
5,1.01527782720901,-0.131944449321958,0.101388894748172,0.0329867228865623,-0.0143553335219622,-0.011606439948082
5,1.01111115155925,-0.12916666555545,0.0916666697993398,0.0314595587551594,-0.01588249579072,-0.00671951752156019
5,1.01944450285877,-0.133333341205212,0.104166672436698,0.03176499158144,-0.015577063895762,-0.00733038317412138
5,1.01944450285877,-0.136111112815755,0.100000002864918,0.0363464802503586,-0.0100792767480016,-0.00610865233466029
5,1.02222228662528,-0.140277788465518,0.0972222251763917,0.0308486949652433,-0.00152716308366507,-0.0219911485910416
5,1.01805561097552,-0.14583334384257,0.0847222225390337,0.0302378293126821,0.000305432622553781,-0.00977384392172098
5,1.01527782720901,-0.150000007336368,0.0972222251763917,0.0464257597923279,-0.00397062394768,-0.0140499006956816
5,1.0125000434425,-0.150000007336368,0.101388894748172,0.0720821022987366,-0.0213802829384804,-0.00946841109544039
5,1.0125000434425,-0.144444451959316,0.0930555616825939,0.0778853222727776,-0.0314595587551594,-0.00824668072164059
5,1.01805561097552,-0.134722233088466,0.0916666697993398,0.0919352173805237,-0.0284052342176437,-0.0033597587607801
5,1.01944450285877,-0.12916666555545,0.0902777839940679,0.0943786799907684,-0.0198531206697226,-0.00183259579353034
5,1.01944450285877,-0.125000002061652,0.0930555616825939,0.0971275717020035,-0.0287106670439243,0.0045814891345799
5,1.01805561097552,-0.123611110178398,0.111111119697004,0.0940732508897781,-0.029626963660121,0.00580321997404099
5,1.00972225967599,-0.112499999424294,0.106944444047242,0.0885754600167274,-0.037568211555481,0.0161879286170006
5,1.00972225967599,-0.106944444047242,0.100000002864918,0.0620028227567673,-0.0424551330506802,0.0164933614432812
5,1.01527782720901,-0.105555564319952,0.0958333393711199,0.0320704244077206,-0.0381790772080422,0.0207694191485643
5,1.02222228662528,-0.104166672436698,0.101388894748172,0.0027488935738802,-0.0299323964864016,0.0256563406437635
5,1.02083339474202,-0.101388894748172,0.0916666697993398,-0.01191187184304,-0.0305432621389627,0.0146607663482428
5,1.01944450285877,-0.101388894748172,0.0986111170596459,-0.0226020142436027,-0.02382374368608,0.0125227374956012
5,1.01527782720901,-0.10972222781375,0.101388894748172,-0.0427605658769607,-0.0180205255746841,0.0265726372599602
5,1.01388893532575,-0.108333335930496,0.0944444474878658,-0.05283984541893,-0.0241291765123606,0.0143553335219622
5,1.01944450285877,-0.113888891307548,0.0986111170596459,-0.0739146918058395,-0.0198531206697226,0.0103847095742822
5,1.02222228662528,-0.120833338567854,0.0986111170596459,-0.0775798857212067,-0.0164933614432812,0.013744467869401
5,1.02500007039179,-0.130555557438704,0.104166672436698,-0.0696386396884918,-0.00397062394768,0.00580321997404099
5,1.02222228662528,-0.130555557438704,0.101388894748172,-0.0662788823246956,-0.00671951752156019,-0.00183259579353034
5,1.01944450285877,-0.125000002061652,0.102777780553444,-0.0641408488154411,0.000916297896765172,-0.00366519158706069
5,1.01944450285877,-0.122222230451108,0.101388894748172,-0.0647517144680023,0.0021380283869803,-0.00122173049021512
5,1.02222228662528,-0.116666675074056,0.106944444047242,-0.070249505341053,-0.000610865245107561,-0.00488692196086049
5,1.01944450285877,-0.116666675074056,0.0944444474878658,-0.0803287774324417,-0.00610865233466029,-0.00488692196086049
5,1.01805561097552,-0.118055554801345,0.0916666697993398,-0.0891863256692886,-0.00671951752156019,-0.00244346098043024
5,1.01666671909226,-0.115277783190802,0.0930555616825939,-0.0946841165423393,-0.00488692196086049,-0.000610865245107561
5,1.01944450285877,-0.120833338567854,0.0958333393711199,-0.102930791676045,-0.00733038317412138,0.00519235478714108
5,1.01527782720901,-0.125000002061652,0.0916666697993398,-0.112093769013882,-0.0113010071218014,0.015577063895762
5,1.01527782720901,-0.125000002061652,0.0916666697993398,-0.106595985591412,-0.011606439948082,0.0140499006956816
5,1.02222228662528,-0.136111112815755,0.101388894748172,-0.106290549039841,-0.00244346098043024,0.00610865233466029
5,1.01944450285877,-0.13750000469901,0.0986111170596459,-0.0965167060494423,0.000916297896765172,-0.00397062394768
5,1.01944450285877,-0.13750000469901,0.0986111170596459,-0.0916297882795334,-0.00549778714776039,-0.00488692196086049
5,1.02222228662528,-0.144444451959316,0.0875000002275597,-0.096211276948452,-0.00488692196086049,-0.00733038317412138
5,1.02222228662528,-0.144444451959316,0.0847222225390337,-0.0794124826788902,0.00305432616733015,-0.00366519158706069
5,1.02222228662528,-0.144444451959316,0.0847222225390337,-0.0708603709936142,-0.0021380283869803,0.000916297896765172
5,1.01666671909226,-0.144444451959316,0.0833333367337618,-0.0565050356090069,-0.00244346098043024,0.00397062394768
5,1.01944450285877,-0.154166670830166,0.0805555590452358,-0.0500909499824047,0.00244346098043024,0.0021380283869803
5,1.01944450285877,-0.154166670830166,0.0805555590452358,-0.0500909499824047,0.0299323964864016,0.0021380283869803
5,1.02222228662528,-0.156944454596674,0.0819444448505077,-0.0436768643558025,0.0345138870179653,0.0103847095742822
5,1.01527782720901,-0.14722222356986,0.0777777813567098,-0.021685715764761,0.011606439948082,0.00885754637420177
5,1.01527782720901,-0.14722222356986,0.0777777813567098,-0.00549778714776039,-0.00763581553474069,0.0253509078174829
5,1.01388893532575,-0.14722222356986,0.0750000036681839,0.00305432616733015,0.00488692196086049,0.0189368221908808
5,1.01944450285877,-0.150000007336368,0.0722222259796579,0.0131336031481624,-0.0021380283869803,0.0180205255746841
5,1.01527782720901,-0.13750000469901,0.0750000036681839,0.0201585534960032,0.000610865245107561,0.0164933614432812
5,1.01527782720901,-0.13750000469901,0.0750000036681839,0.0140499006956816,-0.0106901414692402,0.0241291765123606
5,1.02222228662528,-0.144444451959316,0.0819444448505077,0.00671951752156019,-0.011606439948082,0.0177150927484035
5,1.02222228662528,-0.144444451959316,0.0819444448505077,0.0125227374956012,-0.01191187184304,0.0250454749912024
5,1.02222228662528,-0.14722222356986,0.0819444448505077,0.0180205255746841,-0.00122173049021512,0.029626963660121
5,1.01944450285877,-0.14583334384257,0.0736111117849297,0.0198531206697226,-0.0122173046693206,0.0241291765123606
5,1.01666671909226,-0.144444451959316,0.0777777813567098,0.0213802829384804,-0.0186313893646002,0.0198531206697226
5,1.01944450285877,-0.140277788465518,0.0819444448505077,0.0259617734700441,-0.0143553335219622,0.0143553335219622
5,1.01666671909226,-0.134722233088466,0.0750000036681839,0.01191187184304,-0.0100792767480016,0.0229074470698834
5,1.02222228662528,-0.130555557438704,0.0722222259796579,0.00305432616733015,0.00488692196086049,0.019547687843442
5,1.02361117850853,-0.134722233088466,0.0833333367337618,-0.00366519158706069,0.00610865233466029,0.015577063895762
5,1.01527782720901,-0.13750000469901,0.0722222259796579,-0.0033597587607801,0.00610865233466029,0.00549778714776039
5,1.01666671909226,-0.14583334384257,0.0763888894734557,-0.000610865245107561,0.00397062394768,-0.0131336031481624
5,1.02222228662528,-0.14722222356986,0.0819444448505077,-0.0027488935738802,0.00580321997404099,-0.00946841109544039
5,1.02500007039179,-0.148611115453114,0.0777777813567098,0.0100792767480016,0.0128281703218818,-0.0180205255746841
5,1.01805561097552,-0.140277788465518,0.0736111117849297,0.000610865245107561,0.011606439948082,-0.0177150927484035
5,1.01666671909226,-0.143055560076062,0.0708333340964038,0.00549778714776039,0.00855211354792118,-0.0103847095742822
5,1.01527782720901,-0.144444451959316,0.0819444448505077,0.00183259579353034,0.00305432616733015,-0.00855211354792118
5,1.01805561097552,-0.148611115453114,0.0805555590452358,0.00641408516094089,-0.000916297896765172,0.0045814891345799
5,1.01944450285877,-0.14722222356986,0.0819444448505077,0.00763581553474069,-0.000610865245107561,-0.00610865233466029
5,1.01805561097552,-0.14722222356986,0.0750000036681839,-0.000916297896765172,-0.00702495034784079,0.00671951752156019
5,1.02222228662528,-0.141666668192807,0.0847222225390337,0.00183259579353034,-0.00549778714776039,0.00244346098043024
5,1.01944450285877,-0.144444451959316,0.0847222225390337,-0.0131336031481624,-0.00946841109544039,0.0122173046693206
5,1.01527782720901,-0.148611115453114,0.0833333367337618,0.00183259579353034,-0.00671951752156019,0.00671951752156019
5,1.02222228662528,-0.151388899219622,0.0763888894734557,0.000305432622553781,-0.00733038317412138,0.00366519158706069
5,1.01805561097552,-0.150000007336368,0.0791666671619817,0.00244346098043024,-0.0106901414692402,0.011606439948082
5,1.01944450285877,-0.14722222356986,0.0819444448505077,0.0033597587607801,-0.0189368221908808,0.0027488935738802
5,1.02083339474202,-0.138888896582264,0.0819444448505077,0.00244346098043024,-0.015577063895762,0.00794124789535999
5,1.0125000434425,-0.13750000469901,0.0944444474878658,0.000610865245107561,-0.0103847095742822,0.00305432616733015
5,1.01388893532575,-0.13750000469901,0.0902777839940679,-0.00671951752156019,-0.00733038317412138,0.0021380283869803
5,1.01666671909226,-0.134722233088466,0.0819444448505077,-0.0134390350431204,-0.0152716310694814,0.0140499006956816
5,1.01944450285877,-0.131944449321958,0.0777777813567098,-0.0125227374956012,-0.00916297826915979,0.00610865233466029
5,1.02222228662528,-0.13750000469901,0.0819444448505077,-0.0207694191485643,-0.0045814891345799,0.00794124789535999
5,1.02222228662528,-0.143055560076062,0.0791666671619817,-0.0201585534960032,-0.00305432616733015,0.00946841109544039
5,1.02222228662528,-0.141666668192807,0.0722222259796579,-0.0268780700862408,-0.00183259579353034,-0.000610865245107561
5,1.01944450285877,-0.141666668192807,0.0750000036681839,-0.029626963660121,-0.000916297896765172,0.00152716308366507
5,1.02222228662528,-0.14722222356986,0.0833333367337618,-0.0192422550171614,0.000916297896765172,0.000916297896765172
5,1.02083339474202,-0.14583334384257,0.0819444448505077,-0.0259617734700441,-0.00641408516094089,0.00641408516094089
5,1.01944450285877,-0.148611115453114,0.0750000036681839,-0.0284052342176437,-0.000305432622553781,0.00977384392172098
5,1.01805561097552,-0.14722222356986,0.0777777813567098,-0.0299323964864016,-0.00122173049021512,0.00519235478714108
5,1.01666671909226,-0.152777778946911,0.0750000036681839,-0.0226020142436027,-0.00366519158706069,0.00885754637420177
5,1.02083339474202,-0.156944454596674,0.0791666671619817,-0.0125227374956012,-0.00794124789535999,0.00916297826915979
5,1.01666671909226,-0.154166670830166,0.0736111117849297,-0.00397062394768,-0.00488692196086049,-0.00610865233466029
5,1.02083339474202,-0.151388899219622,0.0652777787193518,-0.00794124789535999,0.00122173049021512,0.0027488935738802
5,1.02222228662528,-0.152777778946911,0.0722222259796579,0.0027488935738802,-0.0027488935738802,-0.0021380283869803
5,1.02083339474202,-0.150000007336368,0.0777777813567098,-0.00671951752156019,-0.0021380283869803,0.0027488935738802
5,1.01388893532575,-0.14722222356986,0.0847222225390337,-0.00549778714776039,-0.00427605677396059,0.00122173049021512
5,1.01388893532575,-0.144444451959316,0.0680555564078778,-0.0161879286170006,-0.00946841109544039,-0.000916297896765172
5,1.01944450285877,-0.150000007336368,0.0777777813567098,-0.00610865233466029,-0.00305432616733015,0.00183259579353034
5,1.01805561097552,-0.14722222356986,0.0819444448505077,-0.00702495034784079,0.0045814891345799,-0.00305432616733015
5,1.01944450285877,-0.156944454596674,0.0763888894734557,0.0033597587607801,-0.000305432622553781,-0.00305432616733015
5,1.01527782720901,-0.152777778946911,0.0652777787193518,0.00183259579353034,-0.00244346098043024,0.0045814891345799
5,1.01666671909226,-0.14583334384257,0.0680555564078778,-0.0033597587607801,-0.000610865245107561,0.00305432616733015
5,1.01944450285877,-0.151388899219622,0.0777777813567098,0.00366519158706069,0.00183259579353034,0.00305432616733015
5,1.01666671909226,-0.14722222356986,0.0847222225390337,0.00763581553474069,0.00183259579353034,0.0027488935738802
5,1.01944450285877,-0.144444451959316,0.0847222225390337,0.0109955742955208,-0.0033597587607801,-0.00183259579353034
5,1.01805561097552,-0.144444451959316,0.0930555616825939,0.0045814891345799,-0.0100792767480016,0.00122173049021512
5,1.01944450285877,-0.144444451959316,0.0861111144222878,0.00702495034784079,-0.00580321997404099,0.000610865245107561
5,1.02083339474202,-0.14583334384257,0.0680555564078778,0.00824668072164059,0.00427605677396059,-0.0027488935738802
5,1.01944450285877,-0.144444451959316,0.0694444482911319,-0.00702495034784079,0.00244346098043024,0.0027488935738802
5,1.02083339474202,-0.150000007336368,0.0694444482911319,-0.00122173049021512,0.0021380283869803,-0.00366519158706069
5,1.01944450285877,-0.14722222356986,0.0680555564078778,0.000305432622553781,0.00366519158706069,-0.00305432616733015
5,1.02222228662528,-0.150000007336368,0.0750000036681839,0.00702495034784079,0.00244346098043024,-0.0103847095742822
5,1.01944450285877,-0.148611115453114,0.0777777813567098,0.00244346098043024,0.000610865245107561,-0.00122173049021512
5,1.01944450285877,-0.14722222356986,0.0736111117849297,0.00488692196086049,0.00305432616733015,-0.00366519158706069
5,1.01805561097552,-0.14722222356986,0.0763888894734557,0.011606439948082,0.00488692196086049,-0.0021380283869803
5,1.01944450285877,-0.144444451959316,0.0763888894734557,0.00610865233466029,0.00519235478714108,-0.00763581553474069
5,1.02083339474202,-0.144444451959316,0.0722222259796579,0.00946841109544039,-0.000610865245107561,-0.0021380283869803
5,1.01527782720901,-0.144444451959316,0.0847222225390337,0.00916297826915979,0.00916297826915979,-0.000916297896765172
5,1.01527782720901,-0.144444451959316,0.0833333367337618,0.00671951752156019,-0.00152716308366507,-0.000305432622553781
5,1.0125000434425,-0.144444451959316,0.0777777813567098,0.00733038317412138,0.00671951752156019,-0.000610865245107561
5,1.01944450285877,-0.144444451959316,0.0847222225390337,0.00641408516094089,0.00397062394768,0.00397062394768
5,1.01666671909226,-0.144444451959316,0.0819444448505077,0.0100792767480016,0.00183259579353034,0.00122173049021512
5,1.01805561097552,-0.152777778946911,0.0861111144222878,0.0103847095742822,0.0045814891345799,0.000916297896765172
5,1.01944450285877,-0.14722222356986,0.0847222225390337,0.00183259579353034,0.00488692196086049,-0.00549778714776039
5,1.02222228662528,-0.143055560076062,0.0736111117849297,0.00916297826915979,0.00580321997404099,-0.0033597587607801
5,1.01805561097552,-0.14583334384257,0.0777777813567098,0.00763581553474069,0.0021380283869803,-0.00763581553474069
5,1.01944450285877,-0.143055560076062,0.0722222259796579,0.0113010071218014,0.00610865233466029,-0.00488692196086049
5,1.02361117850853,-0.14583334384257,0.0819444448505077,-0.0045814891345799,0.00397062394768,-0.00152716308366507
5,1.01666671909226,-0.151388899219622,0.0777777813567098,0.000305432622553781,0.0027488935738802,0.00183259579353034
5,1.01666671909226,-0.151388899219622,0.0777777813567098,0.00610865233466029,-0.0033597587607801,-0.00580321997404099
5,1.02083339474202,-0.150000007336368,0.0777777813567098,0.0171042270958424,0.00885754637420177,-0.0161879286170006
5,1.02222228662528,-0.14722222356986,0.0763888894734557,0.0113010071218014,0.00885754637420177,-0.0103847095742822
5,1.02222228662528,-0.14722222356986,0.0763888894734557,0.00702495034784079,0.00855211354792118,-0.0180205255746841
5,1.01944450285877,-0.143055560076062,0.0722222259796579,0.01588249579072,0.000916297896765172,-0.00763581553474069
5,1.01666671909226,-0.140277788465518,0.0791666671619817,0.011606439948082,0.00763581553474069,-0.00152716308366507
5,1.01666671909226,-0.140277788465518,0.0791666671619817,0.00855211354792118,0.00183259579353034,0.00885754637420177
5,1.01666671909226,-0.141666668192807,0.0750000036681839,0.00763581553474069,-0.0045814891345799,0.000916297896765172
5,1.01944450285877,-0.14722222356986,0.0750000036681839,0.00946841109544039,-0.0021380283869803,-0.00427605677396059
5,1.01805561097552,-0.143055560076062,0.0736111117849297,0.017409659922123,0.00397062394768,0.00397062394768
5,1.01805561097552,-0.143055560076062,0.0736111117849297,0.0146607663482428,0.00580321997404099,0.000916297896765172
5,1.02083339474202,-0.141666668192807,0.0916666697993398,0.00794124789535999,0.00610865233466029,-0.00733038317412138
5,1.01944450285877,-0.144444451959316,0.0847222225390337,0.00427605677396059,0.00580321997404099,-0.00549778714776039
5,1.01944450285877,-0.144444451959316,0.0847222225390337,0.0033597587607801,0.00366519158706069,0.0027488935738802
5,1.02222228662528,-0.136111112815755,0.0750000036681839,0.00580321997404099,0.00488692196086049,0.0027488935738802
5,1.01944450285877,-0.140277788465518,0.0763888894734557,0.0021380283869803,0.00610865233466029,0.00122173049021512
5,1.01527782720901,-0.140277788465518,0.0847222225390337,0.00610865233466029,0.00794124789535999,-0.00152716308366507
5,1.01944450285877,-0.144444451959316,0.0847222225390337,0.00397062394768,0.00794124789535999,-0.00427605677396059
5,1.01805561097552,-0.140277788465518,0.0750000036681839,0.0106901414692402,0.000916297896765172,-0.00244346098043024
5,1.01805561097552,-0.140277788465518,0.0736111117849297,0.0045814891345799,0.00763581553474069,-0.00244346098043024
5,1.01944450285877,-0.138888896582264,0.0736111117849297,0.00366519158706069,0.00671951752156019,-0.00122173049021512
5,1.02222228662528,-0.140277788465518,0.0777777813567098,-0.0045814891345799,0.0045814891345799,-0.00397062394768
5,1.02083339474202,-0.144444451959316,0.0680555564078778,-0.00244346098043024,0.00733038317412138,-0.0045814891345799
5,1.02222228662528,-0.14583334384257,0.0680555564078778,0.0033597587607801,0.00580321997404099,-0.00794124789535999
5,1.02500007039179,-0.141666668192807,0.0847222225390337,0.00244346098043024,0.0106901414692402,-0.00794124789535999
5,1.01944450285877,-0.143055560076062,0.0777777813567098,-0.00152716308366507,0.00733038317412138,-0.00427605677396059
5,1.01805561097552,-0.144444451959316,0.0777777813567098,0.00122173049021512,0.00519235478714108,-0.00733038317412138
5,1.01944450285877,-0.14722222356986,0.0819444448505077,-0.00244346098043024,0.00946841109544039,-0.00549778714776039
5,1.01944450285877,-0.14722222356986,0.0791666671619817,0.00519235478714108,0.011606439948082,-0.00366519158706069
5,1.01527782720901,-0.14583334384257,0.0680555564078778,0.00183259579353034,0.00244346098043024,-0.00305432616733015
5,1.01944450285877,-0.150000007336368,0.0680555564078778,0.00824668072164059,0.00152716308366507,-0.00641408516094089
5,1.01527782720901,-0.148611115453114,0.0777777813567098,0.0125227374956012,0.00152716308366507,0.0021380283869803
5,1.01944450285877,-0.141666668192807,0.0722222259796579,0.0100792767480016,0.00244346098043024,-0.00397062394768
5,1.02222228662528,-0.14722222356986,0.0819444448505077,0.0161879286170006,0.000305432622553781,0.00549778714776039
5,1.01944450285877,-0.14722222356986,0.0847222225390337,0.0125227374956012,0.0033597587607801,0.00397062394768
5,1.01805561097552,-0.144444451959316,0.0875000002275597,0.00427605677396059,-0.000305432622553781,0.00549778714776039
5,1.02222228662528,-0.143055560076062,0.0722222259796579,0.00855211354792118,0.00427605677396059,-0.00366519158706069
5,1.02500007039179,-0.144444451959316,0.0680555564078778,0.0103847095742822,0.0106901414692402,0.00397062394768
5,1.02222228662528,-0.14722222356986,0.0777777813567098,0.00580321997404099,0.00671951752156019,-0.00183259579353034
5,1.01666671909226,-0.144444451959316,0.0722222259796579,0.0100792767480016,0.0100792767480016,-0.00305432616733015
5,1.01527782720901,-0.141666668192807,0.0722222259796579,0.0131336031481624,0.0027488935738802,-0.0045814891345799
5,1.01666671909226,-0.14583334384257,0.0763888894734557,0.0106901414692402,0.00305432616733015,-0.0027488935738802
5,1.02222228662528,-0.143055560076062,0.0722222259796579,0.0125227374956012,0.00488692196086049,-0.00366519158706069
5,1.02222228662528,-0.150000007336368,0.0722222259796579,0.0109955742955208,0.00427605677396059,-0.00824668072164059
5,1.01388893532575,-0.140277788465518,0.0819444448505077,0.0149661982432008,0.000916297896765172,-0.00580321997404099
5,1.01944450285877,-0.144444451959316,0.0777777813567098,0.02382374368608,-0.000916297896765172,0.000610865245107561
5,1.02083339474202,-0.14583334384257,0.0791666671619817,0.0204639863222837,-0.000610865245107561,-0.0021380283869803
5,1.01527782720901,-0.140277788465518,0.0944444474878658,0.0128281703218818,0.00244346098043024,-0.00397062394768
5,1.01944450285877,-0.138888896582264,0.0847222225390337,0.0100792767480016,0.00122173049021512,0.000305432622553781
5,1.01666671909226,-0.140277788465518,0.0833333367337618,0.00733038317412138,0.00366519158706069,-0.00152716308366507
5,1.01805561097552,-0.143055560076062,0.0875000002275597,0.00488692196086049,0.0033597587607801,-0.00702495034784079
5,1.01666671909226,-0.141666668192807,0.0875000002275597,0.01191187184304,0.0103847095742822,0.00183259579353034
5,1.01666671909226,-0.141666668192807,0.0805555590452358,0.0045814891345799,-0.00916297826915979,-0.000610865245107561
5,1.01805561097552,-0.140277788465518,0.0777777813567098,0.00305432616733015,-0.00122173049021512,-0.00549778714776039
5,1.01666671909226,-0.140277788465518,0.0875000002275597,0.00366519158706069,0.00519235478714108,-0.00152716308366507
5,1.01527782720901,-0.13750000469901,0.0805555590452358,-0.00427605677396059,0.00641408516094089,-0.0106901414692402
5,1.01527782720901,-0.13750000469901,0.0819444448505077,-0.0021380283869803,0.00794124789535999,-0.000916297896765172
5,1.01805561097552,-0.143055560076062,0.0902777839940679,0.0045814891345799,0.00549778714776039,-0.00824668072164059
5,1.01666671909226,-0.14583334384257,0.0750000036681839,0.00488692196086049,-0.00152716308366507,0.00519235478714108
5,1.01527782720901,-0.14583334384257,0.0763888894734557,0.00244346098043024,0.00427605677396059,0.000610865245107561
5,1.01805561097552,-0.14583334384257,0.0819444448505077,0.0131336031481624,-0.00305432616733015,-0.00610865233466029
5,1.02083339474202,-0.140277788465518,0.0750000036681839,0.00916297826915979,-0.00183259579353034,-0.00305432616733015
5,1.01527782720901,-0.141666668192807,0.0652777787193518,0.00244346098043024,0.00122173049021512,-0.0033597587607801
5,1.01805561097552,-0.144444451959316,0.0736111117849297,0.00183259579353034,-0.00580321997404099,-0.000305432622553781
5,1.02222228662528,-0.14722222356986,0.0833333367337618,0.00122173049021512,0.00152716308366507,-0.00305432616733015
5,1.01666671909226,-0.148611115453114,0.0833333367337618,0.0045814891345799,-0.00244346098043024,-0.00152716308366507
5,1.01805561097552,-0.144444451959316,0.0736111117849297,0.00824668072164059,-0.000916297896765172,-0.01191187184304
5,1.01805561097552,-0.14583334384257,0.0805555590452358,0.0125227374956012,-0.00519235478714108,-0.00885754637420177
5,1.01805561097552,-0.134722233088466,0.0847222225390337,0.0128281703218818,0.00702495034784079,-0.00580321997404099
5,1.02083339474202,-0.133333341205212,0.0805555590452358,0.00580321997404099,-0.000610865245107561,-0.000916297896765172
5,1.02222228662528,-0.144444451959316,0.0875000002275597,0.000610865245107561,0.00702495034784079,0.00549778714776039
5,1.01527782720901,-0.141666668192807,0.0763888894734557,-0.00122173049021512,0.00305432616733015,0.000916297896765172
5,1.01666671909226,-0.140277788465518,0.0819444448505077,0.00855211354792118,-0.00488692196086049,-0.00397062394768
5,1.01527782720901,-0.140277788465518,0.0847222225390337,0.0100792767480016,0.0045814891345799,-0.000916297896765172
5,1.01666671909226,-0.14583334384257,0.0777777813567098,0.0122173046693206,-0.00366519158706069,0.00366519158706069
5,1.02083339474202,-0.14583334384257,0.0722222259796579,0.00824668072164059,-0.00122173049021512,-0.00794124789535999
5,1.02500007039179,-0.13750000469901,0.0736111117849297,0.00733038317412138,0.0027488935738802,-0.00610865233466029
5,1.01944450285877,-0.13750000469901,0.0805555590452358,0.00427605677396059,-0.0021380283869803,-0.00733038317412138
5,1.02083339474202,-0.13750000469901,0.0722222259796579,-0.000916297896765172,0.0027488935738802,0.000610865245107561
5,1.01388893532575,-0.138888896582264,0.0777777813567098,0.00427605677396059,0.00519235478714108,-0.0027488935738802
5,1.01944450285877,-0.143055560076062,0.0805555590452358,-0.0021380283869803,-0.00305432616733015,0.00305432616733015
5,1.01944450285877,-0.140277788465518,0.0722222259796579,0.000305432622553781,-0.000610865245107561,0.000916297896765172
5,1.01805561097552,-0.14722222356986,0.0791666671619817,0.00152716308366507,-0.00549778714776039,0.00671951752156019
5,1.01666671909226,-0.150000007336368,0.0736111117849297,0.00977384392172098,-0.00122173049021512,-0.0033597587607801
5,1.02083339474202,-0.14722222356986,0.0750000036681839,0.013744467869401,-0.00305432616733015,-0.00244346098043024
5,1.01805561097552,-0.144444451959316,0.0680555564078778,0.0125227374956012,-0.0021380283869803,0.00122173049021512
5,1.01944450285877,-0.140277788465518,0.0722222259796579,0.0152716310694814,0.00152716308366507,-0.00122173049021512
5,1.01944450285877,-0.133333341205212,0.0722222259796579,0.0143553335219622,-0.00122173049021512,0.0021380283869803
5,1.01944450285877,-0.138888896582264,0.0833333367337618,0.00610865233466029,-0.0128281703218818,0.00977384392172098
5,1.01666671909226,-0.13750000469901,0.0819444448505077,0.00916297826915979,-0.00366519158706069,-0.00397062394768
5,1.01944450285877,-0.144444451959316,0.0819444448505077,0.00794124789535999,-0.00183259579353034,-0.00122173049021512
5,1.01944450285877,-0.144444451959316,0.0819444448505077,0.00977384392172098,-0.00305432616733015,-0.00916297826915979
5,1.01527782720901,-0.144444451959316,0.0847222225390337,0.00152716308366507,0.00122173049021512,-0.00122173049021512
5,1.01388893532575,-0.140277788465518,0.0875000002275597,0.00122173049021512,0.00794124789535999,0.0045814891345799
5,1.01388893532575,-0.140277788465518,0.0875000002275597,-0.000610865245107561,0.00763581553474069,-0.000610865245107561
5,1.02083339474202,-0.150000007336368,0.0791666671619817,-0.00977384392172098,0.00152716308366507,-0.00366519158706069
5,1.01944450285877,-0.148611115453114,0.0736111117849297,0.00610865233466029,0.0033597587607801,-0.0021380283869803
5,1.01944450285877,-0.148611115453114,0.0736111117849297,0.01191187184304,0.00244346098043024,-0.00366519158706069
5,1.01527782720901,-0.14722222356986,0.0819444448505077,0.0167987942695618,-0.00794124789535999,-0.00641408516094089
5,1.01527782720901,-0.140277788465518,0.0763888894734557,0.0149661982432008,0.0045814891345799,0.00610865233466029
5,1.01527782720901,-0.140277788465518,0.0763888894734557,0.00244346098043024,0.000916297896765172,0.00610865233466029
5,1.01666671909226,-0.140277788465518,0.0763888894734557,0.0021380283869803,-0.00580321997404099,0.00488692196086049
5,1.01944450285877,-0.144444451959316,0.0805555590452358,0.00427605677396059,0.00641408516094089,-0.0027488935738802
5,1.01805561097552,-0.14583334384257,0.0819444448505077,0.00305432616733015,0.00763581553474069,-0.00733038317412138
5,1.01527782720901,-0.140277788465518,0.0861111144222878,0.00671951752156019,0.00305432616733015,-0.00977384392172098
5,1.01944450285877,-0.144444451959316,0.0791666671619817,0.00488692196086049,0.00427605677396059,-0.00183259579353034
5,1.01944450285877,-0.140277788465518,0.0777777813567098,0.000916297896765172,0.00152716308366507,-0.000610865245107561
5,1.01944450285877,-0.141666668192807,0.0763888894734557,-0.00366519158706069,0.000610865245107561,0.00702495034784079
5,1.02222228662528,-0.144444451959316,0.0777777813567098,0.000305432622553781,0.000305432622553781,-0.00641408516094089
5,1.02222228662528,-0.150000007336368,0.0750000036681839,0.00397062394768,0.0045814891345799,0.0033597587607801
5,1.01527782720901,-0.152777778946911,0.0833333367337618,0.015577063895762,-0.00488692196086049,-0.00549778714776039
5,1.01527782720901,-0.151388899219622,0.0888888921108138,0.0186313893646002,0.00122173049021512,-0.00397062394768
5,1.01666671909226,-0.130555557438704,0.0777777813567098,0.0161879286170006,-0.00397062394768,-0.00183259579353034
5,1.01944450285877,-0.13750000469901,0.0763888894734557,0.0109955742955208,0.00305432616733015,0.000916297896765172
5,1.02083339474202,-0.140277788465518,0.0680555564078778,0.00855211354792118,0.0021380283869803,-0.00855211354792118
5,1.02083339474202,-0.140277788465518,0.0777777813567098,0.000916297896765172,-0.0027488935738802,-0.000610865245107561
5,1.01527782720901,-0.138888896582264,0.0819444448505077,0.00244346098043024,0.00183259579353034,-0.0131336031481624
5,1.01527782720901,-0.136111112815755,0.0777777813567098,-0.000916297896765172,0.000305432622553781,-0.00366519158706069
5,1.01944450285877,-0.136111112815755,0.0819444448505077,0.000916297896765172,0.0100792767480016,-0.0122173046693206
5,1.01944450285877,-0.138888896582264,0.0875000002275597,0.00366519158706069,0.000305432622553781,0.00763581553474069
5,1.01944450285877,-0.141666668192807,0.0791666671619817,-0.00427605677396059,0.0021380283869803,-0.00244346098043024
5,1.02083339474202,-0.14722222356986,0.0708333340964038,0.00244346098043024,0.00305432616733015,-0.00610865233466029
5,1.02361117850853,-0.14722222356986,0.0777777813567098,0.0122173046693206,-0.000305432622553781,0.000610865245107561
5,1.01805561097552,-0.14722222356986,0.0750000036681839,0.0113010071218014,0.00397062394768,-0.00580321997404099
5,1.01666671909226,-0.141666668192807,0.0694444482911319,0.01588249579072,0.00244346098043024,-0.0033597587607801
5,1.01805561097552,-0.144444451959316,0.0736111117849297,0.01588249579072,-0.0021380283869803,-0.00397062394768
5,1.01666671909226,-0.144444451959316,0.0791666671619817,0.0146607663482428,-0.00427605677396059,-0.00885754637420177
5,1.02083339474202,-0.141666668192807,0.0722222259796579,0.00794124789535999,0.00610865233466029,-0.0109955742955208
5,1.01944450285877,-0.13750000469901,0.0750000036681839,0.0103847095742822,0.00702495034784079,-0.00580321997404099
5,1.01527782720901,-0.143055560076062,0.0722222259796579,0.011606439948082,0.000305432622553781,-0.0045814891345799
5,1.01527782720901,-0.140277788465518,0.0847222225390337,0.00397062394768,-0.00305432616733015,-0.000610865245107561
5,1.01944450285877,-0.138888896582264,0.0763888894734557,0.0045814891345799,0.0021380283869803,-0.00244346098043024
5,1.01944450285877,-0.144444451959316,0.0736111117849297,-0.000610865245107561,0.00733038317412138,-0.00855211354792118
5,1.01527782720901,-0.144444451959316,0.0777777813567098,-0.00183259579353034,0.00519235478714108,0.000305432622553781
5,1.0125000434425,-0.14583334384257,0.0777777813567098,0.00122173049021512,0.00580321997404099,-0.000916297896765172
5,1.01805561097552,-0.144444451959316,0.0805555590452358,0.00397062394768,-0.00152716308366507,-0.00733038317412138
5,1.01805561097552,-0.140277788465518,0.0791666671619817,-0.000610865245107561,-0.000916297896765172,-0.0027488935738802
5,1.01805561097552,-0.134722233088466,0.0722222259796579,-0.000305432622553781,0.00397062394768,-0.00183259579353034
5,1.01944450285877,-0.141666668192807,0.0805555590452358,-0.0109955742955208,0.0027488935738802,0.00397062394768
5,1.01944450285877,-0.13750000469901,0.0763888894734557,-0.0106901414692402,0.00580321997404099,-0.00152716308366507
5,1.01944450285877,-0.140277788465518,0.0722222259796579,-0.0164933614432812,0.00946841109544039,-0.000610865245107561
5,1.01805561097552,-0.13750000469901,0.0875000002275597,-0.0122173046693206,-0.0027488935738802,-0.00580321997404099
5,1.01666671909226,-0.140277788465518,0.0875000002275597,-0.0143553335219622,-0.00519235478714108,-0.00122173049021512
5,1.01805561097552,-0.138888896582264,0.0819444448505077,-0.0100792767480016,0.00244346098043024,0.00610865233466029
5,1.01944450285877,-0.13750000469901,0.0777777813567098,-0.00885754637420177,0.00244346098043024,0.00946841109544039
5,1.02083339474202,-0.141666668192807,0.0847222225390337,-0.0033597587607801,0.000305432622553781,-0.00244346098043024
5,1.01805561097552,-0.140277788465518,0.0763888894734557,-0.00366519158706069,0.00122173049021512,0.00763581553474069
5,1.01805561097552,-0.144444451959316,0.0833333367337618,-0.0021380283869803,0.00366519158706069,-0.00733038317412138
5,1.01388893532575,-0.140277788465518,0.0791666671619817,-0.00794124789535999,0.0100792767480016,-0.00641408516094089
5,1.01805561097552,-0.134722233088466,0.0736111117849297,0.0027488935738802,-0.00183259579353034,0.00366519158706069
5,1.01944450285877,-0.140277788465518,0.0819444448505077,-0.00427605677396059,0.00183259579353034,-0.00152716308366507
5,1.01944450285877,-0.143055560076062,0.0777777813567098,-0.0021380283869803,0.00152716308366507,0.000916297896765172
5,1.01805561097552,-0.144444451959316,0.0763888894734557,-0.00366519158706069,0.00733038317412138,0.011606439948082
5,1.01666671909226,-0.14722222356986,0.0777777813567098,0.0027488935738802,0.00152716308366507,-0.0021380283869803
5,1.01944450285877,-0.154166670830166,0.0819444448505077,0.00397062394768,-0.000916297896765172,-0.00824668072164059
5,1.01944450285877,-0.14722222356986,0.0777777813567098,0.00519235478714108,0.00305432616733015,0.00122173049021512
5,1.01666671909226,-0.134722233088466,0.0652777787193518,0.0021380283869803,-0.000916297896765172,-0.00244346098043024
5,1.01527782720901,-0.13750000469901,0.0805555590452358,-0.00916297826915979,-0.00671951752156019,0.00916297826915979
5,1.01388893532575,-0.134722233088466,0.0833333367337618,-0.00519235478714108,-0.00152716308366507,0.0045814891345799
5,1.01805561097552,-0.13750000469901,0.0875000002275597,-0.0045814891345799,-0.00305432616733015,0.00305432616733015
5,1.02083339474202,-0.144444451959316,0.0791666671619817,-0.0103847095742822,0.0021380283869803,-0.00244346098043024
5,1.01944450285877,-0.140277788465518,0.0861111144222878,-0.00549778714776039,0.0045814891345799,0.000610865245107561
5,1.01527782720901,-0.140277788465518,0.0763888894734557,-0.00183259579353034,0.00244346098043024,-0.00305432616733015
5,1.01666671909226,-0.144444451959316,0.0819444448505077,0.000610865245107561,-0.0033597587607801,0.00366519158706069
5,1.01805561097552,-0.14583334384257,0.0944444474878658,0.0033597587607801,-0.0021380283869803,0.0021380283869803
5,1.02083339474202,-0.143055560076062,0.0819444448505077,0.00519235478714108,-0.00397062394768,-0.0027488935738802
5,1.01527782720901,-0.143055560076062,0.0777777813567098,0.000916297896765172,-0.00122173049021512,0.0027488935738802
5,1.01944450285877,-0.140277788465518,0.0750000036681839,0.00488692196086049,-0.00122173049021512,0.0106901414692402
5,1.01527782720901,-0.13750000469901,0.0750000036681839,0.00244346098043024,-0.00549778714776039,0.0027488935738802
5,1.01944450285877,-0.144444451959316,0.0722222259796579,0.00610865233466029,-0.00855211354792118,0.0140499006956816
5,1.01666671909226,-0.143055560076062,0.0819444448505077,0.00183259579353034,-0.00916297826915979,0.0021380283869803
5,1.02500007039179,-0.141666668192807,0.0875000002275597,-0.00397062394768,-0.00733038317412138,0.00580321997404099
5,1.01944450285877,-0.144444451959316,0.0958333393711199,0.00244346098043024,-0.00122173049021512,0.0027488935738802
5,1.01805561097552,-0.143055560076062,0.0861111144222878,0.00305432616733015,-0.0033597587607801,0.00733038317412138
5,1.02083339474202,-0.140277788465518,0.0722222259796579,0.00733038317412138,-0.00397062394768,0.00977384392172098
5,1.02222228662528,-0.140277788465518,0.0777777813567098,0.00519235478714108,-0.00152716308366507,0.00122173049021512
5,1.02083339474202,-0.141666668192807,0.0722222259796579,0.00580321997404099,-0.00549778714776039,0.00305432616733015
5,1.01944450285877,-0.143055560076062,0.0722222259796579,0.0033597587607801,-0.0045814891345799,-0.00549778714776039
5,1.01805561097552,-0.143055560076062,0.0763888894734557,0.00549778714776039,0.00152716308366507,-0.000305432622553781
5,1.01805561097552,-0.141666668192807,0.0791666671619817,0.00885754637420177,-0.00702495034784079,-0.000610865245107561
5,1.02083339474202,-0.14583334384257,0.0736111117849297,0.00641408516094089,-0.00305432616733015,0.000610865245107561
5,1.02222228662528,-0.151388899219622,0.0694444482911319,0.0033597587607801,-0.00244346098043024,0.00152716308366507
5,1.01527782720901,-0.140277788465518,0.0763888894734557,0.00305432616733015,-0.00610865233466029,0.00244346098043024
5,1.01944450285877,-0.141666668192807,0.0777777813567098,0.0045814891345799,-0.0027488935738802,0.00183259579353034
5,1.02222228662528,-0.13750000469901,0.0722222259796579,0.00549778714776039,-0.00122173049021512,0.000916297896765172
5,1.01805561097552,-0.140277788465518,0.0819444448505077,0.0140499006956816,-0.000305432622553781,0.0033597587607801
5,1.01805561097552,-0.140277788465518,0.0819444448505077,0.0045814891345799,-0.00824668072164059,-0.000916297896765172
5,1.02083339474202,-0.13750000469901,0.0736111117849297,0.0021380283869803,-0.0027488935738802,0.00366519158706069
5,1.02222228662528,-0.140277788465518,0.0750000036681839,-0.00183259579353034,-0.00366519158706069,0.00580321997404099
5,1.02222228662528,-0.140277788465518,0.0750000036681839,0.00183259579353034,-0.000610865245107561,-0.0109955742955208
5,1.01944450285877,-0.14722222356986,0.0736111117849297,0.0143553335219622,-0.00427605677396059,0.00152716308366507
5,1.01805561097552,-0.144444451959316,0.0763888894734557,0.00702495034784079,-0.00855211354792118,-0.00122173049021512
5,1.01805561097552,-0.144444451959316,0.0763888894734557,0.0189368221908808,-0.00183259579353034,0.0021380283869803
5,1.01805561097552,-0.14722222356986,0.0777777813567098,0.00977384392172098,0.00305432616733015,-0.00244346098043024
5,1.01944450285877,-0.144444451959316,0.0819444448505077,0.00946841109544039,-0.0045814891345799,-0.0027488935738802
5,1.01944450285877,-0.144444451959316,0.0819444448505077,0.00977384392172098,-0.00794124789535999,0.00305432616733015
5,1.01805561097552,-0.14722222356986,0.0777777813567098,0.00763581553474069,0.0027488935738802,0.0033597587607801
