Activity,acc_x,acc_y,acc_z,gyro_x,gyro_y,gyro_z
0,0.413888905980283,-0.0152777788063885,0.922222265526414,-0.078801617026329,-0.135917514562607,-0.0424551330506802
0,0.413888905980283,-0.0194444453391775,0.933333400592447,-0.0372627787292004,-0.0360410511493683,-0.0369573459029198
0,0.404166687109433,-0.0208333341834404,0.926388941176177,-0.0351247526705265,0.021685715764761,-0.0384845100343227
0,0.406944470875941,-0.0250000007162294,0.923611157409668,-0.0363464802503586,0.00397062394768,-0.0406225398182869
0,0.406944470875941,-0.0236111118719664,0.906944454810619,-0.01191187184304,0.106290549039841,-0.0113010071218014
0,0.394444468238583,-0.0125000003581147,0.904166671044111,-0.00122173049021512,0.0360410511493683,0.0244346093386412
0,0.397222227693163,-0.0250000007162294,0.890277849459286,-0.117286130785942,-0.240986332297325,0.126449108123779
0,0.397222227693163,-0.0250000007162294,0.890277849459286,-0.117286130785942,-0.240986332297325,0.126449108123779
0,0.437500019371745,-0.027777779924251,0.902777779160856,-0.22754730284214,-0.296880513429642,0.195476874709129
0,0.433333343721983,-0.0250000007162294,0.913888914226889,-0.233961388468742,-0.33841934800148,0.17440202832222
0,0.4194444735133,-0.030555557612777,0.915277806110144,-0.198836639523506,-0.200974673032761,0.108428582549095
0,0.411111122213775,-0.0486111125881959,0.923611157409668,-0.163101017475128,-0.0366519130766392,0.0568104684352875
0,0.420833365396554,-0.0666666706026059,0.92083337364316,-0.109955742955208,-0.0482583530247212,0.0369573459029198
0,0.443055586904762,-0.0708333340964038,0.908333346693873,-0.0531452745199203,-0.160046696662903,0.0815505087375641
0,0.441666695021508,-0.055555559848502,0.92083337364316,0.0335975885391235,-0.230601623654366,0.0320704244077206
0,0.423611149163062,-0.0402777795226179,0.92083337364316,-0.0500909499824047,-0.298102229833603,-0.0244346093386412
0,0.420833365396554,-0.0361111129898289,0.92083337364316,-0.125532805919647,-0.224492982029915,-0.0626136884093285
0,0.46527780841297,-0.0611111152255539,0.911111130460381,-0.0555887371301651,0.0461203269660473,-0.0247400421649218
0,0.46527780841297,-0.0611111152255539,0.911111130460381,-0.00855211354792118,0.104763388633728,0.0207694191485643
0,0.452777781463682,-0.0680555564078778,0.890277849459286,-0.02382374368608,0.0699440687894821,0.0522289797663689
0,0.452777781463682,-0.0680555564078778,0.890277849459286,-0.00733038317412138,0.015577063895762,0.00519235478714108
0,0.430555559955475,-0.0500000014324589,0.904166671044111,0.00733038317412138,0.011606439948082,0.0045814891345799
0,0.441666695021508,-0.0513888902767219,0.901388887277602,-0.00916297826915979,0.00977384392172098,0.0180205255746841
0,0.449999997697174,-0.055555559848502,0.893055633225794,-0.00427605677396059,-0.0397062413394451,0.0033597587607801
0,0.434722235605237,-0.0513888902767219,0.877777822509998,-0.0277943685650826,-0.142637029290199,0.100181899964809
0,0.434722235605237,-0.0513888902767219,0.877777822509998,-0.0461203269660473,-0.132863193750381,0.131641462445259
0,0.452777781463682,-0.0416666683668809,0.894444525109048,0.03176499158144,0.162795588374138,0.0839939713478088
0,0.452777781463682,-0.0416666683668809,0.894444525109048,0.126449108123779,0.171042263507843,0.081855945289135
0,0.444444478788016,-0.0541666679652478,0.890277849459286,0.0305432621389627,-0.127976268529892,0.107512280344963
0,0.420833365396554,-0.0361111129898289,0.886111173809523,-0.0742201283574104,-0.445320755243301,0.0974330082535744
0,0.4194444735133,-0.0680555564078778,0.901388887277602,-0.0833831056952477,-0.541226625442505,0.0290160998702049
0,0.422222257279808,-0.0736111117849297,0.909722238577127,-0.00122173049021512,-0.22785273194313,-0.03176499158144
0,0.476388894855144,-0.0722222259796579,0.904166671044111,0.154854342341423,0.22693644464016,0.0516181141138077
0,0.476388894855144,-0.0722222259796579,0.904166671044111,0.236099421977997,0.344833433628082,0.108428582549095
0,0.456944457113445,-0.0652777787193518,0.909722238577127,0.273056775331497,0.0870482996106148,0.327118337154388
0,0.44861110581392,-0.0583333375370279,0.902777779160856,0.0708603709936142,-0.185703039169311,0.161268427968025
0,0.455555565230191,-0.0652777787193518,0.902777779160856,-0.0571159012615681,-0.161879286170006,0.05283984541893
0,0.455555565230191,-0.0652777787193518,0.902777779160856,-0.0638354197144508,-0.0815505087375641,-0.00519235478714108
0,0.481944462388161,-0.0986111170596459,0.884722281926269,0.209221348166466,0.473115146160126,0.00427605677396059
0,0.477777786738398,-0.12777778582816,0.87500003874349,0.526260435581207,0.59650993347168,0.145080491900444
0,0.444444478788016,-0.12916666555545,0.911111130460381,0.957225859165192,0.602313160896301,0.243735238909721
0,0.477777786738398,-0.12777778582816,0.979166735492117,1.27701377868652,0.178372651338577,0.351552963256836
0,0.408333338447267,-0.0805555590452358,0.965277816659576,1.17530477046967,0.900109946727753,0.468228220939636
0,0.393055576355329,0.0152777788063885,0.93750007624221,0.969748556613922,1.7779233455658,0.297491371631622
0,0.354166676560001,0.0513888902767219,0.883333390043015,0.804204106330872,2.00699782371521,0.0381790772080422
0,0.156944454596674,0.108333335930496,0.881944498159761,0.699440717697144,3.05157732963562,0.411417752504349
0,0.220833347510754,-0.030555557612777,1.05972227022542,1.22753369808197,1.55220854282379,0.495411723852158
0,0.462500024646461,0.0416666683668809,0.701388893703731,0.442877292633057,-0.483499854803085,0.57604593038559
0,0.476388894855144,0.052777782159976,0.834722271376837,-0.246789559721947,0.45998153090477,0.64996063709259
0,0.281944444502361,0.0972222251763917,1.01944450285877,-0.0464257597923279,1.38024997711182,0.791681349277496
0,0.101388894748172,0.202777789496344,0.888888957576031,-0.580321967601776,2.78401827812195,1.07176303863525
0,0.03194444645704,0.156944454596674,0.873611146860236,-1.70675754547119,4.29010677337646,1.69912171363831
0,-0.0361111129898289,0.197222234119292,0.873611146860236,-2.18078899383545,3.90984296798706,1.74066054821014
0,0.0805555590452358,0.0708333340964038,0.993055557076942,-1.93735909461975,2.15238380432129,1.4022411108017
0,0.0819444448505077,-0.0250000007162294,1.05000002704265,-0.397978693246841,-0.500298619270325,1.16033852100372
0,0.027777779924251,-0.159722226207217,0.916666697993398,-0.818253993988037,0.240375474095344,1.56198239326477
0,0.14583334384257,-0.14722222356986,0.872222254976982,-1.67407619953155,1.64933621883392,1.18721663951874
0,0.0569444456537738,-0.265277790527169,1.1083333888916,-0.462424993515015,2.76233267784119,0.311235845088959
0,-0.0444444460554069,-0.286111120152123,1.02083339474202,1.55037593841553,3.83745551109314,0.392786353826523
0,-0.2194444556275,-0.341666673922643,0.925000049292922,0.802371501922607,3.06012940406799,1.12735176086426
0,-0.400000011459671,-0.447222262554524,0.801388914802596,-1.15361905097961,1.58977675437927,1.87810516357422
0,-0.406944470875941,-0.361111135976272,0.82916670384382,-1.77212011814117,-0.122478485107422,2.11115026473999
0,-0.441666695021508,-0.162500009973726,0.89166674134254,-1.34115469455719,0.27458393573761,1.91628432273865
0,-0.359722244093018,-0.0513888902767219,1.05833337834217,-0.135917514562607,2.99385046958923,1.64719808101654
0,-0.331944455051793,-0.224999998848587,0.965277816659576,0.0604756586253643,3.88907361030579,2.03937363624573
0,-0.468055592179478,-0.316666668647927,0.766666714968959,-1.03205680847168,1.76265168190002,2.83991241455078
0,-0.534722256704101,-0.133333341205212,0.87500003874349,-1.53754782676697,0.996626675128937,2.97521924972534
0,-0.555555586329055,0.0458333348996699,0.80277780668585,-1.3668110370636,0.400116741657257,2.2623393535614
0,-0.563888889004722,0.0250000007162294,0.718055596302781,-1.28770399093628,-1.39888143539429,1.70523035526276
0,-0.522222229754814,-0.00972222266958873,0.755555579902926,-1.0723739862442,-2.88450574874878,0.821002900600433
0,-0.427777776188966,-0.0847222225390337,0.873611146860236,-0.789237916469574,-3.02042317390442,0.741895854473114
0,-0.288888903918631,-0.00277777787846293,0.981944519258625,-0.363159388303757,-2.16429567337036,1.10139000415802
0,-0.212499996211229,-0.0250000007162294,0.963888924776322,0.0525344125926495,-1.3723087310791,1.21440005302429
0,-0.16527778158427,-0.0680555564078778,0.901388887277602,0.0598647929728031,-1.79411125183105,1.62765049934387
0,-0.252777787889811,0.0430555572111439,1.00694447590948,0.31245756149292,-1.28617680072784,1.27548658847809
0,-0.331944455051793,-0.0944444474878658,1.10000003759208,0.522900640964508,0.394313514232635,1.24860858917236
0,-0.281944444502361,-0.150000007336368,1.09166668629255,0.289855569601059,1.60291039943695,1.85061621665955
0,-0.281944444502361,-0.150000007336368,1.09166668629255,-0.417220950126648,1.28770399093628,2.44468259811401
0,-0.361111135976272,-0.0583333375370279,0.887500065692777,-0.766330420970917,0.173485726118088,1.78555905818939
0,-0.400000011459671,-0.0986111170596459,0.947222222177272,-0.885449171066284,-0.465173870325089,1.33412969112396
0,-0.400000011459671,-0.0986111170596459,0.947222222177272,-1.28709304332733,-0.57757306098938,1.08275866508484
0,-0.404166687109433,-0.0944444474878658,1.08888890252604,-1.54548907279968,-0.556192815303802,1.3600914478302
0,-0.375000006184955,-0.131944449321958,0.987499989543926,-1.62276351451874,-0.416915535926819,1.15545165538788
0,-0.375000006184955,-0.131944449321958,0.987499989543926,-1.72874867916107,-1.4923437833786,0.814894258975983
0,-0.394444468238583,-0.133333341205212,0.969444492309338,-1.79136228561401,-1.29808866977692,0.572991609573364
0,-0.325000019947452,-0.130555557438704,0.962500032893068,-1.9801197052002,-1.42178881168366,0.216246291995048
0,-0.265277790527169,-0.17361112072783,0.969444492309338,-1.67102181911469,-1.22600650787353,0.0803287774324417
0,-0.159722226207217,-0.262500006760661,0.92083337364316,-1.12643551826477,-1.1844676733017,0.449291378259659
0,-0.0944444474878658,-0.295833339022973,0.866666687443965,-1.01128745079041,-1.45355379581451,0.806036710739136
0,-0.115277783190802,-0.269444466176932,0.870833363093728,-1.1612548828125,-1.23822391033173,0.707992792129517
0,-0.113888891307548,-0.277777793164528,0.85138887672817,-1.32527220249176,-1.38391518592834,0.568410098552704
0,-0.0805555590452358,-0.376388898068209,0.775000017644626,-0.916297852993011,-1.1001683473587,0.789848744869232
0,-0.0486111125881959,-0.336111130701556,0.795833347269579,-0.268475264310837,-1.45508098602295,0.472809702157974
0,-0.101388894748172,-0.376388898068209,0.70416667747024,0.167071640491486,-2.1447479724884,0.0815505087375641
0,-0.0888888921108138,-0.394444468238583,0.723611115211939,0.815810561180115,-1.97065126895904,0.00885754637420177
0,-0.0250000007162294,-0.412500014097029,0.798611131036088,1.83290112018585,-1.02716994285583,0.343000829219818
0,-0.0569444456537738,-0.513888927079148,0.93750007624221,2.87198305130005,-0.741284966468811,0.738230645656586
0,-0.0486111125881959,-0.561111153862072,0.918055589876652,2.84479951858521,-1.89398765563965,0.879951357841492
0,-0.0486111125881959,-0.486111138037923,0.95000000594378,0.538783133029938,-2.64474105834961,1.40101945400238
0,0.1194444466846,-0.387500008822313,1.12083341584089,-0.473420560359955,-1.67407619953155,1.49539816379547
0,0.190277786858986,-0.381944465601225,1.29444451225679,-0.463341295719147,-0.879035115242004,1.20890235900879
0,0.230555566381603,-0.495833332596844,1.33333338774019,-0.388510286808014,-0.697608113288879,0.97830069065094
0,0.125000002061652,-0.620833358970425,1.1625000750908,-1.32099604606628,-2.36649203300476,1.34420895576477
0,0.0652777787193518,-0.670833369519857,0.899999995394348,-2.21224856376648,-3.57936501502991,1.75257241725922
0,0.0486111125881959,-0.531944472937593,0.961111141009813,-2.34541702270508,-1.85214340686798,1.84359133243561
0,0.372222246730376,-0.412500014097029,1.19305559927467,-2.23698854446411,-0.521678924560547,1.75409960746765
0,0.449999997697174,-0.558333370095563,1.13055556177595,-2.21316480636597,-1.57145082950592,1.43889307975769
0,0.347222241455659,-0.858333336144441,0.923611157409668,-2.79959535598755,-2.78157496452331,0.828333258628845
0,0.375000006184955,-0.748611120486655,0.890277849459286,-3.9180896282196,-3.06165671348572,0.902247965335846
0,0.433333343721983,-0.669444477636603,0.809722266102121,-4.79223775863647,-3.48162651062012,0.907745778560638
0,0.519444445988306,-0.584722267253534,0.581944483487025,-6.92690658569336,-4.3582181930542,0.813061654567719
0,0.527777797287831,-0.706944461236748,0.390277792588821,-8.77569007873535,-3.97398376464844,0.783129215240479
0,0.325000019947452,-0.726388898978447,0.637500012945616,-6.38293075561523,-0.480445504188538,0.239459171891212
0,0.468055592179478,-0.92083337364316,0.594444461812454,-4.3860125541687,-1.08398032188416,-0.0598647929728031
0,0.515277818962402,-0.955555573476797,0.2194444556275,-4.98618745803833,-3.10838770866394,0.0222965814173222
0,0.600000029345471,-0.880555606276507,0.0583333375370279,-6.05489635467529,-2.73056769371033,0.53969943523407
0,0.515277818962402,-0.800000022919342,0.218055563744246,-5.22014904022217,-2.75866746902466,0.494800835847855
0,0.452777781463682,-0.683333347845286,0.133333341205212,-3.48712420463562,-3.04088711738586,-0.187535628676414
0,0.409722230330521,-0.591666678045946,0.00972222266958873,-2.59006857872009,-1.69759452342987,-1.07817721366882
0,0.298611122789481,-0.555555586329055,-0.120833338567854,-2.51920819282532,-1.49600899219513,-0.79840087890625
0,0.320833344297689,-0.538888932353864,-0.176388892338373,-2.44529366493225,-1.43736588954925,0.320093393325806
0,0.523611121638068,-0.720833380069289,-0.15555556271342,-1.77364718914032,-1.35948061943054,0.586125195026398
0,0.486111138037923,-0.769444450111609,-0.150000007336368,-0.626136898994446,-0.848491847515106,-0.414472073316574
0,0.497222224480098,-0.786111152710659,-0.197222234119292,-0.276111096143722,-1.638951420784,-1.11421823501587
0,0.54027777561326,-0.861111119910949,-0.355555568443255,0.541837453842163,-1.53540980815887,-1.2556334733963
0,0.552777802562547,-0.877777822509998,-0.361111135976272,1.68782067298889,-0.336586743593216,-1.05068826675415
0,0.609722223904392,-0.904166671044111,-0.344444457689151,1.4056009054184,-0.0106901414692402,-1.27640295028687
0,0.502777792013115,-0.894444525109048,-0.44861110581392,0.189979091286659,-0.610865235328674,-0.994794070720673
0,0.486111138037923,-0.837500055143345,-0.370833354847121,0.645073711872101,0.150578290224075,-1.42209434509277
0,0.480555570504907,-0.723611115211939,-0.359722244093018,1.55251407623291,0.565050363540649,-1.85000538825989
0,0.555555586329055,-0.709722245003256,-0.47500000297189,0.935845553874969,-0.669202864170074,-1.35550999641419
0,0.533333364820847,-0.816666676894533,-0.4194444735133,0.362853944301605,-0.240986332297325,-0.541532039642334
0,0.430555559955475,-0.736111142161226,-0.294444447139719,1.1878274679184,0.414777487516403,-0.460286974906921
0,0.431944451838729,-0.668055585753349,-0.280555576931036,1.90895390510559,0.441960990428925,-0.786489009857178
0,0.390277792588821,-0.676388937052873,-0.227777782615095,1.78006136417389,1.04977190494537,-0.872010111808777
0,0.848611190209378,-1.13750002119222,-0.284722228268869,0.574518740177155,0.531452775001526,-1.67529797554016
0,0.86805557932722,-1.10555560512509,-0.247222220356795,-0.194866016507149,0.915381550788879,-0.393397212028503
0,0.666666693870094,-0.933333400592447,-0.252777787889811,-0.274278491735458,0.539394021034241,-0.624609708786011
0,0.700000001820477,-0.899999995394348,-0.265277790527169,0.139582708477974,0.463952153921127,-0.797789990901947
0,0.736111142161226,-0.788888936477167,-0.356944460326509,0.731205701828003,0.776104271411896,-0.783434689044952
0,0.837500055143345,-0.737500034044481,-0.434722235605237,0.326812893152237,0.0540615729987621,-0.186008468270302
0,0.473611111088636,-0.42916666807222,-0.519444445988306,-0.861930847167969,-1.28190076351166,-0.126143679022789
0,0.572222240304247,-0.759722255552688,-0.187500003092477,-2.65879106521606,-0.441350132226944,-0.619722783565521
0,0.729166682744956,-0.830555595727074,-0.150000007336368,-2.56380152702331,-0.791070520877838,-0.231823354959488
0,0.702777785586986,-0.854166660494678,-0.126388893944906,-1.01922869682312,-0.734565436840057,0.676227807998657
0,0.476388894855144,-0.77638890952788,-0.100000002864918,-0.452651143074036,0.256563395261765,1.36192405223846
0,0.387500008822313,-0.627777818386695,-0.211111128639904,0.22693644464016,1.3600914478302,1.21867620944977
0,0.436111127488491,-0.493055597454194,-0.308333341660331,0.76694130897522,1.01525807380676,-0.312152147293091
0,0.466666700296224,-0.408333338447267,-0.412500014097029,0.268169850111008,0.503047525882721,-1.86588788032532
0,0.601388921228725,-0.359722244093018,-0.454166673346937,-0.869872093200684,0.492662817239761,-3.2247576713562
0,0.973611167959101,-0.663888910103586,-0.449999997697174,1.53724241256714,-2.11939692497253,-1.13101696968079
0,1.09861114570882,-0.766666714968959,-0.423611149163062,0.141109868884087,-1.42331600189209,-1.77486896514893
0,1.22638890722505,-1.05277781080915,-0.0916666697993398,0.333532422780991,-0.171042263507843,-0.615141272544861
0,1.04444445950963,-0.790277828360421,-0.411111122213775,-0.0186313893646002,0.364075690507889,-0.951728045940399
0,1.04444445950963,-0.790277828360421,-0.411111122213775,-0.634994447231293,-1.40285205841064,-1.57053458690643
0,0.82222224442755,-0.759722255552688,-0.29166668768514,-0.992350578308105,-0.17440202832222,-1.85977923870087
0,0.426388884305712,-0.483333354271415,-0.140277788465518,-1.14964842796326,1.0522153377533,-3.56073355674744
0,0.630555602153203,-0.693055591028065,-0.19166667874224,-0.660345315933228,0.715323209762573,-3.87349653244019
0,1.09583336194232,-0.719444488186035,-0.391666684472075,-1.64719808101654,1.29931032657623,-3.40404653549194
0,0.984722303025134,-0.123611110178398,-0.359722244093018,1.10810959339142,-0.358272463083267,-2.37687659263611
0,0.672222261403111,-0.334722238818301,-0.348611133338914,0.678060412406921,1.59649634361267,-2.76477599143982
0,0.75000001236991,-0.423611149163062,-0.426388884305712,-0.251371055841446,0.229990765452385,-2.16307377815247
0,1.0305556379248,-0.463888916529715,-0.334722238818301,-0.101403631269932,-0.00519235478714108,-2.08182883262634
0,0.958333357243305,-0.304166666010569,-0.308333341660331,-0.103847093880177,-0.643546521663666,-1.77914500236511
0,1.09444447005906,-0.251388896006557,-0.262500006760661,-0.124616511166096,0.286801218986511,-1.64994704723358
0,1.10416671324184,-0.224999998848587,-0.440277803138253,-0.0842994004487991,-0.301156580448151,-0.521984338760376
0,1.10416671324184,-0.224999998848587,-0.440277803138253,-0.0247400421649218,0.330478101968765,-0.266031801700592
0,1.00277780025972,-0.190277786858986,-0.363888895430851,0.0134390350431204,0.281608879566193,-0.16371189057827
0,0.95000000594378,-0.212499996211229,-0.25555557165632,0.0937678143382072,0.437379509210587,-0.0766635909676552
0,0.95000000594378,-0.212499996211229,-0.25555557165632,0.0797179117798805,0.530536472797394,0.00152716308366507
0,1.05555559457566,-0.16527778158427,-0.409722230330521,-0.0226020142436027,0.469449937343597,0.91996306180954
0,0.929166724942685,-0.0361111129898289,-0.363888895430851,-0.0464257597923279,0.108734011650086,1.57725405693054
0,0.929166724942685,-0.0361111129898289,-0.363888895430851,-0.0354301854968071,-0.636521577835083,0.32284227013588
0,0.852777768611424,-0.0944444474878658,-0.300000014672736,-0.0659734457731247,-1.16369831562042,0.424856781959534
0,0.938888968125464,-0.290277795801886,-0.243055569018962,-0.0552833043038845,-1.59985601902008,0.57757306098938
0,0.938888968125464,-0.290277795801886,-0.243055569018962,-0.195476874709129,-2.27058601379394,0.470366239547729
0,0.861111119910949,-0.208333344873396,-0.380555573717971,-0.149356558918953,-2.24401354789734,0.475558578968048
0,0.99583334084345,-0.265277790527169,-0.506944467662877,-0.104763388633728,-1.97553825378418,0.981355011463165
0,0.99583334084345,-0.265277790527169,-0.506944467662877,0.171958565711975,-0.149356558918953,0.862236320972443
0,1.02361117850853,-0.308333341660331,-0.572222240304247,0.107512280344963,0.0339030213654041,0.411417752504349
0,0.968055600426084,-0.420833365396554,-0.551388910679293,0.141415297985077,0.119118720293045,0.463646709918976
0,0.969444492309338,-0.444444478788016,-0.54027777561326,0.309403240680695,-0.0687223374843597,1.1001683473587
0,0.956944465360051,-0.415277797863537,-0.479166678621653,0.282525181770325,0.846964657306671,1.83381748199463
0,0.847222298326124,-0.447222262554524,-0.423611149163062,0.388204872608185,1.25410640239716,2.01616072654724
0,0.925000049292922,-0.330555563168539,-0.495833332596844,0.0387899428606033,-0.00794124789535999,0.627358615398407
0,0.825000028194058,-0.270833333748257,-0.452777781463682,0.156076073646545,0.324674874544144,0.200974673032761
0,0.615277791437408,-0.198611113846581,-0.423611149163062,0.223576679825783,0.226020142436027,-0.467006474733353
0,0.579166699720517,-0.179166676104882,-0.418055581630046,0.361326783895493,0.854905903339386,-0.469144523143768
0,0.672222261403111,-0.176388892338373,-0.44861110581392,0.252898216247559,1.09864115715027,-0.810923635959625
0,1.2041667343407,-0.266666682410424,-0.315277801076602,0.364991992712021,2.16521191596985,-0.979522407054901
0,0.961111141009813,-0.230555566381603,-0.355555568443255,0.615141272544861,3.56592583656311,-0.505491018295288
0,1.26111120430641,-0.344444457689151,-0.375000006184955,0.474947720766068,3.38816404342651,-0.29046642780304
0,1.33750006338995,-0.234722242031366,-0.266666682410424,0.0827722400426865,1.49173295497894,-0.300545692443848
0,0.858333336144441,-0.500000008246606,-0.281944444502361,0.0794124826788902,0.39125919342041,0.0183259565383196
0,0.84583340644287,-0.340277782039389,-0.187500003092477,0.0106901414692402,0.0757472887635231,-0.114842668175697
0,0.870833363093728,-0.391666684472075,-0.151388899219622,-0.0745255574584007,-0.446542501449585,-0.133779495954514
0,0.780555585177642,-0.330555563168539,-0.25555557165632,-0.167987942695618,-0.271529614925385,0.265420943498612
0,0.940277860008718,-0.304166666010569,-0.261111114877407,-0.102014496922493,-0.374765813350677,0.515570282936096
0,1.06805562152495,-0.358333352209763,-0.052777782159976,-0.0125227374956012,-0.143858760595322,0.257785141468048
0,1.05555559457566,-0.320833344297689,-0.148611115453114,-0.0470366254448891,-0.305738061666489,0.0748309940099716
0,1.0361111082101,-0.315277801076602,-0.223611131277262,0.0665843114256859,-0.164322748780251,0.0678060427308083
0,1.07638897282447,-0.351388892793493,-0.277777793164528,0.105068825185299,-0.0516181141138077,0.0571159012615681
0,0.941666654644256,-0.381944465601225,-0.256944463539574,-0.0467311926186085,-0.0128281703218818,0.0452040284872055
0,0.909722238577127,-0.358333352209763,-0.236111109602691,0.13744467496872,-0.47647488117218,0.0232128798961639
0,1.00277780025972,-0.334722238818301,-0.152777778946911,0.302989155054092,-0.0852157026529312,0.0922406539320946
0,0.99583334084345,-0.300000014672736,-0.336111130701556,0.205250725150108,0.421191573143005,0.121867619454861
0,0.959722249126559,-0.318055560531181,-0.298611122789481,0.0152716310694814,0.458148926496506,0.0635299831628799
0,0.852777768611424,-0.4194444735133,-0.159722226207217,-0.0723875313997269,0.00824668072164059,-0.155770644545555
0,0.926388941176177,-0.380555573717971,-0.20138889761309,-0.0290160998702049,0.0601702257990837,-0.187230199575424
0,0.940277860008718,-0.326388911830706,-0.227777782615095,-0.106595985591412,0.120645888149738,-0.241597205400467
0,0.927777833059431,-0.363888895430851,-0.200000005729836,-0.221133217215538,0.0696386396884918,-0.351247519254685
0,0.936111184358955,-0.361111135976272,-0.188888894975731,-0.334754168987274,0.145996794104576,-0.472809702157974
0,0.905555562927365,-0.295833339022973,-0.215277779977737,-0.421802461147308,0.498466044664383,-0.641713917255402
0,0.86805557932722,-0.302777798439244,-0.206944452990142,-0.470366239547729,0.486554175615311,-0.96241819858551
0,0.986111194908388,-0.354166676560001,-0.17361112072783,-0.419053554534912,0.51740288734436,-0.800233483314514
0,0.986111194908388,-0.224999998848587,-0.180555567988136,-0.289550125598908,0.223882108926773,-0.505185544490814
0,1.06527783775844,-0.343055565805897,-0.168055565350778,-0.04764748737216,0.0687223374843597,-0.718988418579102
0,1.04583335139288,-0.234722242031366,-0.170833336961321,0.0778853222727776,-0.00183259579353034,-0.382401645183563
0,1.00694447590948,-0.20138889761309,-0.202777789496344,0.0406225398182869,0.0589484944939613,-0.191811680793762
0,1.01944450285877,-0.231944458264858,-0.186111123365188,0.00916297826915979,-0.0351247526705265,-0.173485726118088
0,1.01805561097552,-0.243055569018962,-0.150000007336368,0.0537561401724815,-0.277332812547684,-0.158824965357781
0,1.12499999424293,-0.18333333959868,-0.184722231481934,0.192727982997894,-0.450513124465942,0.1750128865242
0,0.95000000594378,-0.198611113846581,-0.141666668192807,0.169820532202721,-0.487470477819443,0.328950941562653
0,0.993055557076942,-0.322222236180943,-0.598611137462217,0.222660377621651,1.64994704723358,0.158214092254639
0,1.04583335139288,-0.295833339022973,-0.118055554801345,0.0671951770782471,0.693637490272522,0.013744467869401
0,1.04583335139288,-0.298611122789481,-0.288888903918631,0.0998764708638191,1.69270753860474,-0.0705549344420433
0,0.961111141009813,-0.237500001485945,-0.0763888894734557,0.224492982029915,1.55740094184876,-0.0507018156349659
0,0.887500065692777,-0.208333344873396,0.00694444498106275,0.109039448201656,0.503658413887024,0.0192422550171614
0,0.968055600426084,-0.211111128639904,-0.0680555564078778,-0.00427605677396059,0.0708603709936142,0.244651526212692
0,1.00000001649321,-0.243055569018962,-0.0625000010308258,0.0320704244077206,0.226631000638008,0.102014496922493
0,0.991666665193688,-0.270833333748257,-0.0458333348996699,0.0956004112958908,0.256563395261765,0.0861319974064827
0,0.965277816659576,-0.269444466176932,-0.00277777787846293,0.141415297985077,-0.487775892019272,0.03176499158144
0,0.993055557076942,-0.290277795801886,-0.0125000003581147,0.0791070461273193,-0.478612929582596,-0.0131336031481624
0,1.06388894587519,-0.322222236180943,-0.222222239394008,0.0418442711234093,0.353385537862778,-0.110566608607769
0,1.11527784830787,-0.252777787889811,-0.283333336385615,0.0293215326964855,0.815505087375641,-0.0571159012615681
0,0.970833384192592,-0.220833347510754,-0.131944449321958,0.021685715764761,0.956614971160889,0.00885754637420177
0,0.951388897827035,-0.216666671860991,-0.0638888929140799,0.0482583530247212,0.695164620876312,-0.000305432622553781
0,0.893055633225794,-0.24583335278547,0.029166668768514,0.178372651338577,0.40225476026535,0.10567969083786
0,0.959722249126559,-0.259722222994153,-0.0402777795226179,0.123394779860973,0.427605658769607,0.199752941727638
0,1.06527783775844,-0.266666682410424,-0.0194444453391775,0.0653625801205635,0.184175878763199,0.0653625801205635
0,1.01666671909226,-0.237500001485945,0.0208333341834404,0.0222965814173222,-0.0934623852372169,0.0213802829384804
0,0.96666670854283,-0.259722222994153,-0.00972222266958873,0.0305432621389627,-0.388815730810165,0.0445931628346443
0,0.941666654644256,-0.250000004123303,-0.0222222230277034,0.0534507073462009,-0.392175495624542,0.118813291192055
0,0.983333411141879,-0.244444460902216,-0.0583333375370279,0.0394008085131645,-0.364991992712021,0.370489776134491
0,1.03750000009336,-0.269444466176932,-0.0777777813567098,0.0714712366461754,-0.127365410327911,0.368962615728378
0,0.906944454810619,-0.252777787889811,-0.0430555572111439,0.0366519130766392,0.166460782289505,0.450207680463791
0,0.841666730793107,-0.229166674498349,-0.0486111125881959,0.144775062799454,0.25961771607399,0.964861631393433
0,1.17777778855888,-0.13750000469901,-0.0986111170596459,0.263588339090347,0.375071257352829,0.770301103591919
0,1.15972229132429,-0.237500001485945,-0.126388893944906,0.167071640491486,0.602313160896301,0.542753756046295
0,0.863888903677457,-0.334722238818301,-0.03194444645704,0.0568104684352875,0.688139677047729,0.630412936210632
0,1.02222228662528,-0.383333357484479,0.0777777813567098,0.0546724386513233,0.497244298458099,0.557414531707764
0,1.02222228662528,-0.383333357484479,0.0777777813567098,-0.0192422550171614,-0.16401731967926,0.127365410327911
0,1.02500007039179,-0.381944465601225,0.0472222237439329,-0.0345138870179653,-0.316428184509277,-0.466395616531372
0,1.02777785415829,-0.338888890156135,0.0111111115138517,-0.000916297896765172,-0.165544480085373,-0.531147301197052
0,1.08472222687628,-0.351388892793493,0.0152777788063885,0.0726929605007172,-0.125227376818657,-0.93554013967514
0,0.894444525109048,-0.331944455051793,0.0152777788063885,-0.0693332031369209,0.0470366254448891,-1.20951318740845
0,0.905555562927365,-0.318055560531181,0.00972222266958873,-0.0363464802503586,0.274278491735458,-0.995099484920502
0,1.01111115155925,-0.254166679773066,-0.0361111129898289,0.0470366254448891,0.592233836650848,-0.386066824197769
0,1.06111116210868,-0.269444466176932,-0.0222222230277034,0.141720741987228,0.619722783565521,-0.313984721899033
0,1.06666672964169,-0.252777787889811,-0.0125000003581147,0.078801617026329,0.559552550315857,0.140193566679955
0,1.02222228662528,-0.234722242031366,0.0194444453391775,0.0464257597923279,0.574213325977325,0.273362189531326
0,0.993055557076942,-0.241666677135707,0.033333335301303,-0.0106901414692402,0.585208892822266,0.176234617829323
0,0.815277785011279,-0.237500001485945,0.0486111125881959,-0.0323758572340012,0.671035468578339,0.399200439453125
0,0.841666730793107,-0.261111114877407,0.0666666706026059,-0.0439822971820831,0.350636661052704,0.266642689704895
0,1.11388895642462,-0.305555557893823,0.0833333367337618,0.017409659922123,0.117896988987923,-0.0638354197144508
0,1.1083333888916,-0.288888903918631,0.0819444448505077,0.0616973899304867,0.183565005660057,0.0409279726445675
0,1.11388895642462,-0.263888898643915,0.0791666671619817,0.188146501779556,0.235183119773865,0.178983509540558
0,1.0513889189259,-0.279166685047782,0.0847222225390337,0.213802829384804,0.215635433793068,0.123700208961964
0,1.03472221632685,-0.295833339022973,0.0652777787193518,0.124005645513535,0.364991992712021,0.0177150927484035
0,1.0361111082101,-0.290277795801886,0.0888888921108138,0.058643065392971,0.273056775331497,-0.103847093880177
0,0.981944519258625,-0.281944444502361,0.116666675074056,-0.0326812900602817,-0.0421497002243996,-0.0314595587551594
0,0.977777843608863,-0.266666682410424,0.113888891307548,-0.00152716308366507,-0.0873537287116051,0.0525344125926495
0,1.02500007039179,-0.281944444502361,0.0916666697993398,0.00641408516094089,0.00366519158706069,0.0308486949652433
0,0.997222232726705,-0.279166685047782,0.118055554801345,0.117896988987923,-0.0516181141138077,0.192117124795914
0,0.968055600426084,-0.265277790527169,0.0819444448505077,0.0604756586253643,0.0830776765942574,0.218689754605293
0,1.00555558402623,-0.263888898643915,0.0750000036681839,-0.017409659922123,0.208915919065475,0.252287358045578
0,1.01527782720901,-0.279166685047782,0.108333335930496,0.0326812900602817,0.0583376325666905,0.253203630447388
0,1.00138890837647,-0.295833339022973,0.104166672436698,-0.0800233483314514,-0.05283984541893,0.0934623852372169
0,0.998611124609959,-0.327777779402031,0.0944444474878658,-0.0952949747443199,-0.0320704244077206,-0.0748309940099716
0,1.03750000009336,-0.341666673922643,0.0819444448505077,-0.210443079471588,0.118813291192055,-0.308486938476563
0,0.98888888142718,-0.327777779402031,0.12916666555545,-0.0455094613134861,-0.102319926023483,-0.238542884588242
0,0.956944465360051,-0.288888903918631,0.120833338567854,0.0897971913218498,-0.145080491900444,-0.104763388633728
0,0.911111130460381,-0.270833333748257,0.102777780553444,0.0488692186772823,-0.19578230381012,-0.0665843114256859
0,0.925000049292922,-0.262500006760661,0.0916666697993398,0.0537561401724815,-0.237321153283119,0.0161879286170006
0,1.06805562152495,-0.293055555256465,0.0847222225390337,0.0326812900602817,-0.197004035115242,-0.0992656052112579
0,1.06805562152495,-0.293055555256465,0.0847222225390337,0.00641408516094089,-0.124921940267086,-0.178372651338577
0,0.983333411141879,-0.277777793164528,0.0777777813567098,0.0189368221908808,-0.070249505341053,-0.146302223205566
0,0.952777789710289,-0.269444466176932,0.0722222259796579,0.0455094613134861,-0.0213802829384804,-0.110261179506779
0,0.986111194908388,-0.254166679773066,0.0583333375370279,0.000610865245107561,-0.0140499006956816,-0.150883719325066
0,1.02500007039179,-0.259722222994153,0.0694444482911319,-0.0302378293126821,-0.0418442711234093,-0.155465200543404
0,1.01388893532575,-0.268055574293678,0.0680555564078778,-0.0128281703218818,-0.0699440687894821,-0.0733038261532784
0,0.968055600426084,-0.251388896006557,0.0791666671619817,-0.0323758572340012,-0.0314595587551594,0.0497855171561241
0,0.993055557076942,-0.273611117514765,0.0847222225390337,-0.0308486949652433,-0.122173048555851,0.0262672062963247
0,0.99583334084345,-0.288888903918631,0.0777777813567098,-0.02382374368608,-0.173791155219078,0.0109955742955208
0,1.03194452980806,-0.272222225631511,0.0722222259796579,0.0232128798961639,-0.143247902393341,0.0641408488154411
0,1.03472221632685,-0.268055574293678,0.0236111118719664,0.0977384373545647,0.134084925055504,0.109039448201656
0,1.03472221632685,-0.268055574293678,0.0236111118719664,0.146302223205566,0.579405665397644,0.134390354156494
5,1.05416670269241,-0.286111120152123,0.105555564319952,0.212275668978691,0.59803706407547,0.0861319974064827
5,1.04444445950963,-0.290277795801886,0.133333341205212,0.235183119773865,0.415999233722687,0.0699440687894821
5,1.04444445950963,-0.290277795801886,0.133333341205212,-0.0494800843298435,0.0134390350431204,-0.0229074470698834
5,1.07916665934326,-0.347222241455659,0.12916666555545,0.307265222072601,0.913854420185089,-0.149051114916802
5,0.984722303025134,-0.248611112240049,0.120833338567854,0.0714712366461754,0.29596421122551,-0.0167987942695618
5,0.969444492309338,-0.275000009398019,0.130555557438704,-0.0448985956609249,0.286495804786682,-0.058643065392971
5,0.909722238577127,-0.251388896006557,0.154166670830166,0.0458148941397667,0.16890424489975,-0.173180297017098
5,0.930555616825939,-0.259722222994153,0.163888889701015,0.0250454749912024,0.0134390350431204,0.00519235478714108
5,0.970833384192592,-0.259722222994153,0.138888896582264,0.00824668072164059,0.00397062394768,0.0436768643558025
5,1.00277780025972,-0.262500006760661,0.123611110178398,-0.00244346098043024,0.0555887371301651,0.00702495034784079
5,1.00277780025972,-0.262500006760661,0.123611110178398,0.0543670058250427,0.0638354197144508,-0.00397062394768
5,0.997222232726705,-0.29166668768514,0.14722222356986,0.0561996027827263,0.0412334054708481,-0.0314595587551594
5,1.02222228662528,-0.290277795801886,0.181944447715425,-0.0253509078174829,0.0180205255746841,0.0421497002243996
5,0.987499989543926,-0.24583335278547,0.156944454596674,0.0516181141138077,-0.00794124789535999,-0.0345138870179653
5,1.00555558402623,-0.280555576931036,0.14722222356986,0.0409279726445675,0.0427605658769607,0.00610865233466029
5,1.00277780025972,-0.25555557165632,0.156944454596674,0.00610865233466029,0.0161879286170006,-0.0268780700862408
5,0.99583334084345,-0.259722222994153,0.143055560076062,0.00305432616733015,0.0204639863222837,-0.017409659922123
5,0.994444448960196,-0.265277790527169,0.141666668192807,-0.00305432616733015,0.0342084541916847,0.0143553335219622
5,0.970833384192592,-0.20972223675665,0.169444445078067,-0.0146607663482428,0.0852157026529312,-0.0033597587607801
5,1.00000001649321,-0.252777787889811,0.144444451959316,0.00671951752156019,-0.0311541277915239,-0.0198531206697226
5,0.970833384192592,-0.272222225631511,0.152777778946911,0.0222965814173222,-0.0226020142436027,-0.0418442711234093
5,1.00277780025972,-0.269444466176932,0.13750000469901,0.0140499006956816,0.0229074470698834,-0.013744467869401
5,1.00000001649321,-0.243055569018962,0.134722233088466,-0.0177150927484035,0.0464257597923279,0.0372627787292004
5,0.983333411141879,-0.243055569018962,0.176388892338373,0.0210748501121998,-0.0675006061792374,-0.021685715764761
5,1.01527782720901,-0.293055555256465,0.152777778946911,0.0827722400426865,-0.0106901414692402,-0.0650571510195732
5,0.981944519258625,-0.268055574293678,0.148611115453114,0.00244346098043024,-0.120340451598167,-0.0522289797663689
5,0.947222222177272,-0.256944463539574,0.169444445078067,0.0693332031369209,-0.270918726921081,0.0510072484612465
5,0.947222222177272,-0.250000004123303,0.138888896582264,-0.021685715764761,-0.313679307699203,0.122783914208412
5,0.969444492309338,-0.238888893369199,0.120833338567854,-0.0635299831628799,-0.199142068624496,0.0928515195846558
5,0.969444492309338,-0.238888893369199,0.120833338567854,-0.294437050819397,-0.0513126812875271,0.107512280344963
5,1.01805561097552,-0.305555557893823,0.141666668192807,-0.120645888149738,0.0861319974064827,0.027488935738802
5,0.983333411141879,-0.269444466176932,0.136111112815755,-0.122783914208412,-0.148134827613831,0.0329867228865623
5,1.0125000434425,-0.275000009398019,0.111111119697004,-0.0821613743901253,-0.0467311926186085,0.0613919571042061
5,1.0333333244436,-0.284722228268869,0.113888891307548,0.0427605658769607,0.0210748501121998,0.00763581553474069
5,1.03888889197661,-0.286111120152123,0.118055554801345,0.172263994812965,0.105374254286289,-0.0241291765123606
5,0.981944519258625,-0.279166685047782,0.125000002061652,0.207999616861343,0.00580321997404099,-0.0403171069920063
5,0.940277860008718,-0.259722222994153,0.120833338567854,0.104152522981167,-0.154854342341423,0.0363464802503586
5,0.991666665193688,-0.269444466176932,0.1194444466846,0.121256753802299,-0.0638354197144508,0.00702495034784079
5,1.01805561097552,-0.25555557165632,0.122222230451108,0.00366519158706069,0.189368233084679,0.00244346098043024
5,1.01805561097552,-0.25555557165632,0.122222230451108,-0.0149661982432008,0.109650313854218,-0.00794124789535999
5,1.01805561097552,-0.25555557165632,0.122222230451108,-0.0149661982432008,0.206777885556221,0.0470366254448891
5,0.986111194908388,-0.272222225631511,0.126388893944906,-0.0378736443817616,0.00885754637420177,-0.00549778714776039
5,0.997222232726705,-0.277777793164528,0.12916666555545,-0.0329867228865623,0.0589484944939613,-0.0293215326964855
5,0.987499989543926,-0.275000009398019,0.134722233088466,-0.0394008085131645,0.0332921557128429,-0.0146607663482428
5,0.983333411141879,-0.275000009398019,0.138888896582264,-0.0131336031481624,-0.00488692196086049,-0.00488692196086049
5,0.983333411141879,-0.259722222994153,0.134722233088466,-0.0293215326964855,-0.0308486949652433,0.013744467869401
5,0.99583334084345,-0.272222225631511,0.125000002061652,0.00671951752156019,-0.0436768643558025,0.02382374368608
5,1.00972225967599,-0.29166668768514,0.1194444466846,0.142637029290199,-0.019547687843442,0.00549778714776039
5,0.998611124609959,-0.279166685047782,0.116666675074056,0.11087204515934,0.0027488935738802,0.0161879286170006
5,0.998611124609959,-0.279166685047782,0.116666675074056,0.0219911485910416,-0.000916297896765172,0.0177150927484035
5,0.980555627375371,-0.261111114877407,0.1194444466846,0.0189368221908808,-0.0497855171561241,0.0293215326964855
5,0.986111194908388,-0.268055574293678,0.126388893944906,0.0284052342176437,-0.0534507073462009,0.00763581553474069
5,1.01527782720901,-0.269444466176932,0.13750000469901,0.117591559886932,-0.0329867228865623,0.0125227374956012
5,1.01527782720901,-0.269444466176932,0.13750000469901,0.145385921001434,-0.0485637858510017,0.0421497002243996
5,0.990277773310434,-0.261111114877407,0.108333335930496,0.402865618467331,0.273056775331497,-0.120340451598167
5,1.05555559457566,-0.281944444502361,-0.0416666683668809,-0.151494577527046,0.0513126812875271,-0.0497855171561241
5,0.956944465360051,-0.236111109602691,0.0958333393711199,-0.0213802829384804,-0.0256563406437635,0.029626963660121
5,0.96666670854283,-0.261111114877407,0.120833338567854,0.00397062394768,-0.0109955742955208,0.0045814891345799
5,1.00000001649321,-0.272222225631511,0.116666675074056,-0.0262672062963247,-0.0247400421649218,0.0161879286170006
5,0.987499989543926,-0.263888898643915,0.12777778582816,0.000305432622553781,-0.0323758572340012,0.0143553335219622
5,0.98888888142718,-0.272222225631511,0.120833338567854,0.0488692186772823,-0.0308486949652433,0.0164933614432812
5,0.997222232726705,-0.276388901281273,0.12777778582816,0.0415388382971287,-0.0235183127224445,0.0106901414692402
5,1.00277780025972,-0.276388901281273,0.123611110178398,0.0607810914516449,0.0177150927484035,-0.00152716308366507
5,1.00000001649321,-0.25555557165632,0.12916666555545,0.0748309940099716,-0.0134390350431204,0.0253509078174829
5,0.977777843608863,-0.256944463539574,0.126388893944906,0.148745685815811,-0.0888808965682983,-0.0284052342176437
5,0.993055557076942,-0.256944463539574,0.0875000002275597,0.0161879286170006,-0.120035022497177,0.00397062394768
5,1.0125000434425,-0.286111120152123,0.111111119697004,-0.0140499006956816,-0.0555887371301651,0.0177150927484035
5,1.00277780025972,-0.275000009398019,0.115277783190802,-0.0164933614432812,-0.0870482996106148,0.011606439948082
5,1.00000001649321,-0.263888898643915,0.125000002061652,0.0519235469400883,-0.0439822971820831,0.0027488935738802
5,1.00277780025972,-0.273611117514765,0.126388893944906,0.064446285367012,-0.00946841109544039,-0.0122173046693206
5,1.0125000434425,-0.280555576931036,0.111111119697004,-0.0222965814173222,0.0363464802503586,-0.0183259565383196
5,1.0125000434425,-0.279166685047782,0.122222230451108,0.0045814891345799,0.0852157026529312,-0.0381790772080422
5,1.02638896227504,-0.275000009398019,0.144444451959316,0.0919352173805237,0.239764615893364,-0.0244346093386412
5,1.02361117850853,-0.265277790527169,0.134722233088466,0.0623082555830479,0.297491371631622,0.000610865245107561
5,1.04583335139288,-0.259722222994153,0.138888896582264,-0.0103847095742822,0.299018532037735,-0.0558941699564457
5,0.926388941176177,-0.25555557165632,0.176388892338373,-0.0143553335219622,0.0308486949652433,-0.00671951752156019
5,0.938888968125464,-0.259722222994153,0.168055565350778,-0.00397062394768,0.0177150927484035,-0.00305432616733015
5,0.986111194908388,-0.269444466176932,0.163888889701015,-0.0106901414692402,0.0540615729987621,-0.01588249579072
5,0.990277773310434,-0.275000009398019,0.158333334323963,0.000305432622553781,0.0525344125926495,-0.0100792767480016
5,0.98888888142718,-0.273611117514765,0.161111118090472,0.00519235478714108,0.0516181141138077,-0.0152716310694814
5,0.98888888142718,-0.272222225631511,0.150000007336368,0.00855211354792118,0.0519235469400883,-0.013744467869401
5,0.993055557076942,-0.279166685047782,0.159722226207217,0.0152716310694814,0.0668897479772568,-0.0271835029125214
5,0.98888888142718,-0.272222225631511,0.170833336961321,0.0247400421649218,0.0400116741657257,-0.02382374368608
5,0.984722303025134,-0.263888898643915,0.166666673467524,0.0143553335219622,0.03176499158144,-0.0198531206697226
5,0.990277773310434,-0.263888898643915,0.154166670830166,0.015577063895762,0.0439822971820831,-0.0109955742955208
5,0.98888888142718,-0.269444466176932,0.161111118090472,0.0167987942695618,0.0433714315295219,-0.0198531206697226
5,0.98888888142718,-0.269444466176932,0.161111118090472,0.0143553335219622,0.0439822971820831,-0.0204639863222837
5,0.983333411141879,-0.265277790527169,0.158333334323963,0.0134390350431204,0.0256563406437635,-0.0167987942695618
5,0.986111194908388,-0.268055574293678,0.150000007336368,0.0232128798961639,0.0262672062963247,-0.0122173046693206
5,0.986111194908388,-0.268055574293678,0.150000007336368,0.0207694191485643,0.0229074470698834,0.00488692196086049
5,0.98888888142718,-0.272222225631511,0.154166670830166,0.0329867228865623,0.0204639863222837,-0.00855211354792118
5,0.993055557076942,-0.270833333748257,0.158333334323963,0.0415388382971287,0.00763581553474069,-0.00397062394768
5,0.986111194908388,-0.269444466176932,0.150000007336368,0.0461203269660473,-0.0045814891345799,0.00488692196086049
5,0.984722303025134,-0.265277790527169,0.141666668192807,0.0436768643558025,-0.0167987942695618,0.0109955742955208
5,0.991666665193688,-0.266666682410424,0.14722222356986,0.0467311926186085,-0.02382374368608,0.0256563406437635
5,0.98888888142718,-0.268055574293678,0.13750000469901,0.0513126812875271,-0.0290160998702049,0.0308486949652433
5,0.993055557076942,-0.266666682410424,0.144444451959316,0.0543670058250427,-0.0415388382971287,0.0268780700862408
5,0.991666665193688,-0.268055574293678,0.150000007336368,0.0632245540618896,-0.0360410511493683,0.0299323964864016
5,0.98888888142718,-0.272222225631511,0.150000007336368,0.0616973899304867,-0.0332921557128429,0.0335975885391235
5,0.98888888142718,-0.272222225631511,0.150000007336368,0.0519235469400883,-0.0378736443817616,0.0394008085131645
5,0.991666665193688,-0.265277790527169,0.150000007336368,0.0467311926186085,-0.0427605658769607,0.0351247526705265
5,0.994444448960196,-0.273611117514765,0.148611115453114,0.0406225398182869,-0.0400116741657257,0.0448985956609249
5,0.990277773310434,-0.273611117514765,0.152777778946911,0.0561996027827263,-0.03176499158144,0.0348193198442459
5,0.993055557076942,-0.269444466176932,0.148611115453114,0.064446285367012,-0.0314595587551594,0.0287106670439243
5,0.99583334084345,-0.270833333748257,0.14583334384257,0.0937678143382072,-0.0473420582711697,0.0256563406437635
5,0.98888888142718,-0.272222225631511,0.15555556271342,0.100181899964809,-0.0613919571042061,0.0323758572340012
5,0.993055557076942,-0.275000009398019,0.150000007336368,0.127365410327911,-0.0598647929728031,0.0409279726445675
5,0.997222232726705,-0.276388901281273,0.152777778946911,0.136833816766739,-0.0522289797663689,0.0207694191485643
5,0.997222232726705,-0.273611117514765,0.150000007336368,0.132557764649391,-0.0467311926186085,0.0213802829384804
5,0.99583334084345,-0.266666682410424,0.154166670830166,0.127976268529892,-0.0510072484612465,0.0268780700862408
5,0.986111194908388,-0.259722222994153,0.163888889701015,0.115453533828259,-0.0537561401724815,0.0171042270958424
5,0.986111194908388,-0.25555557165632,0.158333334323963,0.0998764708638191,-0.0662788823246956,0.0149661982432008
5,0.98888888142718,-0.256944463539574,0.150000007336368,0.0858265683054924,-0.0616973899304867,0.0229074470698834
5,0.997222232726705,-0.258333331110899,0.158333334323963,0.0742201283574104,-0.0525344125926495,0.021685715764761
5,0.994444448960196,-0.258333331110899,0.161111118090472,0.0543670058250427,-0.0500909499824047,0.0186313893646002
5,0.994444448960196,-0.258333331110899,0.16527778158427,0.0357356183230877,-0.0482583530247212,0.015577063895762
5,0.98888888142718,-0.252777787889811,0.156944454596674,0.0226020142436027,-0.0546724386513233,0.0207694191485643
5,0.986111194908388,-0.25555557165632,0.151388899219622,0.0131336031481624,-0.0513126812875271,0.0232128798961639
5,0.991666665193688,-0.263888898643915,0.161111118090472,0.0189368221908808,-0.0467311926186085,0.0241291765123606
5,0.99583334084345,-0.262500006760661,0.150000007336368,0.00977384392172098,-0.0534507073462009,0.0229074470698834
5,0.993055557076942,-0.268055574293678,0.14722222356986,0.00977384392172098,-0.0604756586253643,0.02382374368608
5,0.994444448960196,-0.272222225631511,0.143055560076062,0.0128281703218818,-0.0439822971820831,0.0131336031481624
5,0.99583334084345,-0.269444466176932,0.14722222356986,0.0161879286170006,-0.0415388382971287,0.0134390350431204
5,0.993055557076942,-0.259722222994153,0.144444451959316,0.0045814891345799,-0.0256563406437635,-0.00122173049021512
5,0.991666665193688,-0.262500006760661,0.138888896582264,-0.00733038317412138,-0.0241291765123606,-0.00763581553474069
5,0.993055557076942,-0.261111114877407,0.144444451959316,-0.0204639863222837,-0.0183259565383196,-0.00946841109544039
5,0.994444448960196,-0.265277790527169,0.144444451959316,-0.0287106670439243,-0.0152716310694814,-0.00916297826915979
5,0.998611124609959,-0.263888898643915,0.154166670830166,-0.0357356183230877,0.000610865245107561,-0.00580321997404099
5,0.998611124609959,-0.263888898643915,0.154166670830166,-0.0458148941397667,-0.00305432616733015,-0.011606439948082
5,0.99583334084345,-0.263888898643915,0.13750000469901,-0.0464257597923279,0.00549778714776039,-0.0146607663482428
5,0.99583334084345,-0.263888898643915,0.13750000469901,-0.0561996027827263,0.01191187184304,-0.0183259565383196
5,0.98888888142718,-0.265277790527169,0.126388893944906,-0.0592539273202419,0.0033597587607801,-0.0125227374956012
5,0.993055557076942,-0.268055574293678,0.13750000469901,-0.0525344125926495,0.0106901414692402,-0.0045814891345799
5,0.99583334084345,-0.275000009398019,0.14722222356986,-0.0577267669141293,0.00183259579353034,-0.013744467869401
5,0.99583334084345,-0.283333336385615,0.13750000469901,-0.0409279726445675,0.015577063895762,-0.019547687843442
5,0.99583334084345,-0.280555576931036,0.13750000469901,-0.0360410511493683,0.00977384392172098,-0.0226020142436027
5,0.98888888142718,-0.281944444502361,0.12916666555545,-0.0345138870179653,0.00152716308366507,-0.0128281703218818
5,0.99583334084345,-0.279166685047782,0.12777778582816,-0.0134390350431204,-0.000916297896765172,-0.0128281703218818
5,0.993055557076942,-0.279166685047782,0.12777778582816,-0.0109955742955208,-0.00855211354792118,-0.00763581553474069
5,0.991666665193688,-0.272222225631511,0.140277788465518,-0.00977384392172098,-0.00641408516094089,-0.00641408516094089
5,0.994444448960196,-0.269444466176932,0.134722233088466,-0.013744467869401,0.00305432616733015,0.00397062394768
5,0.99583334084345,-0.268055574293678,0.13750000469901,-0.0103847095742822,0.00488692196086049,0.00122173049021512
5,0.994444448960196,-0.262500006760661,0.134722233088466,-0.00580321997404099,0.00244346098043024,-0.00763581553474069
5,0.994444448960196,-0.263888898643915,0.12916666555545,-0.015577063895762,0.00519235478714108,-0.00641408516094089
5,0.997222232726705,-0.265277790527169,0.13750000469901,-0.0167987942695618,0.00763581553474069,-0.00946841109544039
5,0.99583334084345,-0.265277790527169,0.134722233088466,-0.00763581553474069,0.00397062394768,0.00122173049021512
5,0.993055557076942,-0.269444466176932,0.122222230451108,0.0027488935738802,-0.000610865245107561,0.0021380283869803
5,0.993055557076942,-0.266666682410424,0.134722233088466,-0.00610865233466029,-0.00366519158706069,0.000916297896765172
5,1.00000001649321,-0.265277790527169,0.131944449321958,-0.000610865245107561,-0.00794124789535999,-0.00671951752156019
5,0.99583334084345,-0.265277790527169,0.12777778582816,-0.0027488935738802,0.000610865245107561,0.0027488935738802
5,0.997222232726705,-0.263888898643915,0.12777778582816,-0.00397062394768,0.00855211354792118,-0.0210748501121998
5,1.00277780025972,-0.262500006760661,0.1194444466846,-0.0131336031481624,0.0219911485910416,-0.00763581553474069
5,0.99583334084345,-0.266666682410424,0.125000002061652,-0.019547687843442,0.0183259565383196,-0.017409659922123
5,0.993055557076942,-0.270833333748257,0.126388893944906,-0.0222965814173222,0.00824668072164059,-0.0219911485910416
5,0.993055557076942,-0.265277790527169,0.13750000469901,-0.0213802829384804,-0.00671951752156019,-0.000305432622553781
5,0.98888888142718,-0.265277790527169,0.140277788465518,-0.0113010071218014,-0.0219911485910416,0.00794124789535999
5,0.99583334084345,-0.263888898643915,0.136111112815755,-0.00763581553474069,-0.0302378293126821,0.0177150927484035
5,0.993055557076942,-0.265277790527169,0.122222230451108,0.00397062394768,-0.0311541277915239,0.0244346093386412
5,0.993055557076942,-0.268055574293678,0.120833338567854,-0.00244346098043024,-0.0183259565383196,0.0201585534960032
5,0.993055557076942,-0.268055574293678,0.120833338567854,-0.00580321997404099,-0.0146607663482428,0.0103847095742822
5,1.00416669214298,-0.268055574293678,0.120833338567854,-0.00733038317412138,-0.00305432616733015,-0.0021380283869803
5,1.00000001649321,-0.270833333748257,0.120833338567854,-0.00733038317412138,0.00519235478714108,-0.00855211354792118
5,0.99583334084345,-0.269444466176932,0.131944449321958,-0.00824668072164059,0.01191187184304,-0.011606439948082
5,0.99583334084345,-0.265277790527169,0.118055554801345,-0.0167987942695618,0.00488692196086049,-0.00427605677396059
5,0.993055557076942,-0.265277790527169,0.131944449321958,-0.0186313893646002,-0.000916297896765172,-0.000610865245107561
5,0.991666665193688,-0.270833333748257,0.130555557438704,-0.0143553335219622,-0.0103847095742822,0.00733038317412138
5,0.991666665193688,-0.270833333748257,0.130555557438704,-0.013744467869401,-0.0149661982432008,0.02382374368608
5,0.993055557076942,-0.275000009398019,0.134722233088466,-0.00946841109544039,-0.00824668072164059,0.02382374368608
5,0.98888888142718,-0.272222225631511,0.136111112815755,-0.0045814891345799,-0.0161879286170006,0.00763581553474069
5,0.98888888142718,-0.272222225631511,0.136111112815755,0.0100792767480016,-0.013744467869401,0.0177150927484035
5,0.993055557076942,-0.270833333748257,0.138888896582264,0.0198531206697226,-0.0259617734700441,0.0125227374956012
5,0.993055557076942,-0.270833333748257,0.138888896582264,0.0210748501121998,-0.021685715764761,0.0201585534960032
5,0.99583334084345,-0.269444466176932,0.133333341205212,0.0167987942695618,-0.0204639863222837,0.0207694191485643
5,1.00277780025972,-0.270833333748257,0.123611110178398,0.00885754637420177,-0.00733038317412138,0.0189368221908808
5,1.00000001649321,-0.268055574293678,0.126388893944906,0.0131336031481624,-0.00855211354792118,0.0125227374956012
5,0.993055557076942,-0.269444466176932,0.1194444466846,0.015577063895762,-0.00183259579353034,-0.00183259579353034
5,0.993055557076942,-0.273611117514765,0.130555557438704,0.0152716310694814,-0.00641408516094089,0.00671951752156019
5,0.993055557076942,-0.275000009398019,0.130555557438704,0.0207694191485643,-0.000916297896765172,0.0146607663482428
5,0.994444448960196,-0.276388901281273,0.136111112815755,0.0268780700862408,0.00244346098043024,0.0128281703218818
5,0.98888888142718,-0.276388901281273,0.134722233088466,0.0363464802503586,0.00305432616733015,0.01191187184304
5,0.98888888142718,-0.276388901281273,0.134722233088466,0.0226020142436027,0.00580321997404099,0.0103847095742822
5,0.994444448960196,-0.273611117514765,0.140277788465518,0.0342084541916847,0.00244346098043024,0.0177150927484035
5,0.993055557076942,-0.275000009398019,0.131944449321958,0.0280998013913631,-0.0027488935738802,0.0198531206697226
5,0.98888888142718,-0.276388901281273,0.123611110178398,0.0106901414692402,-0.00519235478714108,0.00763581553474069
5,0.994444448960196,-0.281944444502361,0.141666668192807,0.0219911485910416,0.00855211354792118,-0.00488692196086049
5,0.98888888142718,-0.284722228268869,0.131944449321958,0.0271835029125214,0.0259617734700441,-0.00427605677396059
5,0.98888888142718,-0.265277790527169,0.14722222356986,0.0265726372599602,0.0198531206697226,0.0204639863222837
5,1.00000001649321,-0.262500006760661,0.154166670830166,0.0287106670439243,-0.000610865245107561,0.03176499158144
5,1.00000001649321,-0.25555557165632,0.156944454596674,0.0210748501121998,-0.01191187184304,0.0354301854968071
5,0.99583334084345,-0.269444466176932,0.134722233088466,0.0149661982432008,-0.000305432622553781,0.0354301854968071
5,0.993055557076942,-0.284722228268869,0.122222230451108,0.0152716310694814,0.0161879286170006,0.0109955742955208
5,0.994444448960196,-0.297222230906227,0.105555564319952,0.0372627787292004,0.0470366254448891,-0.0161879286170006
5,0.99583334084345,-0.288888903918631,0.111111119697004,0.0412334054708481,0.0879645943641663,-0.0326812900602817
5,0.991666665193688,-0.272222225631511,0.14722222356986,0.029626963660121,0.0580321997404099,-0.0232128798961639
5,0.98888888142718,-0.258333331110899,0.156944454596674,0.0109955742955208,0.0277943685650826,0.0122173046693206
5,0.98888888142718,-0.259722222994153,0.158333334323963,0.0027488935738802,-0.0131336031481624,0.0384845100343227
5,0.984722303025134,-0.263888898643915,0.150000007336368,0.000305432622553781,-0.0290160998702049,0.0421497002243996
5,0.987499989543926,-0.269444466176932,0.130555557438704,0.021685715764761,-0.0244346093386412,0.0381790772080422
5,0.998611124609959,-0.276388901281273,0.130555557438704,0.0284052342176437,-0.000916297896765172,0.0293215326964855
5,0.99583334084345,-0.286111120152123,0.120833338567854,0.0345138870179653,0.0222965814173222,0.00824668072164059
5,0.998611124609959,-0.281944444502361,0.120833338567854,0.0284052342176437,0.0241291765123606,-0.00702495034784079
5,0.997222232726705,-0.281944444502361,0.122222230451108,0.017409659922123,0.0357356183230877,-0.0198531206697226
5,0.990277773310434,-0.276388901281273,0.13750000469901,0.00641408516094089,0.0299323964864016,-0.00366519158706069
5,0.993055557076942,-0.272222225631511,0.13750000469901,0.00519235478714108,0.00641408516094089,0.0177150927484035
5,0.987499989543926,-0.269444466176932,0.144444451959316,0.01588249579072,-0.01588249579072,0.0207694191485643
5,0.987499989543926,-0.269444466176932,0.144444451959316,0.0152716310694814,-0.0213802829384804,0.0378736443817616
5,0.987499989543926,-0.290277795801886,0.134722233088466,0.0213802829384804,-0.021685715764761,0.0406225398182869
5,0.987499989543926,-0.290277795801886,0.134722233088466,0.0503963828086853,-0.011606439948082,0.0326812900602817
5,0.993055557076942,-0.29166668768514,0.130555557438704,0.0626136884093285,-0.015577063895762,0.01588249579072
5,0.98888888142718,-0.281944444502361,0.125000002061652,0.0675006061792374,-0.0113010071218014,0.00763581553474069
5,0.98888888142718,-0.276388901281273,0.13750000469901,0.064446285367012,-0.00488692196086049,0.01588249579072
5,0.994444448960196,-0.279166685047782,0.144444451959316,0.0635299831628799,-0.0164933614432812,0.0109955742955208
5,0.994444448960196,-0.277777793164528,0.140277788465518,0.0699440687894821,-0.0198531206697226,0.01191187184304
5,0.98888888142718,-0.272222225631511,0.144444451959316,0.0668897479772568,-0.0183259565383196,0.0189368221908808
5,0.987499989543926,-0.273611117514765,0.143055560076062,0.0629191175103188,-0.0259617734700441,0.0152716310694814
5,0.990277773310434,-0.272222225631511,0.141666668192807,0.0534507073462009,-0.0244346093386412,0.0284052342176437
5,0.993055557076942,-0.276388901281273,0.134722233088466,0.0561996027827263,-0.0250454749912024,0.021685715764761
5,0.993055557076942,-0.275000009398019,0.13750000469901,0.0500909499824047,-0.0244346093386412,0.0293215326964855
5,0.98888888142718,-0.270833333748257,0.136111112815755,0.0613919571042061,-0.0290160998702049,0.0326812900602817
5,0.993055557076942,-0.272222225631511,0.134722233088466,0.0607810914516449,-0.0372627787292004,0.0339030213654041
5,0.98888888142718,-0.276388901281273,0.140277788465518,0.0693332031369209,-0.0378736443817616,0.0412334054708481
5,0.98888888142718,-0.273611117514765,0.144444451959316,0.064446285367012,-0.0488692186772823,0.0497855171561241
5,0.994444448960196,-0.277777793164528,0.14722222356986,0.0705549344420433,-0.0458148941397667,0.0439822971820831
5,0.997222232726705,-0.272222225631511,0.141666668192807,0.0784961804747581,-0.0403171069920063,0.0357356183230877
5,0.998611124609959,-0.275000009398019,0.14583334384257,0.0772744566202164,-0.0320704244077206,0.0253509078174829
5,0.990277773310434,-0.272222225631511,0.140277788465518,0.0797179117798805,-0.0280998013913631,0.0372627787292004
5,0.991666665193688,-0.275000009398019,0.150000007336368,0.0763581544160843,-0.0256563406437635,0.0192422550171614
5,0.98888888142718,-0.270833333748257,0.134722233088466,0.0739146918058395,-0.0259617734700441,0.0280998013913631
5,0.994444448960196,-0.272222225631511,0.150000007336368,0.0653625801205635,-0.01588249579072,0.019547687843442
5,0.993055557076942,-0.265277790527169,0.154166670830166,0.0507018156349659,-0.00977384392172098,0.00305432616733015
5,0.993055557076942,-0.268055574293678,0.14722222356986,0.0381790772080422,-0.0149661982432008,0.00305432616733015
5,0.990277773310434,-0.269444466176932,0.144444451959316,0.0302378293126821,-0.0122173046693206,-0.00152716308366507
5,0.993055557076942,-0.276388901281273,0.130555557438704,0.0189368221908808,-0.00122173049021512,0.00549778714776039
5,0.993055557076942,-0.281944444502361,0.131944449321958,0.01588249579072,0.000916297896765172,0.0106901414692402
5,0.986111194908388,-0.279166685047782,0.136111112815755,0.021685715764761,-0.00794124789535999,0.00702495034784079
5,0.991666665193688,-0.281944444502361,0.136111112815755,0.0201585534960032,-0.00733038317412138,0.00244346098043024
5,0.987499989543926,-0.279166685047782,0.136111112815755,0.0143553335219622,0.00244346098043024,0.00977384392172098
5,0.993055557076942,-0.275000009398019,0.130555557438704,0.00885754637420177,0.000610865245107561,0.00916297826915979
5,0.993055557076942,-0.277777793164528,0.133333341205212,-0.000305432622553781,0.00244346098043024,0.0171042270958424
5,0.993055557076942,-0.281944444502361,0.126388893944906,-0.0128281703218818,0.0033597587607801,0.0100792767480016
5,0.991666665193688,-0.283333336385615,0.125000002061652,-0.0149661982432008,0.0021380283869803,0.00305432616733015
5,0.99583334084345,-0.286111120152123,0.125000002061652,-0.0186313893646002,0.0143553335219622,0.0021380283869803
5,0.993055557076942,-0.288888903918631,0.123611110178398,-0.0143553335219622,0.011606439948082,0.000305432622553781
5,0.991666665193688,-0.283333336385615,0.120833338567854,-0.00549778714776039,0.00885754637420177,0.0027488935738802
5,0.986111194908388,-0.279166685047782,0.12916666555545,-0.0134390350431204,0.00305432616733015,0.0122173046693206
5,0.98888888142718,-0.279166685047782,0.12916666555545,-0.01191187184304,-0.00885754637420177,0.0186313893646002
5,0.991666665193688,-0.281944444502361,0.133333341205212,-0.00122173049021512,-0.0171042270958424,0.0189368221908808
5,0.987499989543926,-0.279166685047782,0.136111112815755,0.00305432616733015,-0.0201585534960032,0.0290160998702049
5,0.98888888142718,-0.277777793164528,0.138888896582264,0.00702495034784079,-0.0293215326964855,0.0284052342176437
5,0.993055557076942,-0.286111120152123,0.134722233088466,0.00641408516094089,-0.0268780700862408,0.0299323964864016
5,0.993055557076942,-0.288888903918631,0.130555557438704,0.0180205255746841,-0.019547687843442,0.0229074470698834
5,0.994444448960196,-0.288888903918631,0.133333341205212,0.0183259565383196,-0.0241291765123606,0.0207694191485643
5,0.98888888142718,-0.281944444502361,0.134722233088466,0.0125227374956012,-0.0213802829384804,0.0186313893646002
5,0.993055557076942,-0.280555576931036,0.130555557438704,0.01191187184304,-0.0146607663482428,0.0100792767480016
5,0.98888888142718,-0.286111120152123,0.131944449321958,0.00702495034784079,-0.0167987942695618,0.013744467869401
5,0.98888888142718,-0.281944444502361,0.134722233088466,0.00977384392172098,-0.015577063895762,0.011606439948082
5,0.993055557076942,-0.284722228268869,0.138888896582264,0.00671951752156019,-0.0256563406437635,0.0210748501121998
5,0.987499989543926,-0.279166685047782,0.138888896582264,-0.00152716308366507,-0.0268780700862408,0.0204639863222837
5,0.983333411141879,-0.281944444502361,0.13750000469901,0.00427605677396059,-0.0345138870179653,0.0247400421649218
5,0.993055557076942,-0.287500012035377,0.125000002061652,0.00733038317412138,-0.0232128798961639,0.0189368221908808
5,0.997222232726705,-0.29166668768514,0.141666668192807,0.0177150927484035,-0.01191187184304,0.0219911485910416
5,0.997222232726705,-0.295833339022973,0.130555557438704,0.0161879286170006,-0.0213802829384804,0.01588249579072
5,0.990277773310434,-0.294444447139719,0.130555557438704,0.00794124789535999,-0.00488692196086049,0.011606439948082
5,0.991666665193688,-0.284722228268869,0.126388893944906,0.00152716308366507,-0.00855211354792118,0.0171042270958424
5,0.99583334084345,-0.284722228268869,0.12777778582816,0.0045814891345799,-0.00855211354792118,0.0167987942695618
5,1.00000001649321,-0.284722228268869,0.131944449321958,-0.00152716308366507,-0.00580321997404099,0.0192422550171614
5,1.00000001649321,-0.286111120152123,0.13750000469901,-0.00733038317412138,-0.00763581553474069,0.0189368221908808
5,0.99583334084345,-0.287500012035377,0.131944449321958,-0.0201585534960032,-0.00244346098043024,0.0192422550171614
5,0.993055557076942,-0.281944444502361,0.133333341205212,-0.0213802829384804,0.0021380283869803,0.017409659922123
5,0.991666665193688,-0.280555576931036,0.138888896582264,-0.0287106670439243,-0.00488692196086049,0.0256563406437635
5,0.986111194908388,-0.295833339022973,0.125000002061652,-0.0167987942695618,-0.0146607663482428,0.0287106670439243
5,0.986111194908388,-0.298611122789481,0.1194444466846,-0.0122173046693206,-0.0213802829384804,0.03176499158144
5,0.98888888142718,-0.300000014672736,0.118055554801345,-0.0128281703218818,-0.021685715764761,0.0290160998702049
5,0.98888888142718,-0.297222230906227,0.118055554801345,-0.00794124789535999,-0.0171042270958424,0.0186313893646002
5,0.98888888142718,-0.294444447139719,0.118055554801345,-0.00733038317412138,-0.0027488935738802,0.0113010071218014
5,0.991666665193688,-0.290277795801886,0.115277783190802,0.000610865245107561,0.0021380283869803,0.00488692196086049
5,0.990277773310434,-0.283333336385615,0.130555557438704,-0.00397062394768,0.00641408516094089,-0.000305432622553781
5,0.991666665193688,-0.283333336385615,0.130555557438704,-0.0213802829384804,0.0128281703218818,-0.0109955742955208
5,0.987499989543926,-0.281944444502361,0.1194444466846,-0.0262672062963247,0.00763581553474069,-0.0125227374956012
5,0.984722303025134,-0.288888903918631,0.112499999424294,-0.0268780700862408,-0.00549778714776039,-0.00733038317412138
5,0.986111194908388,-0.288888903918631,0.12916666555545,-0.017409659922123,-0.0033597587607801,-0.0033597587607801
5,0.990277773310434,-0.295833339022973,0.12777778582816,-0.00794124789535999,-0.0125227374956012,-0.000610865245107561
5,0.98888888142718,-0.293055555256465,0.123611110178398,-0.000305432622553781,-0.0177150927484035,-0.00641408516094089
5,0.997222232726705,-0.288888903918631,0.125000002061652,-0.011606439948082,-0.00610865233466029,-0.00733038317412138
5,0.993055557076942,-0.290277795801886,0.133333341205212,-0.0232128798961639,0.00122173049021512,-0.00794124789535999
5,0.991666665193688,-0.29166668768514,0.123611110178398,-0.0345138870179653,0.00152716308366507,-0.019547687843442
5,0.987499989543926,-0.287500012035377,0.12777778582816,-0.0409279726445675,0.0045814891345799,-0.011606439948082
5,0.986111194908388,-0.290277795801886,0.12777778582816,-0.0424551330506802,-0.00244346098043024,-0.00183259579353034
5,0.986111194908388,-0.29166668768514,0.131944449321958,-0.0384845100343227,0.000305432622553781,-0.00794124789535999
5,0.990277773310434,-0.29166668768514,0.136111112815755,-0.0332921557128429,0.00519235478714108,-0.00183259579353034
5,0.98888888142718,-0.29166668768514,0.130555557438704,-0.0222965814173222,0.0109955742955208,-0.00488692196086049
5,0.993055557076942,-0.293055555256465,0.126388893944906,-0.02382374368608,0.00671951752156019,-0.00366519158706069
5,0.990277773310434,-0.293055555256465,0.133333341205212,-0.0189368221908808,0.00549778714776039,0.00366519158706069
5,0.987499989543926,-0.294444447139719,0.125000002061652,-0.0134390350431204,0.0106901414692402,-0.00122173049021512
5,0.986111194908388,-0.295833339022973,0.131944449321958,-0.00610865233466029,-0.000610865245107561,0.0021380283869803
5,0.991666665193688,-0.288888903918631,0.138888896582264,-0.000305432622553781,-0.0106901414692402,0.000305432622553781
5,0.991666665193688,-0.288888903918631,0.138888896582264,0.00702495034784079,-0.00122173049021512,0.00641408516094089
5,0.984722303025134,-0.283333336385615,0.12916666555545,-0.000610865245107561,-0.0045814891345799,0.00397062394768
5,0.98888888142718,-0.277777793164528,0.120833338567854,-0.0177150927484035,-0.000305432622553781,-0.00152716308366507
5,0.98888888142718,-0.277777793164528,0.120833338567854,-0.0146607663482428,-0.00305432616733015,0.0100792767480016
5,0.984722303025134,-0.281944444502361,0.13750000469901,-0.0186313893646002,0.000916297896765172,0.00397062394768
5,0.993055557076942,-0.283333336385615,0.136111112815755,-0.0131336031481624,-0.00305432616733015,-0.0045814891345799
5,0.993055557076942,-0.283333336385615,0.136111112815755,-0.017409659922123,-0.000610865245107561,-0.00855211354792118
5,0.991666665193688,-0.29166668768514,0.12777778582816,-0.0103847095742822,0.00519235478714108,0.00885754637420177
5,0.994444448960196,-0.29166668768514,0.12777778582816,-0.0027488935738802,0.00152716308366507,0.00916297826915979
5,0.994444448960196,-0.29166668768514,0.12777778582816,0.0033597587607801,0.0027488935738802,-0.00122173049021512
5,0.986111194908388,-0.293055555256465,0.126388893944906,0.00549778714776039,-0.000305432622553781,-0.00488692196086049
5,0.983333411141879,-0.288888903918631,0.131944449321958,0.000305432622553781,-0.00946841109544039,0.00152716308366507
5,0.98888888142718,-0.29166668768514,0.12777778582816,0.0149661982432008,-0.0167987942695618,0.0106901414692402
5,0.991666665193688,-0.288888903918631,0.125000002061652,0.00702495034784079,-0.00946841109544039,0.011606439948082
5,0.991666665193688,-0.284722228268869,0.123611110178398,0.00366519158706069,-0.0103847095742822,0.00641408516094089
5,0.99583334084345,-0.286111120152123,0.12777778582816,0.00610865233466029,0.00122173049021512,0.00244346098043024
5,0.994444448960196,-0.290277795801886,0.126388893944906,0.0134390350431204,0.000916297896765172,0.00549778714776039
5,0.98888888142718,-0.288888903918631,0.118055554801345,0.0131336031481624,-0.00183259579353034,-0.0021380283869803
5,0.98888888142718,-0.288888903918631,0.1194444466846,0.01191187184304,0.00183259579353034,-0.00366519158706069
5,0.990277773310434,-0.288888903918631,0.123611110178398,0.00916297826915979,0.00427605677396059,-0.00366519158706069
5,0.991666665193688,-0.287500012035377,0.108333335930496,0.00733038317412138,-0.0027488935738802,-0.00366519158706069
5,0.990277773310434,-0.288888903918631,0.113888891307548,0.00824668072164059,-0.0109955742955208,0.00152716308366507
5,0.994444448960196,-0.293055555256465,0.111111119697004,0.00580321997404099,-0.00855211354792118,0.0100792767480016
5,0.98888888142718,-0.286111120152123,0.113888891307548,0.00488692196086049,-0.0143553335219622,0.0213802829384804
5,0.98888888142718,-0.281944444502361,0.123611110178398,-0.00183259579353034,-0.0277943685650826,0.0329867228865623
5,0.986111194908388,-0.284722228268869,0.134722233088466,-0.00671951752156019,-0.0439822971820831,0.0455094613134861
5,0.983333411141879,-0.284722228268869,0.126388893944906,-0.00244346098043024,-0.0598647929728031,0.0522289797663689
5,0.987499989543926,-0.288888903918631,0.125000002061652,0.00733038317412138,-0.0568104684352875,0.058643065392971
5,0.987499989543926,-0.283333336385615,0.130555557438704,-0.00580321997404099,-0.0580321997404099,0.0503963828086853
5,0.99583334084345,-0.279166685047782,0.133333341205212,-0.00794124789535999,-0.0455094613134861,0.0369573459029198
5,0.993055557076942,-0.281944444502361,0.12916666555545,-0.0122173046693206,-0.0320704244077206,0.0351247526705265
5,0.99583334084345,-0.286111120152123,0.126388893944906,-0.01588249579072,-0.0131336031481624,0.0247400421649218
5,0.997222232726705,-0.288888903918631,0.113888891307548,-0.0167987942695618,-0.00152716308366507,0.0021380283869803
5,1.00000001649321,-0.290277795801886,0.12777778582816,-0.0290160998702049,0.00946841109544039,-0.0109955742955208
5,0.99583334084345,-0.287500012035377,0.115277783190802,-0.0293215326964855,0.0152716310694814,-0.0106901414692402
5,0.991666665193688,-0.288888903918631,0.122222230451108,-0.0271835029125214,0.0229074470698834,-0.00733038317412138
5,0.993055557076942,-0.298611122789481,0.123611110178398,-0.0363464802503586,0.0247400421649218,-0.0177150927484035
5,0.98888888142718,-0.298611122789481,0.111111119697004,-0.0320704244077206,0.0113010071218014,-0.01588249579072
5,0.98888888142718,-0.301388906555989,0.10972222781375,-0.02382374368608,0.00183259579353034,-0.015577063895762
5,0.98888888142718,-0.311111125426839,0.10972222781375,-0.0131336031481624,0.00549778714776039,-0.000916297896765172
5,0.990277773310434,-0.306944449777077,0.111111119697004,-0.00763581553474069,-0.00397062394768,-0.000916297896765172
5,0.986111194908388,-0.305555557893823,0.113888891307548,0.00794124789535999,-0.00946841109544039,0.00824668072164059
5,0.986111194908388,-0.305555557893823,0.113888891307548,0.00824668072164059,-0.00977384392172098,0.00733038317412138
5,0.98888888142718,-0.301388906555989,0.106944444047242,0.00916297826915979,-0.0171042270958424,0.00488692196086049
5,0.986111194908388,-0.297222230906227,0.10972222781375,0.0128281703218818,-0.0143553335219622,0.00763581553474069
5,0.986111194908388,-0.297222230906227,0.10972222781375,0.01588249579072,-0.00305432616733015,0.0033597587607801
5,0.993055557076942,-0.298611122789481,0.10972222781375,0.015577063895762,-0.00122173049021512,-0.00427605677396059
5,0.986111194908388,-0.29166668768514,0.115277783190802,0.0103847095742822,0.00702495034784079,-0.00671951752156019
5,0.986111194908388,-0.29166668768514,0.115277783190802,0.00610865233466029,-0.0033597587607801,0.0033597587607801
5,0.986111194908388,-0.295833339022973,0.113888891307548,0.00855211354792118,0.00366519158706069,0.000610865245107561
5,0.98888888142718,-0.293055555256465,0.113888891307548,0.00733038317412138,-0.00519235478714108,0.0021380283869803
5,0.99583334084345,-0.298611122789481,0.111111119697004,0.00855211354792118,0.0109955742955208,-0.0027488935738802
5,0.98888888142718,-0.298611122789481,0.116666675074056,0.0045814891345799,0.00580321997404099,-0.00488692196086049
5,0.993055557076942,-0.290277795801886,0.108333335930496,0.0033597587607801,0.00733038317412138,-0.011606439948082
5,0.993055557076942,-0.294444447139719,0.113888891307548,-0.00305432616733015,0.00794124789535999,-0.0277943685650826
5,0.993055557076942,-0.295833339022973,0.111111119697004,-0.00824668072164059,0.00549778714776039,-0.0171042270958424
5,0.990277773310434,-0.29166668768514,0.113888891307548,-0.0140499006956816,0.0122173046693206,-0.00794124789535999
5,0.994444448960196,-0.287500012035377,0.126388893944906,-0.0152716310694814,0.00885754637420177,0.00580321997404099
5,0.990277773310434,-0.286111120152123,0.12777778582816,-0.0314595587551594,0.00916297826915979,-0.0122173046693206
5,0.986111194908388,-0.288888903918631,0.1194444466846,-0.0177150927484035,0.000916297896765172,0.000305432622553781
5,0.98888888142718,-0.301388906555989,0.126388893944906,-0.00671951752156019,0.00244346098043024,-0.00641408516094089
5,0.990277773310434,-0.302777798439244,0.118055554801345,0.00763581553474069,0.000305432622553781,-0.00305432616733015
5,0.994444448960196,-0.302777798439244,0.112499999424294,0.0192422550171614,0.00305432616733015,-0.00977384392172098
5,0.993055557076942,-0.290277795801886,0.126388893944906,0.0143553335219622,0.015577063895762,-0.0128281703218818
5,0.991666665193688,-0.287500012035377,0.120833338567854,0.00305432616733015,0.0134390350431204,-0.0113010071218014
5,0.994444448960196,-0.286111120152123,0.108333335930496,0.0033597587607801,0.0100792767480016,-0.00885754637420177
5,0.98888888142718,-0.287500012035377,0.116666675074056,0.0134390350431204,0.00977384392172098,-0.01191187184304
5,0.98888888142718,-0.286111120152123,0.120833338567854,-0.0027488935738802,0.0192422550171614,-0.0171042270958424
5,0.98888888142718,-0.287500012035377,0.125000002061652,0.00946841109544039,0.0152716310694814,-0.00916297826915979
5,0.993055557076942,-0.288888903918631,0.1194444466846,0.00641408516094089,0.00427605677396059,-0.00977384392172098
5,0.991666665193688,-0.29166668768514,0.113888891307548,0.0140499006956816,0.0103847095742822,-0.013744467869401
5,0.986111194908388,-0.29166668768514,0.113888891307548,0.01191187184304,0.0146607663482428,-0.0131336031481624
5,0.984722303025134,-0.294444447139719,0.113888891307548,0.0164933614432812,0.00885754637420177,-0.0149661982432008
5,0.993055557076942,-0.301388906555989,0.101388894748172,0.0219911485910416,0.00244346098043024,-0.0167987942695618
5,0.983333411141879,-0.290277795801886,0.113888891307548,0.0192422550171614,-0.00641408516094089,-0.0033597587607801
5,0.984722303025134,-0.279166685047782,0.125000002061652,0.0201585534960032,-0.0103847095742822,0.01588249579072
5,0.98888888142718,-0.279166685047782,0.12777778582816,0.013744467869401,-0.0335975885391235,0.0455094613134861
5,0.994444448960196,-0.281944444502361,0.12777778582816,0.0256563406437635,-0.0470366254448891,0.0497855171561241
5,0.998611124609959,-0.288888903918631,0.131944449321958,0.0320704244077206,-0.0415388382971287,0.0439822971820831
5,0.993055557076942,-0.290277795801886,0.125000002061652,0.0305432621389627,-0.021685715764761,0.0265726372599602
5,0.993055557076942,-0.286111120152123,0.113888891307548,0.0284052342176437,-0.00824668072164059,0.00794124789535999
5,0.99583334084345,-0.288888903918631,0.1194444466846,0.0311541277915239,0.013744467869401,-0.00305432616733015
5,0.997222232726705,-0.29166668768514,0.12777778582816,0.03176499158144,0.019547687843442,-0.0131336031481624
5,0.99583334084345,-0.290277795801886,0.130555557438704,0.0348193198442459,0.021685715764761,-0.0131336031481624
5,0.990277773310434,-0.287500012035377,0.125000002061652,0.0357356183230877,0.0244346093386412,-0.0177150927484035
5,0.987499989543926,-0.286111120152123,0.120833338567854,0.0287106670439243,0.0262672062963247,-0.00916297826915979
5,0.990277773310434,-0.288888903918631,0.123611110178398,0.0128281703218818,0.0161879286170006,0.0027488935738802
5,0.98888888142718,-0.288888903918631,0.122222230451108,0.00610865233466029,0.0146607663482428,0.00946841109544039
5,0.98888888142718,-0.288888903918631,0.122222230451108,0.00885754637420177,0.00427605677396059,0.00519235478714108
5,0.994444448960196,-0.288888903918631,0.113888891307548,0.0128281703218818,0.00366519158706069,0.0161879286170006
5,0.990277773310434,-0.288888903918631,0.115277783190802,0.00244346098043024,0.00152716308366507,0.0186313893646002
5,0.990277773310434,-0.288888903918631,0.115277783190802,0.0134390350431204,-0.00794124789535999,0.0219911485910416
5,0.993055557076942,-0.290277795801886,0.111111119697004,0.0109955742955208,0.00122173049021512,0.0140499006956816
5,0.994444448960196,-0.29166668768514,0.118055554801345,0.0021380283869803,0.01191187184304,0.01191187184304
5,0.99583334084345,-0.284722228268869,0.126388893944906,-0.00916297826915979,-0.0021380283869803,0.0171042270958424
5,0.991666665193688,-0.275000009398019,0.131944449321958,-0.0235183127224445,-0.0100792767480016,0.0134390350431204
5,0.98888888142718,-0.281944444502361,0.130555557438704,-0.0366519130766392,-0.01191187184304,0.0250454749912024
5,0.99583334084345,-0.279166685047782,0.134722233088466,-0.0244346093386412,-0.0189368221908808,0.0207694191485643
5,0.993055557076942,-0.286111120152123,0.12777778582816,-0.03176499158144,-0.00916297826915979,0.0143553335219622
5,0.990277773310434,-0.286111120152123,0.120833338567854,-0.0366519130766392,-0.00549778714776039,0.00488692196086049
5,0.991666665193688,-0.288888903918631,0.120833338567854,-0.0253509078174829,0.00397062394768,0.00488692196086049
5,0.99583334084345,-0.295833339022973,0.125000002061652,-0.01191187184304,0.00855211354792118,-0.00366519158706069
5,0.990277773310434,-0.294444447139719,0.130555557438704,-0.0033597587607801,0.00152716308366507,-0.00977384392172098
5,0.993055557076942,-0.288888903918631,0.126388893944906,-0.00427605677396059,0.00366519158706069,-0.013744467869401
5,0.98888888142718,-0.288888903918631,0.123611110178398,0.00183259579353034,-0.00427605677396059,-0.00885754637420177
5,0.986111194908388,-0.29166668768514,0.120833338567854,0.00488692196086049,-0.00549778714776039,-0.00122173049021512
5,0.986111194908388,-0.298611122789481,0.113888891307548,0.0033597587607801,0.00183259579353034,-0.00671951752156019
5,0.993055557076942,-0.298611122789481,0.111111119697004,0.01191187184304,0.0140499006956816,0.0021380283869803
5,0.993055557076942,-0.297222230906227,0.113888891307548,0.0106901414692402,0.0265726372599602,-0.00671951752156019
5,0.991666665193688,-0.295833339022973,0.1194444466846,0.0033597587607801,0.0235183127224445,-0.00977384392172098
5,0.993055557076942,-0.301388906555989,0.126388893944906,0.0125227374956012,0.0198531206697226,-0.00824668072164059
5,0.986111194908388,-0.298611122789481,0.120833338567854,0.00671951752156019,0.0109955742955208,-0.0045814891345799
5,0.987499989543926,-0.297222230906227,0.116666675074056,0.0106901414692402,0.011606439948082,-0.00397062394768
5,0.98888888142718,-0.295833339022973,0.113888891307548,0.0186313893646002,0.0161879286170006,0.00488692196086049
5,0.993055557076942,-0.295833339022973,0.131944449321958,0.0143553335219622,0.0140499006956816,0.0143553335219622
5,0.987499989543926,-0.294444447139719,0.120833338567854,0.0204639863222837,0.00946841109544039,0.0109955742955208
5,0.98888888142718,-0.301388906555989,0.113888891307548,0.0128281703218818,0.0106901414692402,0.00488692196086049
5,0.983333411141879,-0.301388906555989,0.113888891307548,0.0183259565383196,0.0143553335219622,0.00397062394768
5,0.98888888142718,-0.294444447139719,0.112499999424294,0.0143553335219622,0.0100792767480016,0.0100792767480016
5,0.987499989543926,-0.290277795801886,0.125000002061652,0.00824668072164059,-0.00183259579353034,0.0177150927484035
5,0.986111194908388,-0.287500012035377,0.131944449321958,0.00519235478714108,-0.0226020142436027,0.0226020142436027
5,0.98888888142718,-0.286111120152123,0.134722233088466,0.0131336031481624,-0.0345138870179653,0.0250454749912024
5,0.98888888142718,-0.286111120152123,0.12777778582816,0.0152716310694814,-0.0464257597923279,0.0387899428606033
5,0.99583334084345,-0.287500012035377,0.133333341205212,0.0213802829384804,-0.0372627787292004,0.027488935738802
5,0.998611124609959,-0.288888903918631,0.133333341205212,0.0198531206697226,-0.0189368221908808,0.0213802829384804
5,1.00000001649321,-0.286111120152123,0.130555557438704,0.00702495034784079,-0.00183259579353034,-0.00305432616733015
5,0.990277773310434,-0.281944444502361,0.12777778582816,0.000916297896765172,-0.00610865233466029,-0.00122173049021512
5,0.987499989543926,-0.283333336385615,0.125000002061652,0.00152716308366507,-0.00580321997404099,-0.00824668072164059
5,0.991666665193688,-0.284722228268869,0.120833338567854,-0.0033597587607801,0.0122173046693206,-0.0232128798961639
5,0.993055557076942,-0.290277795801886,0.1194444466846,-0.00549778714776039,0.017409659922123,-0.0339030213654041
5,0.994444448960196,-0.294444447139719,0.125000002061652,-0.00183259579353034,0.0280998013913631,-0.0397062413394451
5,0.991666665193688,-0.294444447139719,0.10972222781375,0.000916297896765172,0.0183259565383196,-0.0308486949652433
5,0.98888888142718,-0.300000014672736,0.112499999424294,0.00824668072164059,0.00855211354792118,-0.02382374368608
5,0.98888888142718,-0.298611122789481,0.112499999424294,0.0149661982432008,0.00305432616733015,-0.0247400421649218
5,0.98888888142718,-0.301388906555989,0.116666675074056,0.0140499006956816,-0.00549778714776039,-0.027488935738802
5,0.98888888142718,-0.301388906555989,0.113888891307548,0.0140499006956816,-0.0100792767480016,-0.0207694191485643
5,0.98888888142718,-0.298611122789481,0.1194444466846,0.0045814891345799,-0.0113010071218014,-0.00152716308366507
5,0.98888888142718,-0.288888903918631,0.118055554801345,0.00855211354792118,-0.00824668072164059,-0.0106901414692402
5,0.98888888142718,-0.284722228268869,0.125000002061652,0.00733038317412138,-0.0198531206697226,0.015577063895762
5,0.98888888142718,-0.280555576931036,0.12777778582816,-0.00122173049021512,-0.0458148941397667,0.0189368221908808
5,0.991666665193688,-0.281944444502361,0.140277788465518,0.000610865245107561,-0.0442877300083637,0.0421497002243996
5,0.99583334084345,-0.279166685047782,0.141666668192807,0.00855211354792118,-0.0558941699564457,0.0458148941397667
5,0.99583334084345,-0.283333336385615,0.13750000469901,0.00305432616733015,-0.0415388382971287,0.0445931628346443
5,0.99583334084345,-0.288888903918631,0.143055560076062,0.00580321997404099,-0.0265726372599602,0.0360410511493683
5,0.994444448960196,-0.286111120152123,0.134722233088466,0.0103847095742822,-0.015577063895762,0.0250454749912024
5,0.99583334084345,-0.288888903918631,0.118055554801345,0.00641408516094089,-0.000610865245107561,0.00824668072164059
5,0.994444448960196,-0.29166668768514,0.120833338567854,0.00977384392172098,0.0106901414692402,-0.00305432616733015
5,0.990277773310434,-0.295833339022973,0.122222230451108,0.0171042270958424,0.0198531206697226,-0.01191187184304
5,0.991666665193688,-0.295833339022973,0.118055554801345,0.0244346093386412,0.0140499006956816,-0.0131336031481624
5,0.991666665193688,-0.295833339022973,0.118055554801345,0.0161879286170006,0.0229074470698834,-0.0329867228865623
5,0.99583334084345,-0.288888903918631,0.0972222251763917,0.0128281703218818,0.0167987942695618,-0.0311541277915239
5,0.981944519258625,-0.284722228268869,0.113888891307548,0.000305432622553781,0.0201585534960032,-0.0299323964864016
5,0.98888888142718,-0.281944444502361,0.115277783190802,-0.00580321997404099,-0.0021380283869803,-0.0134390350431204
5,0.990277773310434,-0.286111120152123,0.125000002061652,-0.0171042270958424,0.00733038317412138,-0.00702495034784079
5,0.98888888142718,-0.288888903918631,0.122222230451108,-0.0128281703218818,0.00580321997404099,-0.000305432622553781
5,0.98888888142718,-0.288888903918631,0.122222230451108,-0.0146607663482428,0.00702495034784079,0.00641408516094089
5,0.98888888142718,-0.29166668768514,0.1194444466846,0.00152716308366507,0.00610865233466029,0.0021380283869803
5,0.98888888142718,-0.29166668768514,0.1194444466846,0.0045814891345799,0.00152716308366507,0.0213802829384804
5,0.986111194908388,-0.286111120152123,0.123611110178398,0.000916297896765172,-0.000610865245107561,0.00855211354792118
5,0.986111194908388,-0.281944444502361,0.125000002061652,-0.00397062394768,-0.00671951752156019,0.0109955742955208
5,0.986111194908388,-0.281944444502361,0.125000002061652,0.0027488935738802,-0.00824668072164059,0.02382374368608
5,0.991666665193688,-0.288888903918631,0.12777778582816,0.00610865233466029,0.00366519158706069,0.0226020142436027
5,0.99583334084345,-0.287500012035377,0.12777778582816,-0.00824668072164059,-0.000916297896765172,0.013744467869401
5,0.993055557076942,-0.286111120152123,0.118055554801345,-0.00152716308366507,-0.0045814891345799,0.013744467869401
5,0.98888888142718,-0.287500012035377,0.12777778582816,0.00519235478714108,-0.00977384392172098,0.0125227374956012
5,0.994444448960196,-0.286111120152123,0.130555557438704,-0.00183259579353034,0.000610865245107561,0.0033597587607801
5,0.993055557076942,-0.279166685047782,0.126388893944906,-0.0109955742955208,0.00183259579353034,0.00855211354792118
5,0.993055557076942,-0.281944444502361,0.130555557438704,-0.0186313893646002,0.00763581553474069,-0.00610865233466029
5,0.98888888142718,-0.287500012035377,0.120833338567854,-0.0143553335219622,0.00122173049021512,0.0033597587607801
5,0.991666665193688,-0.294444447139719,0.12777778582816,-0.0045814891345799,0.00610865233466029,-0.00122173049021512
5,0.990277773310434,-0.300000014672736,0.120833338567854,0.00916297826915979,0.00305432616733015,0.000305432622553781
5,0.991666665193688,-0.301388906555989,0.116666675074056,0.011606439948082,0.00671951752156019,-0.00244346098043024
5,0.993055557076942,-0.300000014672736,0.125000002061652,0.00885754637420177,0.00794124789535999,0.00397062394768
5,0.98888888142718,-0.298611122789481,0.122222230451108,0.0183259565383196,0.00855211354792118,0.00519235478714108
5,0.993055557076942,-0.295833339022973,0.122222230451108,-0.000610865245107561,0.0192422550171614,-0.00122173049021512
5,0.990277773310434,-0.294444447139719,0.116666675074056,-0.000610865245107561,0.0128281703218818,-0.00885754637420177
5,0.993055557076942,-0.301388906555989,0.0986111170596459,-0.00152716308366507,0.0146607663482428,0.0033597587607801
5,0.991666665193688,-0.298611122789481,0.105555564319952,0.0033597587607801,0.013744467869401,0.00366519158706069
5,0.993055557076942,-0.295833339022973,0.115277783190802,-0.0021380283869803,0.0103847095742822,0.00244346098043024
5,0.99583334084345,-0.29166668768514,0.120833338567854,-0.0045814891345799,0.00244346098043024,0.00946841109544039
5,0.984722303025134,-0.293055555256465,0.1194444466846,-0.00763581553474069,0.00305432616733015,0.0113010071218014
5,0.993055557076942,-0.29166668768514,0.12777778582816,-0.00610865233466029,-0.0106901414692402,0.0146607663482428
5,0.997222232726705,-0.29166668768514,0.125000002061652,0.0045814891345799,-0.00977384392172098,0.0198531206697226
5,0.99583334084345,-0.295833339022973,0.136111112815755,0.00885754637420177,-0.00183259579353034,0.0140499006956816
5,0.997222232726705,-0.290277795801886,0.12777778582816,0.01191187184304,-0.000916297896765172,0.0180205255746841
5,0.99583334084345,-0.286111120152123,0.126388893944906,-0.00183259579353034,0.00152716308366507,0.0113010071218014
5,0.990277773310434,-0.288888903918631,0.133333341205212,-0.00152716308366507,0.00794124789535999,0.00977384392172098
5,0.993055557076942,-0.290277795801886,0.12777778582816,-0.00183259579353034,0.00916297826915979,0.00519235478714108
5,0.993055557076942,-0.293055555256465,0.122222230451108,-0.00549778714776039,0.0103847095742822,0.00152716308366507
5,0.993055557076942,-0.293055555256465,0.122222230451108,0.00305432616733015,0.0103847095742822,0.0189368221908808
5,0.990277773310434,-0.288888903918631,0.12777778582816,0.0021380283869803,-0.00152716308366507,0.00671951752156019
5,0.993055557076942,-0.293055555256465,0.12916666555545,-0.0033597587607801,-0.0100792767480016,0.0100792767480016
5,0.993055557076942,-0.293055555256465,0.12916666555545,-0.00855211354792118,-0.0131336031481624,0.00794124789535999
5,0.98888888142718,-0.293055555256465,0.125000002061652,-0.00152716308366507,-0.00855211354792118,0.0045814891345799
5,0.987499989543926,-0.29166668768514,0.116666675074056,-0.00702495034784079,-0.0143553335219622,0.0198531206697226
5,0.987499989543926,-0.29166668768514,0.116666675074056,0.000610865245107561,-0.0134390350431204,0.0143553335219622
5,0.993055557076942,-0.29166668768514,0.118055554801345,-0.00305432616733015,-0.0113010071218014,0.00977384392172098
5,0.993055557076942,-0.29166668768514,0.126388893944906,0.00855211354792118,-0.00946841109544039,0.0100792767480016
5,0.993055557076942,-0.297222230906227,0.122222230451108,-0.0021380283869803,-0.00580321997404099,0.00610865233466029
5,0.986111194908388,-0.29166668768514,0.118055554801345,-0.0045814891345799,-0.01191187184304,0.0180205255746841
5,0.987499989543926,-0.298611122789481,0.113888891307548,0.00366519158706069,-0.0113010071218014,0.0164933614432812
5,0.986111194908388,-0.300000014672736,0.125000002061652,0.0033597587607801,-0.0128281703218818,0.013744467869401
5,0.98888888142718,-0.293055555256465,0.125000002061652,0.00397062394768,-0.0125227374956012,0.00946841109544039
5,0.98888888142718,-0.295833339022973,0.120833338567854,0.0045814891345799,-0.00763581553474069,0.00702495034784079
5,0.993055557076942,-0.298611122789481,0.122222230451108,-0.00702495034784079,-0.00702495034784079,0.0045814891345799
5,0.993055557076942,-0.294444447139719,0.126388893944906,-0.00733038317412138,-0.0131336031481624,0.019547687843442
5,0.986111194908388,-0.295833339022973,0.125000002061652,-0.000916297896765172,-0.0177150927484035,0.0183259565383196
5,0.98888888142718,-0.298611122789481,0.120833338567854,0.000916297896765172,-0.01191187184304,0.0171042270958424
5,0.993055557076942,-0.301388906555989,0.111111119697004,0.00824668072164059,-0.00427605677396059,0.00916297826915979
5,0.993055557076942,-0.297222230906227,0.111111119697004,0.0033597587607801,-0.00885754637420177,0.00946841109544039
5,0.98888888142718,-0.301388906555989,0.116666675074056,0.00152716308366507,-0.0109955742955208,0.0134390350431204
5,0.98888888142718,-0.295833339022973,0.115277783190802,0.00794124789535999,-0.011606439948082,0.0106901414692402
5,0.987499989543926,-0.294444447139719,0.115277783190802,0.00152716308366507,-0.00824668072164059,0.0161879286170006
5,0.98888888142718,-0.295833339022973,0.118055554801345,0.011606439948082,-0.0152716310694814,0.0134390350431204
5,0.984722303025134,-0.298611122789481,0.120833338567854,0.000916297896765172,-0.00824668072164059,0.00855211354792118
5,0.98888888142718,-0.301388906555989,0.1194444466846,-0.00702495034784079,-0.00366519158706069,0.0180205255746841
5,0.987499989543926,-0.308333341660331,0.115277783190802,0.000610865245107561,-0.00977384392172098,0.00946841109544039
5,0.98888888142718,-0.300000014672736,0.126388893944906,0.00794124789535999,-0.0183259565383196,0.0152716310694814
5,0.98888888142718,-0.302777798439244,0.111111119697004,0.00610865233466029,-0.00855211354792118,0.0128281703218818
5,0.98888888142718,-0.297222230906227,0.111111119697004,0.00366519158706069,-0.00580321997404099,0.0186313893646002
5,0.993055557076942,-0.312500017310094,0.106944444047242,-0.000610865245107561,-0.00549778714776039,0.00824668072164059
5,0.991666665193688,-0.300000014672736,0.113888891307548,0.00641408516094089,0.00427605677396059,-0.000305432622553781
5,0.98888888142718,-0.300000014672736,0.115277783190802,0.00427605677396059,-0.00763581553474069,0.013744467869401
5,0.986111194908388,-0.298611122789481,0.112499999424294,0.00580321997404099,-0.0100792767480016,0.00397062394768
5,0.986111194908388,-0.301388906555989,0.125000002061652,0.00641408516094089,-0.00824668072164059,0.00702495034784079
5,0.98888888142718,-0.300000014672736,0.123611110178398,0.00671951752156019,-0.00977384392172098,0.00549778714776039
5,0.991666665193688,-0.300000014672736,0.1194444466846,-0.000610865245107561,-0.000916297896765172,0.00549778714776039
5,0.994444448960196,-0.305555557893823,0.122222230451108,0.000610865245107561,-0.00671951752156019,0.00855211354792118
5,0.993055557076942,-0.301388906555989,0.116666675074056,0.0021380283869803,-0.0021380283869803,0.000610865245107561
5,0.98888888142718,-0.302777798439244,0.120833338567854,0.0109955742955208,-0.00305432616733015,0.00610865233466029
5,0.98888888142718,-0.300000014672736,0.10972222781375,0.0192422550171614,0.000305432622553781,0.0027488935738802
5,0.98888888142718,-0.297222230906227,0.120833338567854,0.00763581553474069,-0.00549778714776039,-0.00855211354792118
5,0.994444448960196,-0.300000014672736,0.112499999424294,0.00763581553474069,-0.00152716308366507,0.00549778714776039
5,0.98888888142718,-0.295833339022973,0.108333335930496,0.0027488935738802,-0.00763581553474069,0.00397062394768
5,0.979166735492117,-0.294444447139719,0.115277783190802,-0.0033597587607801,-0.00244346098043024,-0.00366519158706069
5,0.986111194908388,-0.302777798439244,0.115277783190802,-0.00671951752156019,0.0021380283869803,-0.00763581553474069
5,0.98888888142718,-0.298611122789481,0.115277783190802,0.00122173049021512,0.00580321997404099,-0.00122173049021512
5,0.98888888142718,-0.298611122789481,0.115277783190802,0.000916297896765172,0.00671951752156019,-0.00763581553474069
5,0.990277773310434,-0.301388906555989,0.113888891307548,0.00305432616733015,0.00580321997404099,0.00183259579353034
5,0.986111194908388,-0.301388906555989,0.111111119697004,0.00244346098043024,0.0149661982432008,-0.00305432616733015
5,0.986111194908388,-0.301388906555989,0.111111119697004,0.00549778714776039,0.00610865233466029,-0.00152716308366507
5,0.984722303025134,-0.298611122789481,0.116666675074056,0.00244346098043024,-0.000916297896765172,0.000610865245107561
5,0.98888888142718,-0.298611122789481,0.112499999424294,0.00580321997404099,0.00183259579353034,0.00427605677396059
5,0.987499989543926,-0.301388906555989,0.116666675074056,0.00855211354792118,-0.0021380283869803,0.00580321997404099
5,0.990277773310434,-0.301388906555989,0.118055554801345,-0.00122173049021512,-0.00122173049021512,0.00824668072164059
5,0.98888888142718,-0.293055555256465,0.111111119697004,0.00305432616733015,0.00641408516094089,-0.00641408516094089
5,0.986111194908388,-0.294444447139719,0.112499999424294,0.011606439948082,0.00152716308366507,0.0033597587607801
5,0.983333411141879,-0.297222230906227,0.104166672436698,0.00580321997404099,0.000305432622553781,-0.000610865245107561
5,0.986111194908388,-0.294444447139719,0.111111119697004,-0.0033597587607801,-0.000610865245107561,-0.00519235478714108
5,0.99583334084345,-0.295833339022973,0.113888891307548,-0.00305432616733015,0.0134390350431204,-0.0027488935738802
5,0.99583334084345,-0.300000014672736,0.118055554801345,0.00916297826915979,0.0113010071218014,0.00641408516094089
5,0.993055557076942,-0.298611122789481,0.118055554801345,0.00580321997404099,0.00977384392172098,0.0122173046693206
5,0.990277773310434,-0.294444447139719,0.130555557438704,0.00244346098043024,-0.00671951752156019,0.00671951752156019
5,0.991666665193688,-0.297222230906227,0.123611110178398,0.00763581553474069,-0.00885754637420177,0.00946841109544039
5,0.990277773310434,-0.298611122789481,0.123611110178398,0.019547687843442,-0.00671951752156019,0.0122173046693206
5,0.981944519258625,-0.295833339022973,0.120833338567854,0.011606439948082,-0.0100792767480016,0.013744467869401
5,0.986111194908388,-0.301388906555989,0.118055554801345,0.00122173049021512,-0.0146607663482428,0.0152716310694814
5,0.98888888142718,-0.301388906555989,0.106944444047242,0.00244346098043024,-0.0109955742955208,0.0134390350431204
5,0.984722303025134,-0.297222230906227,0.111111119697004,0.00641408516094089,-0.0131336031481624,0.00794124789535999
5,0.98888888142718,-0.305555557893823,0.113888891307548,0.00794124789535999,-0.00397062394768,0.00488692196086049
5,0.990277773310434,-0.305555557893823,0.112499999424294,0.0021380283869803,-0.00366519158706069,0.00702495034784079
5,0.987499989543926,-0.298611122789481,0.118055554801345,0.00519235478714108,0.0021380283869803,0.00152716308366507
5,0.98888888142718,-0.298611122789481,0.113888891307548,0.000305432622553781,-0.00152716308366507,0.00977384392172098
5,0.993055557076942,-0.301388906555989,0.113888891307548,-0.0027488935738802,-0.00183259579353034,0.00733038317412138
5,0.993055557076942,-0.305555557893823,0.12777778582816,-0.00305432616733015,0.00183259579353034,0.00580321997404099
5,0.993055557076942,-0.305555557893823,0.12777778582816,0.00183259579353034,-0.00610865233466029,0.00763581553474069
5,0.987499989543926,-0.305555557893823,0.125000002061652,0.0027488935738802,-0.0027488935738802,0.00702495034784079
5,0.993055557076942,-0.305555557893823,0.118055554801345,0.00549778714776039,-0.000610865245107561,0.00794124789535999
5,0.993055557076942,-0.305555557893823,0.118055554801345,0.00397062394768,-0.00397062394768,0.00946841109544039
5,0.994444448960196,-0.301388906555989,0.108333335930496,0.00733038317412138,0.01191187184304,0.00152716308366507
5,0.991666665193688,-0.305555557893823,0.113888891307548,0.00946841109544039,0.00549778714776039,0.00488692196086049
5,0.98888888142718,-0.302777798439244,0.115277783190802,0.0106901414692402,0.0027488935738802,0.00305432616733015
5,0.986111194908388,-0.295833339022973,0.116666675074056,0.01588249579072,-0.00549778714776039,0.00427605677396059
5,0.994444448960196,-0.305555557893823,0.104166672436698,0.0109955742955208,-0.00397062394768,0.00397062394768
5,0.991666665193688,-0.301388906555989,0.1194444466846,0.00733038317412138,0.000305432622553781,0.00397062394768
5,0.993055557076942,-0.295833339022973,0.115277783190802,-0.00397062394768,0.0106901414692402,0.0021380283869803
5,0.997222232726705,-0.298611122789481,0.113888891307548,-0.0113010071218014,0.0045814891345799,0.00671951752156019
5,0.98888888142718,-0.301388906555989,0.118055554801345,-0.00855211354792118,0.0033597587607801,0.00671951752156019
5,0.98888888142718,-0.306944449777077,0.113888891307548,0.00549778714776039,-0.0033597587607801,-0.000610865245107561
5,0.990277773310434,-0.308333341660331,0.116666675074056,0.00824668072164059,-0.00427605677396059,-0.000916297896765172
5,0.991666665193688,-0.304166666010569,0.118055554801345,0.0128281703218818,0.000610865245107561,-0.00519235478714108
5,0.991666665193688,-0.298611122789481,0.111111119697004,0.0106901414692402,-0.00183259579353034,0.000916297896765172
5,0.990277773310434,-0.301388906555989,0.113888891307548,0.00641408516094089,-0.000610865245107561,-0.00519235478714108
5,0.98888888142718,-0.305555557893823,0.112499999424294,0.00946841109544039,-0.0045814891345799,0.000610865245107561
5,0.98888888142718,-0.304166666010569,0.112499999424294,0.0125227374956012,-0.00641408516094089,-0.00610865233466029
5,0.986111194908388,-0.301388906555989,0.120833338567854,0.0128281703218818,-0.00641408516094089,-0.00671951752156019
5,0.98888888142718,-0.300000014672736,0.118055554801345,0.0033597587607801,-0.00641408516094089,-0.00763581553474069
5,0.993055557076942,-0.300000014672736,0.113888891307548,0.00519235478714108,-0.00519235478714108,-0.00305432616733015
5,0.987499989543926,-0.300000014672736,0.113888891307548,0.000610865245107561,-0.0027488935738802,-0.00580321997404099
5,0.984722303025134,-0.298611122789481,0.113888891307548,0.000610865245107561,-0.00183259579353034,-0.000916297896765172
5,0.987499989543926,-0.304166666010569,0.125000002061652,0.000916297896765172,-0.000610865245107561,0.00549778714776039
5,0.98888888142718,-0.306944449777077,0.120833338567854,0.00702495034784079,0.00671951752156019,-0.00610865233466029
5,0.986111194908388,-0.302777798439244,0.125000002061652,0.00305432616733015,-0.000610865245107561,-0.00366519158706069
5,0.986111194908388,-0.301388906555989,0.122222230451108,0.00916297826915979,0.0033597587607801,-0.00183259579353034
5,0.991666665193688,-0.302777798439244,0.120833338567854,0.0113010071218014,0.00427605677396059,0.00702495034784079
5,0.991666665193688,-0.298611122789481,0.108333335930496,0.00305432616733015,0.0045814891345799,-0.00122173049021512
5,0.993055557076942,-0.295833339022973,0.113888891307548,0.00733038317412138,0.00702495034784079,-0.00580321997404099
5,0.98888888142718,-0.301388906555989,0.115277783190802,0.00610865233466029,0.0128281703218818,-0.00824668072164059
5,0.991666665193688,-0.298611122789481,0.111111119697004,0.00855211354792118,0.00519235478714108,-0.0106901414692402
5,0.987499989543926,-0.295833339022973,0.111111119697004,0.00610865233466029,0.00977384392172098,-0.0134390350431204
5,0.98888888142718,-0.297222230906227,0.108333335930496,0.000916297896765172,0.000305432622553781,-0.0045814891345799
5,0.990277773310434,-0.298611122789481,0.116666675074056,0.00519235478714108,0.0201585534960032,-0.00885754637420177
5,0.983333411141879,-0.302777798439244,0.111111119697004,-0.00397062394768,0.0161879286170006,-0.00885754637420177
5,0.986111194908388,-0.301388906555989,0.115277783190802,-0.0033597587607801,0.00549778714776039,-0.00183259579353034
5,0.990277773310434,-0.301388906555989,0.118055554801345,0.0027488935738802,0.000610865245107561,-0.00794124789535999
5,0.993055557076942,-0.298611122789481,0.108333335930496,0.00366519158706069,0.0033597587607801,-0.00305432616733015
5,0.990277773310434,-0.295833339022973,0.120833338567854,0.00122173049021512,-0.00183259579353034,0.0027488935738802
5,0.987499989543926,-0.297222230906227,0.118055554801345,-0.00488692196086049,0.00794124789535999,-0.000916297896765172
5,0.991666665193688,-0.293055555256465,0.1194444466846,0.00122173049021512,0.00671951752156019,-0.00702495034784079
5,0.994444448960196,-0.295833339022973,0.118055554801345,0.000916297896765172,0.00305432616733015,0.00427605677396059
5,0.98888888142718,-0.298611122789481,0.118055554801345,0.00519235478714108,0.00519235478714108,-0.00244346098043024
5,0.993055557076942,-0.302777798439244,0.111111119697004,0.00244346098043024,0.00488692196086049,-0.00549778714776039
5,0.991666665193688,-0.305555557893823,0.113888891307548,-0.00244346098043024,0.00305432616733015,-0.00152716308366507
5,0.990277773310434,-0.300000014672736,0.123611110178398,0.0106901414692402,0.00671951752156019,-0.00549778714776039
5,0.986111194908388,-0.298611122789481,0.125000002061652,0.00794124789535999,0.00427605677396059,-0.00549778714776039
5,0.986111194908388,-0.295833339022973,0.120833338567854,0.00855211354792118,-0.00488692196086049,-0.00824668072164059
5,0.986111194908388,-0.295833339022973,0.120833338567854,-0.00183259579353034,-0.00641408516094089,0.00397062394768
5,0.98888888142718,-0.293055555256465,0.125000002061652,0.00824668072164059,-0.00671951752156019,0.00519235478714108
5,0.98888888142718,-0.295833339022973,0.113888891307548,0.0131336031481624,-0.00183259579353034,-0.00488692196086049
5,0.98888888142718,-0.295833339022973,0.113888891307548,0.0128281703218818,0.00244346098043024,0.000305432622553781
5,0.98888888142718,-0.288888903918631,0.118055554801345,0.0140499006956816,-0.00488692196086049,0.000916297896765172
5,0.98888888142718,-0.288888903918631,0.112499999424294,0.0128281703218818,-0.000305432622553781,0.00488692196086049
5,0.990277773310434,-0.295833339022973,0.106944444047242,0.00946841109544039,-0.00152716308366507,0.0033597587607801
5,0.990277773310434,-0.295833339022973,0.106944444047242,0.00946841109544039,-0.00152716308366507,0.0033597587607801
5,0.98888888142718,-0.293055555256465,0.115277783190802,0.0125227374956012,0.00549778714776039,0.00977384392172098
5,0.98888888142718,-0.293055555256465,0.125000002061652,0.00519235478714108,0.00305432616733015,-0.00855211354792118
5,0.98888888142718,-0.297222230906227,0.113888891307548,0.00366519158706069,0.00794124789535999,-0.000305432622553781
5,0.990277773310434,-0.295833339022973,0.1194444466846,0.00733038317412138,0.00794124789535999,-0.0033597587607801
5,0.987499989543926,-0.298611122789481,0.123611110178398,0.0122173046693206,0.00549778714776039,-0.00244346098043024
5,0.983333411141879,-0.297222230906227,0.122222230451108,0.00519235478714108,0.0027488935738802,-0.00122173049021512
5,0.983333411141879,-0.295833339022973,0.120833338567854,0.00855211354792118,0.0021380283869803,-0.00122173049021512
5,0.990277773310434,-0.298611122789481,0.112499999424294,0.00977384392172098,0.00244346098043024,-0.00824668072164059
5,0.987499989543926,-0.293055555256465,0.116666675074056,-0.00305432616733015,0.0033597587607801,-0.00549778714776039
5,0.987499989543926,-0.294444447139719,0.120833338567854,-0.000610865245107561,0.00244346098043024,0.00122173049021512
5,0.991666665193688,-0.298611122789481,0.125000002061652,0.00641408516094089,0.0103847095742822,-0.0021380283869803
5,0.987499989543926,-0.301388906555989,0.123611110178398,0.00488692196086049,0.00977384392172098,-0.00152716308366507
5,0.987499989543926,-0.297222230906227,0.113888891307548,0.00152716308366507,-0.000916297896765172,0.00122173049021512
5,0.987499989543926,-0.295833339022973,0.118055554801345,0.00733038317412138,-0.00244346098043024,-0.000610865245107561
5,0.981944519258625,-0.29166668768514,0.12777778582816,0.00641408516094089,-0.00305432616733015,-0.000916297896765172
5,0.987499989543926,-0.288888903918631,0.122222230451108,-0.000305432622553781,0.00916297826915979,0.00702495034784079
5,0.99583334084345,-0.293055555256465,0.125000002061652,-0.00549778714776039,0.00946841109544039,0.0021380283869803
5,0.98888888142718,-0.298611122789481,0.118055554801345,0.00488692196086049,0.00519235478714108,0.0021380283869803
5,0.98888888142718,-0.295833339022973,0.115277783190802,-0.00152716308366507,0.00183259579353034,-0.00733038317412138
5,0.993055557076942,-0.295833339022973,0.115277783190802,0.000610865245107561,0.00763581553474069,-0.00763581553474069
5,0.993055557076942,-0.297222230906227,0.113888891307548,0.01191187184304,0.0192422550171614,-0.00488692196086049
5,0.98888888142718,-0.295833339022973,0.122222230451108,0.0103847095742822,0.00397062394768,-0.00397062394768
5,0.98888888142718,-0.301388906555989,0.116666675074056,0.0149661982432008,0.00305432616733015,0.0045814891345799
5,0.990277773310434,-0.298611122789481,0.123611110178398,0.01588249579072,0.00397062394768,0.00244346098043024
5,0.981944519258625,-0.301388906555989,0.115277783190802,0.0109955742955208,0.00305432616733015,0.00855211354792118
5,0.986111194908388,-0.300000014672736,0.125000002061652,0.0232128798961639,-0.000305432622553781,-0.00580321997404099
5,0.987499989543926,-0.297222230906227,0.118055554801345,0.0210748501121998,0.000916297896765172,-0.0027488935738802
5,0.987499989543926,-0.297222230906227,0.118055554801345,0.0207694191485643,-0.000610865245107561,0.00366519158706069
5,0.991666665193688,-0.290277795801886,0.125000002061652,0.0103847095742822,0.0106901414692402,-0.0021380283869803
5,0.98888888142718,-0.29166668768514,0.1194444466846,0.0103847095742822,0.00610865233466029,0.00244346098043024
5,0.983333411141879,-0.29166668768514,0.118055554801345,0.013744467869401,-0.00519235478714108,0.00519235478714108
5,0.98888888142718,-0.298611122789481,0.113888891307548,0.0109955742955208,-0.0140499006956816,0.00122173049021512
5,0.99583334084345,-0.295833339022973,0.125000002061652,0.0143553335219622,-0.00427605677396059,0.0033597587607801
5,0.990277773310434,-0.294444447139719,0.1194444466846,0.0113010071218014,0.0033597587607801,-0.00519235478714108
5,0.990277773310434,-0.293055555256465,0.125000002061652,0.00580321997404099,0.00244346098043024,-0.01191187184304
5,0.98888888142718,-0.295833339022973,0.120833338567854,0.00671951752156019,-0.00183259579353034,-0.00397062394768
5,0.98888888142718,-0.295833339022973,0.120833338567854,0.0125227374956012,-0.0033597587607801,0.00244346098043024
5,0.991666665193688,-0.29166668768514,0.120833338567854,0.0171042270958424,0.00610865233466029,0.00244346098043024
5,0.986111194908388,-0.293055555256465,0.111111119697004,0.00916297826915979,0.00397062394768,0.0021380283869803
5,0.984722303025134,-0.295833339022973,0.116666675074056,0.013744467869401,0.00244346098043024,-0.00519235478714108
5,0.98888888142718,-0.293055555256465,0.125000002061652,0.0100792767480016,0.000305432622553781,-0.0045814891345799
5,0.990277773310434,-0.295833339022973,0.12777778582816,0.00519235478714108,0.0045814891345799,0.00519235478714108
5,0.987499989543926,-0.288888903918631,0.118055554801345,0.0113010071218014,0.00152716308366507,0.0021380283869803
5,0.990277773310434,-0.288888903918631,0.111111119697004,0.0033597587607801,0.00580321997404099,0.00122173049021512
5,0.991666665193688,-0.295833339022973,0.120833338567854,0.0027488935738802,0.0207694191485643,-0.0109955742955208
5,0.993055557076942,-0.290277795801886,0.118055554801345,0.00977384392172098,0.0125227374956012,-0.00763581553474069
5,0.986111194908388,-0.293055555256465,0.12777778582816,0.00549778714776039,0.00549778714776039,-0.0113010071218014
5,0.984722303025134,-0.288888903918631,0.130555557438704,0.0143553335219622,0.00305432616733015,-0.00916297826915979
5,0.986111194908388,-0.288888903918631,0.118055554801345,0.01191187184304,0.0045814891345799,-0.00183259579353034
5,0.994444448960196,-0.288888903918631,0.125000002061652,0.0033597587607801,0.01588249579072,-0.00549778714776039
5,0.993055557076942,-0.295833339022973,0.134722233088466,-0.00671951752156019,0.0171042270958424,-0.0134390350431204
5,0.991666665193688,-0.288888903918631,0.126388893944906,-0.000305432622553781,0.00244346098043024,-0.00671951752156019
5,0.98888888142718,-0.293055555256465,0.134722233088466,-0.00305432616733015,-0.0027488935738802,-0.000305432622553781
5,0.98888888142718,-0.294444447139719,0.12916666555545,0.00763581553474069,0.00580321997404099,-0.00366519158706069
5,0.993055557076942,-0.290277795801886,0.130555557438704,0.00610865233466029,0.00733038317412138,-0.00702495034784079
5,0.990277773310434,-0.288888903918631,0.125000002061652,0.00610865233466029,0.00244346098043024,-0.0113010071218014
5,0.98888888142718,-0.293055555256465,0.120833338567854,0.00855211354792118,0.000610865245107561,-0.000305432622553781
5,0.987499989543926,-0.29166668768514,0.122222230451108,0.0146607663482428,-0.00519235478714108,0.0109955742955208
5,0.986111194908388,-0.293055555256465,0.122222230451108,0.0171042270958424,-0.00977384392172098,0.00610865233466029
5,0.987499989543926,-0.290277795801886,0.120833338567854,0.00549778714776039,-0.00671951752156019,0.0201585534960032
5,0.98888888142718,-0.29166668768514,0.122222230451108,0.0103847095742822,-0.0210748501121998,0.0128281703218818
5,0.986111194908388,-0.294444447139719,0.126388893944906,0.00977384392172098,-0.0247400421649218,0.0186313893646002
5,0.991666665193688,-0.295833339022973,0.125000002061652,0.0113010071218014,-0.0149661982432008,0.0134390350431204
5,0.994444448960196,-0.304166666010569,0.126388893944906,0.0109955742955208,-0.0103847095742822,0.00152716308366507
5,0.991666665193688,-0.295833339022973,0.118055554801345,0.0122173046693206,-0.0106901414692402,-0.000610865245107561
5,0.984722303025134,-0.29166668768514,0.111111119697004,0.00977384392172098,0.000305432622553781,-0.0027488935738802
5,0.987499989543926,-0.297222230906227,0.118055554801345,0.0161879286170006,-0.00641408516094089,0.00305432616733015
5,0.993055557076942,-0.29166668768514,0.118055554801345,0.0134390350431204,-0.00488692196086049,0.00366519158706069
5,0.983333411141879,-0.290277795801886,0.133333341205212,0.00733038317412138,0.00488692196086049,0.0149661982432008
5,0.987499989543926,-0.290277795801886,0.12777778582816,0.00671951752156019,-0.0033597587607801,0.01588249579072
5,0.990277773310434,-0.29166668768514,0.123611110178398,0.00671951752156019,-0.00641408516094089,0.0100792767480016
5,0.993055557076942,-0.294444447139719,0.12777778582816,0.013744467869401,0.0021380283869803,0.0106901414692402
5,0.98888888142718,-0.293055555256465,0.130555557438704,0.00885754637420177,-0.000610865245107561,0.00427605677396059
5,0.987499989543926,-0.287500012035377,0.122222230451108,0.0146607663482428,-0.00702495034784079,0.00519235478714108
5,0.984722303025134,-0.288888903918631,0.12777778582816,0.00855211354792118,-0.00855211354792118,0.00671951752156019
5,0.990277773310434,-0.286111120152123,0.1194444466846,0.0134390350431204,-0.00580321997404099,0.00488692196086049
5,0.98888888142718,-0.288888903918631,0.118055554801345,0.00702495034784079,-0.00244346098043024,0.0149661982432008
5,0.990277773310434,-0.290277795801886,0.118055554801345,0.0106901414692402,0.0027488935738802,0.00610865233466029
5,0.98888888142718,-0.295833339022973,0.120833338567854,0.00733038317412138,0.0103847095742822,0.000305432622553781
5,0.986111194908388,-0.29166668768514,0.125000002061652,0.0131336031481624,0.0100792767480016,-0.00152716308366507
5,0.987499989543926,-0.293055555256465,0.123611110178398,0.011606439948082,-0.00244346098043024,0.00610865233466029
5,0.993055557076942,-0.293055555256465,0.118055554801345,0.00122173049021512,-0.0131336031481624,0.00702495034784079
5,0.990277773310434,-0.297222230906227,0.130555557438704,-0.0027488935738802,-0.0113010071218014,0.00549778714776039
5,0.990277773310434,-0.295833339022973,0.12916666555545,0.00885754637420177,-0.00397062394768,0.013744467869401
5,0.994444448960196,-0.295833339022973,0.12777778582816,-0.00427605677396059,-0.000305432622553781,0.00855211354792118
5,0.987499989543926,-0.293055555256465,0.125000002061652,0.0021380283869803,-0.00610865233466029,0.00702495034784079
5,0.986111194908388,-0.295833339022973,0.125000002061652,-0.000305432622553781,-0.011606439948082,0.0106901414692402
5,0.98888888142718,-0.297222230906227,0.125000002061652,-0.00152716308366507,-0.0045814891345799,0.0131336031481624
5,0.990277773310434,-0.298611122789481,0.131944449321958,-0.00549778714776039,0.00244346098043024,0.00610865233466029
5,0.991666665193688,-0.298611122789481,0.12916666555545,0.00183259579353034,0.0021380283869803,0.0033597587607801
5,0.98888888142718,-0.294444447139719,0.118055554801345,0.00794124789535999,-0.00244346098043024,0.0140499006956816
5,0.986111194908388,-0.295833339022973,0.1194444466846,0.0167987942695618,-0.0045814891345799,0.019547687843442
5,0.980555627375371,-0.295833339022973,0.118055554801345,0.00641408516094089,-0.0177150927484035,0.00977384392172098
5,0.991666665193688,-0.302777798439244,0.1194444466846,0.0167987942695618,-0.0210748501121998,0.0219911485910416
5,0.99583334084345,-0.288888903918631,0.115277783190802,0.00977384392172098,-0.01191187184304,0.01191187184304
5,0.98888888142718,-0.29166668768514,0.115277783190802,0.0143553335219622,-0.00122173049021512,-0.0021380283869803
5,0.991666665193688,-0.293055555256465,0.120833338567854,0.00305432616733015,-0.000916297896765172,0.0140499006956816
5,0.98888888142718,-0.295833339022973,0.1194444466846,0.000610865245107561,-0.0021380283869803,0.011606439948082
5,0.984722303025134,-0.301388906555989,0.120833338567854,0.0033597587607801,-0.00122173049021512,0.00916297826915979
5,0.98888888142718,-0.300000014672736,0.123611110178398,0.00885754637420177,0.00244346098043024,0.00641408516094089
5,0.993055557076942,-0.300000014672736,0.120833338567854,0.00427605677396059,0.01588249579072,0.0045814891345799
5,0.98888888142718,-0.298611122789481,0.115277783190802,0.0106901414692402,0.00916297826915979,-0.000305432622553781
5,0.991666665193688,-0.298611122789481,0.123611110178398,0.0122173046693206,0.00580321997404099,-0.00733038317412138
5,0.991666665193688,-0.288888903918631,0.122222230451108,0.00488692196086049,0.00824668072164059,0.000916297896765172
5,0.98888888142718,-0.290277795801886,0.125000002061652,0.000305432622553781,0.00519235478714108,0.00427605677396059
5,0.983333411141879,-0.297222230906227,0.12777778582816,0.00122173049021512,0.0027488935738802,0.00519235478714108
5,0.98888888142718,-0.300000014672736,0.12777778582816,0.00122173049021512,0.000305432622553781,0.00366519158706069
5,0.986111194908388,-0.301388906555989,0.122222230451108,0.00794124789535999,0.000305432622553781,0.000305432622553781
5,0.993055557076942,-0.300000014672736,0.118055554801345,0.0045814891345799,0.00488692196086049,0.00519235478714108
5,0.984722303025134,-0.297222230906227,0.125000002061652,0.0140499006956816,0.011606439948082,0.00305432616733015
5,0.98888888142718,-0.295833339022973,0.118055554801345,0.00610865233466029,0.0113010071218014,0.00519235478714108
5,0.990277773310434,-0.293055555256465,0.115277783190802,0.00488692196086049,0.019547687843442,-0.00152716308366507
5,0.990277773310434,-0.293055555256465,0.115277783190802,0.00733038317412138,0.0189368221908808,-0.00702495034784079
5,0.991666665193688,-0.301388906555989,0.134722233088466,0.00519235478714108,0.0100792767480016,-0.01191187184304
5,0.986111194908388,-0.301388906555989,0.131944449321958,0.00763581553474069,-0.00122173049021512,0.0027488935738802
5,0.990277773310434,-0.293055555256465,0.12916666555545,0.017409659922123,-0.00702495034784079,0.00610865233466029
5,0.990277773310434,-0.293055555256465,0.12916666555545,0.0140499006956816,-0.00519235478714108,0.00519235478714108
5,0.994444448960196,-0.294444447139719,0.125000002061652,0.00427605677396059,0.00824668072164059,-0.0027488935738802
5,0.991666665193688,-0.29166668768514,0.12777778582816,-0.000916297896765172,0.0109955742955208,-0.000305432622553781
