Activity,acc_x,acc_y,acc_z,gyro_x,gyro_y,gyro_z
0,0.559722261978817,-0.193055558469529,0.89166674134254,-0.569326400756836,-0.128281697630882,-0.857960224151611
0,0.506944467662877,-0.236111109602691,0.945833330294018,-0.723569869995117,-0.0516181141138077,-0.908356606960297
0,0.412500014097029,-0.331944455051793,0.986111194908388,-0.528092980384827,-0.390037447214127,-1.29747772216797
0,0.412500014097029,-0.331944455051793,0.986111194908388,-0.502742111682892,-0.45509460568428,-1.37200331687927
0,0.433333343721983,-0.344444457689151,0.934722292475701,-0.373238652944565,-0.538783133029938,-1.57755947113037
0,0.479166678621653,-0.327777779402031,0.883333390043015,-0.193033412098885,-0.449902266263962,-1.67315995693207
0,0.500000008246606,-0.331944455051793,0.86805557932722,-0.118813291192055,-0.289244681596756,-1.68018484115601
0,0.522222229754814,-0.334722238818301,0.847222298326124,-0.288022965192795,-0.0513126812875271,-1.59955060482025
0,0.526388905404577,-0.333333346935047,0.877777822509998,-0.58551436662674,-0.0033597587607801,-1.55098688602448
0,0.495833332596844,-0.318055560531181,0.872222254976982,-0.699440717697144,0.0809396430850029,-1.54518365859985
0,0.461111132763207,-0.309722233543585,0.812500049868629,-0.696080923080444,0.199142068624496,-1.58947134017944
0,0.456944457113445,-0.304166666010569,0.801388914802596,-0.575129628181458,0.155465200543404,-1.63467538356781
0,0.458333348996699,-0.295833339022973,0.786111152710659,-0.557719945907593,0.187841057777405,-1.61298966407776
0,0.443055586904762,-0.270833333748257,0.818055568777787,-0.576962232589722,0.234877690672875,-1.60443758964539
0,0.444444478788016,-0.248611112240049,0.823611136310804,-0.819781184196472,0.129503428936005,-1.57053458690643
0,0.452777781463682,-0.223611131277262,0.812500049868629,-1.08825647830963,0.155465200543404,-1.51097524166107
0,0.458333348996699,-0.240277785252453,0.797222239152834,-1.13743114471436,0.160962998867035,-1.42942464351654
0,0.423611149163062,-0.24583335278547,0.804166698569104,-1.08245325088501,0.0772744566202164,-1.4556919336319
0,0.4194444735133,-0.224999998848587,0.82222224442755,-0.940121591091156,-0.111482910811901,-1.58153009414673
0,0.452777781463682,-0.20138889761309,0.834722271376837,-0.821919202804565,-0.152410879731178,-1.59252572059631
0,0.500000008246606,-0.187500003092477,0.838888947026599,-0.811229050159454,0.00122173049021512,-1.53540980815887
0,0.522222229754814,-0.170833336961321,0.82916670384382,-0.913548946380615,-0.0311541277915239,-1.37261426448822
0,0.522222229754814,-0.170833336961321,0.82916670384382,-0.909883797168732,-0.0103847095742822,-1.2834278345108
0,0.522222229754814,-0.170833336961321,0.82916670384382,-0.897971928119659,0.156992360949516,-1.20706975460052
0,0.483333354271415,-0.118055554801345,0.854166660494678,-0.863763451576233,0.101709060370922,-1.20493173599243
0,0.454166673346937,-0.104166672436698,0.873611146860236,-0.789848744869232,0.156076073646545,-1.20493173599243
0,0.454166673346937,-0.104166672436698,0.873611146860236,-0.789848744869232,0.156076073646545,-1.20493173599243
0,0.443055586904762,-0.0888888921108138,0.894444525109048,-0.552527606487274,0.0409279726445675,-1.18416225910187
0,0.42916666807222,-0.0847222225390337,0.931944508709193,-0.451734840869904,0.204945296049118,-1.18538403511047
0,0.42916666807222,-0.0847222225390337,0.931944508709193,-0.524427831172943,0.357050746679306,-1.25471723079681
0,0.479166678621653,-0.0847222225390337,0.959722249126559,-0.543364644050598,0.628274917602539,-1.22142505645752
0,0.495833332596844,-0.0444444460554069,1.05972227022542,-0.101403631269932,0.875675320625305,-0.977384388446808
0,0.495833332596844,-0.0444444460554069,1.05972227022542,0.373544096946716,0.667064845561981,-0.785572707653046
0,0.436111127488491,-0.00555555575692586,1.19722227492443,0.0565050356090069,0.372016936540604,-0.923017382621765
0,0.348611133338914,0.00555555575692586,1.23611115040783,-0.723569869995117,0.139277279376984,-1.16522550582886
0,0.375000006184955,-0.03194444645704,1.08194444310977,-1.22570109367371,-0.0326812900602817,-1.26601827144623
0,0.397222227693163,-0.10972222781375,0.862500011794203,-1.133460521698,-0.0357356183230877,-1.29625606536865
0,0.386111116939059,-0.166666673467524,0.709722245003256,-0.846964657306671,-0.160046696662903,-1.4489723443985
0,0.384722225055805,-0.170833336961321,0.644444472361887,-0.473726004362106,-0.260534018278122,-1.59924519062042
0,0.398611119576417,-0.14583334384257,0.644444472361887,-0.00244346098043024,-0.160962998867035,-1.65269589424133
0,0.443055586904762,-0.0777777813567098,0.683333347845286,0.199752941727638,-0.0384845100343227,-1.50822627544403
0,0.476388894855144,-0.00972222266958873,0.826388920077312,0.165849909186363,0.124616511166096,-1.33657312393188
0,0.473611111088636,-0.00555555575692586,0.870833363093728,-0.124005645513535,0.237321153283119,-1.22539567947388
0,0.473611111088636,-0.00555555575692586,0.870833363093728,-0.63896507024765,0.292604446411133,-1.19515788555145
0,0.394444468238583,-0.0166666676506515,0.944444438410764,-0.874148190021515,0.277332812547684,-1.21623265743256
0,0.334722238818301,-0.0388888906783549,0.87500003874349,-0.890030682086945,0.173180297017098,-1.29747772216797
0,0.334722238818301,-0.0388888906783549,0.87500003874349,-0.785572707653046,0.21135938167572,-1.42148339748383
0,0.305555557893823,-0.0472222237439329,0.82222224442755,-0.694859206676483,0.118813291192055,-1.53357720375061
0,0.290277795801886,-0.0444444460554069,0.815277785011279,-0.65637469291687,0.0467311926186085,-1.69881629943848
0,0.293055555256465,-0.03194444645704,0.811111157985375,-0.599564254283905,-0.017409659922123,-1.83412289619446
0,0.362500003547597,-0.00972222266958873,0.830555595727074,-0.606894612312317,0.113926365971565,-1.81213176250458
0,0.469444484062732,0.0222222230277034,0.854166660494678,-0.510683357715607,0.133474051952362,-1.7134770154953
0,0.548611126912784,0.0652777787193518,0.909722238577127,-0.4758640229702,0.0390953756868839,-1.58488988876343
0,0.605555596878487,0.108333335930496,0.99583334084345,-0.530536472797394,-0.0540615729987621,-1.44805610179901
0,0.659722234453824,0.144444451959316,1.08055555122652,-0.664621412754059,0.0384845100343227,-1.25807702541351
0,0.693055591028065,0.151388899219622,1.15000004814151,-0.875980734825134,-0.0931569486856461,-1.06382179260254
0,0.68472223972854,0.140277788465518,1.16666675074056,-0.989601671695709,-0.397673279047012,-0.841772317886353
0,0.634722229179108,0.118055554801345,1.15000004814151,-0.986547350883484,-0.497855186462402,-0.673173487186432
0,0.555555586329055,0.0722222259796579,1.09722225382557,-1.02472639083862,-0.558330833911896,-0.6722571849823
0,0.441666695021508,0.0347222241455659,1.02500007039179,-0.879035115242004,-0.464257597923279,-0.780991196632385
0,0.302777798439244,0.0138888899621255,0.948611114060526,-0.507323563098907,-0.594677329063416,-1.01495265960693
0,0.200000005729836,-0.0138888899621255,0.87500003874349,-0.113010071218014,-1.07817721366882,-1.38666415214539
0,0.13750000469901,-0.0458333348996699,0.77638890952788,-0.00427605677396059,-1.14262342453003,-1.67713057994843
0,0.0500000014324589,-0.0847222225390337,0.718055596302781,-0.0592539273202419,-0.684779942035675,-2.16948795318604
0,0.0388888906783549,-0.0763888894734557,0.712500028769764,-0.0879645943641663,-0.459370672702789,-2.38237452507019
0,0.186111123365188,-0.0458333348996699,0.723611115211939,-0.173791155219078,-0.329867243766785,-2.23515582084656
0,0.418055581630046,-0.00972222266958873,0.716666704419527,-0.310930401086807,0.176234617829323,-1.67315995693207
0,0.591666678045946,0.00694444498106275,0.723611115211939,-0.465784758329391,0.478918343782425,-1.26082587242127
0,0.695833374794573,0.033333335301303,0.759722255552688,-0.559247136116028,0.476169466972351,-0.958752989768982
0,0.801388914802596,0.0680555564078778,0.85138887672817,-0.552527606487274,0.60903263092041,-0.700357019901276
0,0.899999995394348,0.0986111170596459,0.925000049292922,-0.589484989643097,0.551000475883484,-0.430354565382004
0,0.927777833059431,0.111111119697004,0.973611167959101,-0.610865235328674,0.18020524084568,-0.126143679022789
0,0.922222265526414,0.10972222781375,0.994444448960196,-0.614530444145203,-0.182343274354935,0.147218525409698
0,0.833333379493583,0.104166672436698,0.969444492309338,-0.499993205070496,-0.353080123662949,0.509767055511475
0,0.636111121062362,0.0597222233422998,0.95000000594378,-0.584903478622437,-0.181732416152954,0.573907911777496
0,0.397222227693163,-0.0472222237439329,0.931944508709193,-0.887587189674377,-0.08460483700037,0.43401974439621
0,0.20138889761309,-0.176388892338373,0.82916670384382,-1.07573366165161,-0.284052342176437,0.129808858036995
0,0.0722222259796579,-0.268055574293678,0.686111131611794,-0.841466903686523,-0.405614525079727,-0.307265222072601
0,0.029166668768514,-0.287500012035377,0.611111115787646,-0.270918726921081,-0.198531210422516,-0.948979139328003
0,0.0583333375370279,-0.227777782615095,0.548611126912784,0.162490159273148,0.182037845253944,-1.40132486820221
0,0.143055560076062,-0.170833336961321,0.584722267253534,0.437379509210587,0.0287106670439243,-1.6435329914093
0,0.400000011459671,-0.0416666683668809,0.668055585753349,0.540615737438202,0.159130394458771,-1.58855509757996
0,0.790277828360421,0.181944447715425,0.854166660494678,0.660650789737701,0.276111096143722,-1.34359812736511
0,0.994444448960196,0.315277801076602,0.990277773310434,0.673784375190735,0.113315500319004,-0.955087780952454
0,1.06527783775844,0.363888895430851,1.05694448645892,0.257479697465897,0.12156218290329,-0.302683740854263
0,1.1083333888916,0.404166687109433,1.11666674019113,-0.154243469238281,0.0403171069920063,0.210137650370598
0,1.04166667574312,0.369444462963867,1.10138892947533,-0.386677712202072,-0.268169850111008,0.595899045467377
0,0.838888947026599,0.223611131277262,1.00277780025972,-0.339946508407593,-0.316733628511429,0.844826638698578
0,0.745833336720147,0.161111118090472,0.96666670854283,-0.272751331329346,-0.329256355762482,0.970664858818054
0,0.545833343146276,0.0513888902767219,0.911111130460381,-0.244346097111702,-0.381790786981583,0.844521224498749
0,0.388888900705567,-0.0458333348996699,0.847222298326124,-0.289550125598908,-0.394924372434616,0.595899045467377
0,0.287500012035377,-0.0944444474878658,0.772222233878117,-0.277638256549835,-0.315206468105316,0.328034639358521
0,0.25555557165632,-0.12777778582816,0.716666704419527,-0.0977384373545647,-0.334143280982971,0.0167987942695618
0,0.281944444502361,-0.134722233088466,0.662500018220332,0.0522289797663689,-0.357967019081116,-0.0830776765942574
0,0.327777779402031,-0.101388894748172,0.647222256128395,0.161268427968025,-0.109039448201656,-0.176845490932465
0,0.384722225055805,-0.0583333375370279,0.687500023495048,0.247094988822937,0.0830776765942574,-0.255036234855652
0,0.461111132763207,-0.0208333341834404,0.740277817810989,0.143858760595322,0.217162594199181,-0.265115529298782
0,0.519444445988306,0.00833333382532574,0.798611131036088,0.0467311926186085,0.347582310438156,-0.270307868719101
0,0.562499997121468,0.030555557612777,0.827777811960566,0.0198531206697226,0.200974673032761,-0.253509074449539
0,0.616666683320662,0.0513888902767219,0.843055622676362,0.158214092254639,0.0842994004487991,-0.228158175945282
0,0.654166666920807,0.0819444448505077,0.862500011794203,0.192727982997894,0.0934623852372169,-0.173791155219078
0,0.673611153286365,0.102777780553444,0.876388930626744,0.0821613743901253,0.11636982858181,-0.100792765617371
0,0.668055585753349,0.108333335930496,0.872222254976982,-0.0726929605007172,0.159741267561913,0.00855211354792118
0,0.661111126337078,0.101388894748172,0.858333336144441,-0.109344877302647,0.0983493030071259,0.0781907513737679
0,0.634722229179108,0.0930555616825939,0.833333379493583,-0.0855211317539215,0.100181899964809,0.103541657328606
0,0.598611137462217,0.0875000002275597,0.82222224442755,-0.0314595587551594,0.0668897479772568,0.0638354197144508
0,0.573611132187501,0.0819444448505077,0.823611136310804,0.0791070461273193,-0.00580321997404099,0.0201585534960032
0,0.558333370095563,0.0930555616825939,0.840277838909853,0.121256753802299,-0.0485637858510017,-0.000610865245107561
0,0.569444456537738,0.0986111170596459,0.85138887672817,0.117286130785942,-0.00610865233466029,0.0397062413394451
0,0.555555586329055,0.101388894748172,0.86805557932722,0.0525344125926495,-0.015577063895762,0.0888808965682983
0,0.538888932353864,0.0986111170596459,0.863888903677457,-0.0311541277915239,0.0262672062963247,0.0592539273202419
0,0.536111148587356,0.0916666697993398,0.861111119910949,-0.0897971913218498,0.0568104684352875,0.0113010071218014
0,0.530555581054339,0.0763888894734557,0.815277785011279,-0.0864374339580536,0.027488935738802,0.00580321997404099
0,0.529166689171085,0.0750000036681839,0.801388914802596,-0.0167987942695618,-0.0916297882795334,0.0256563406437635
0,0.536111148587356,0.0708333340964038,0.793055563503071,0.0109955742955208,-0.03176499158144,0.0106901414692402
0,0.544444451263022,0.0708333340964038,0.797222239152834,0.00885754637420177,0.0448985956609249,-0.000610865245107561
0,0.54027777561326,0.0722222259796579,0.788888936477167,0.0125227374956012,0.0222965814173222,-0.0164933614432812
0,0.533333364820847,0.0777777813567098,0.780555585177642,0.0797179117798805,-0.0149661982432008,-0.0277943685650826
0,0.533333364820847,0.0777777813567098,0.780555585177642,0.118202425539494,-0.0555887371301651,-0.0152716310694814
0,0.575000024070755,0.0861111144222878,0.804166698569104,0.0910189226269722,0.04764748737216,0.0409279726445675
0,0.563888889004722,0.0847222225390337,0.831944487610329,0.0241291765123606,0.126449108123779,0.0726929605007172
0,0.563888889004722,0.0847222225390337,0.831944487610329,-0.0397062413394451,0.0531452745199203,0.103541657328606
0,0.548611126912784,0.0722222259796579,0.831944487610329,0.0250454749912024,0.0726929605007172,0.116675265133381
0,0.543055559379768,0.0625000010308258,0.84583340644287,0.0235183127224445,0.0339030213654041,0.0943786799907684
0,0.543055559379768,0.0625000010308258,0.84583340644287,0.00305432616733015,-0.00305432616733015,0.064446285367012
0,0.533333364820847,0.0625000010308258,0.861111119910949,-0.0122173046693206,0.015577063895762,0.00305432616733015
0,0.551388910679293,0.0680555564078778,0.85138887672817,-0.0302378293126821,0.0235183127224445,0.00488692196086049
0,0.551388910679293,0.0680555564078778,0.85138887672817,-0.0342084541916847,-0.0812450796365738,0.0464257597923279
0,0.572222240304247,0.0722222259796579,0.854166660494678,-0.0491746515035629,-0.096211276948452,0.0800233483314514
0,0.577777807837263,0.0750000036681839,0.833333379493583,-0.0464257597923279,0.0122173046693206,0.0907134860754013
0,0.569444456537738,0.0722222259796579,0.844444514559616,-0.0555887371301651,0.0113010071218014,0.0965167060494423
0,0.551388910679293,0.0652777787193518,0.848611190209378,-0.0894917547702789,-0.015577063895762,0.0568104684352875
0,0.543055559379768,0.0611111152255539,0.837500055143345,-0.0430659987032413,0.0516181141138077,0.0400116741657257
0,0.559722261978817,0.0458333348996699,0.841666730793107,-0.0461203269660473,-0.0488692186772823,0.0739146918058395
0,0.562499997121468,0.0458333348996699,0.840277838909853,-0.0452040284872055,-0.0745255574584007,0.124311074614525
0,0.551388910679293,0.0430555572111439,0.830555595727074,-0.0372627787292004,-0.070249505341053,0.110566608607769
0,0.538888932353864,0.0361111129898289,0.818055568777787,-0.0229074470698834,0.0027488935738802,0.0901026204228401
0,0.529166689171085,0.0388888906783549,0.827777811960566,-0.0235183127224445,0.100181899964809,0.0595593601465225
0,0.519444445988306,0.0347222241455659,0.833333379493583,-0.0635299831628799,0.0320704244077206,0.0164933614432812
0,0.536111148587356,0.0361111129898289,0.834722271376837,-0.0555887371301651,0.00763581553474069,0.0305432621389627
0,0.550000018796039,0.0416666683668809,0.826388920077312,-0.00610865233466029,0.118507854640484,0.0616973899304867
0,0.536111148587356,0.0361111129898289,0.831944487610329,-0.0161879286170006,0.0784961804747581,0.0372627787292004
0,0.533333364820847,0.0347222241455659,0.82916670384382,0.00122173049021512,0.0461203269660473,0.017409659922123
0,0.536111148587356,0.03194444645704,0.818055568777787,0.0149661982432008,0.121256753802299,0.000916297896765172
0,0.536111148587356,0.0361111129898289,0.816666676894533,0.0268780700862408,0.0665843114256859,0.0253509078174829
0,0.545833343146276,0.0388888906783549,0.816666676894533,0.0232128798961639,-0.00671951752156019,0.0534507073462009
0,0.554166694445801,0.0416666683668809,0.820833352544296,-0.00641408516094089,0.0171042270958424,0.127365410327911
0,0.519444445988306,0.055555559848502,0.831944487610329,-0.0372627787292004,0.0794124826788902,0.0525344125926495
0,0.522222229754814,0.0458333348996699,0.869444471210474,-0.0277943685650826,0.202196389436722,-0.021685715764761
0,0.545833343146276,0.027777779924251,0.898611103511094,-0.0448985956609249,0.149051114916802,-0.0397062413394451
0,0.587500002396184,0.0166666676506515,0.881944498159761,-0.143858760595322,0.134084925055504,0.0678060427308083
0,0.552777802562547,0.03194444645704,0.86805557932722,-0.190895393490791,0.0968221426010132,0.0650571510195732
0,0.493055597454194,0.03194444645704,0.843055622676362,-0.164933621883392,0.0397062413394451,-0.00794124789535999
0,0.511111143312639,0.00694444498106275,0.82916670384382,-0.0952949747443199,0.101403631269932,-0.0308486949652433
0,0.550000018796039,-0.00277777787846293,0.834722271376837,0.0781907513737679,0.0439822971820831,-0.0189368221908808
0,0.568055564654484,0.00416666691266287,0.827777811960566,0.0226020142436027,0.133168622851372,0.01588249579072
0,0.545833343146276,0.0125000003581147,0.836111163260091,-0.11636982858181,0.120035022497177,-0.00397062394768
0,0.527777797287831,0.0125000003581147,0.840277838909853,-0.242818936705589,0.210748508572578,-0.0519235469400883
0,0.527777797287831,0.0111111115138517,0.85138887672817,-0.3378084897995,0.170736834406853,-0.0934623852372169
0,0.54027777561326,0.0138888899621255,0.854166660494678,-0.589790403842926,-0.0226020142436027,-0.0424551330506802
0,0.550000018796039,0.00555555575692586,0.863888903677457,-0.719904720783234,0.0183259565383196,-0.0552833043038845
0,0.572222240304247,-0.00277777787846293,0.841666730793107,-0.817948579788208,0.0610865242779255,-0.0415388382971287
0,0.58611111051293,0.0180555564949145,0.811111157985375,-0.82527893781662,0.017409659922123,0.0232128798961639
0,0.559722261978817,-0.0125000003581147,0.763888931202451,-0.716850340366364,0.360715925693512,0.299629390239716
0,0.455555565230191,-0.0416666683668809,0.775000017644626,-0.828333258628845,0.954476952552795,0.468228220939636
0,0.441666695021508,-0.0250000007162294,0.809722266102121,-0.686001658439636,0.717461228370667,0.215635433793068
0,0.440277803138253,-0.111111119697004,0.837500055143345,-0.789543330669403,1.12582468986511,0.222965821623802
0,0.452777781463682,-0.106944444047242,0.837500055143345,-0.825584352016449,1.20248818397522,0.32742378115654
0,0.490277813687686,-0.108333335930496,0.841666730793107,-0.749226212501526,1.15087008476257,0.493884563446045
0,0.470833327322128,-0.0986111170596459,0.841666730793107,-0.719293832778931,1.45935702323914,0.726624190807343
0,0.412500014097029,-0.116666675074056,0.861111119910949,-0.730900287628174,1.60627019405365,0.799011766910553
0,0.368055571080613,-0.125000002061652,0.887500065692777,-0.709825396537781,1.57084000110626,0.801760613918304
0,0.315277801076602,-0.17361112072783,0.894444525109048,-0.733649134635925,1.40896070003509,0.615446746349335
0,0.302777798439244,-0.187500003092477,0.922222265526414,-0.849102675914764,1.29656147956848,0.677754998207092
0,0.293055555256465,-0.187500003092477,0.955555573476797,-0.994794070720673,1.40987694263458,0.72418075799942
0,0.277777793164528,-0.205555561106887,0.955555573476797,-1.09100532531738,1.36528384685516,0.664315938949585
0,0.252777787889811,-0.195833342236038,0.961111141009813,-0.834441900253296,0.957531273365021,0.548251569271088
0,0.200000005729836,-0.24583335278547,0.977777843608863,-0.527482151985168,0.946535706520081,0.417831838130951
0,0.168055565350778,-0.258333331110899,1.01111115155925,-0.507629036903381,0.41813725233078,-0.0870482996106148
0,0.179166676104882,-0.315277801076602,0.969444492309338,-0.840550601482391,0.277027398347855,-0.0448985956609249
0,0.222222239394008,-0.331944455051793,0.938888968125464,-0.661872506141663,0.442571878433227,0.231212496757507
0,0.212499996211229,-0.313888909193348,0.906944454810619,-0.319177091121674,0.499076902866364,0.310014098882675
0,0.170833336961321,-0.354166676560001,0.890277849459286,-0.177761793136597,0.567493796348572,0.353690981864929
0,0.1194444466846,-0.397222227693163,0.898611103511094,-0.184175878763199,0.131641462445259,0.312763005495071
0,0.0791666671619817,-0.430555559955475,0.815277785011279,-0.467922776937485,-1.14628863334656,0.601702272891998
0,-0.0458333348996699,-0.329166671285285,0.858333336144441,-0.440739274024963,-1.53846406936646,1.08398032188416
0,0.115277783190802,-0.275000009398019,0.954166681593543,-0.16401731967926,-0.46059238910675,1.31061136722565
0,0.415277797863537,-0.388888900705567,0.86805557932722,-0.650571465492249,0.350025773048401,0.801455199718475
0,0.375000006184955,-0.512500035195893,0.804166698569104,-1.17774820327759,-0.35979962348938,0.744950175285339
0,0.202777789496344,-0.420833365396554,0.80277780668585,-0.664926826953888,-0.106290549039841,1.02197754383087
0,0.0972222251763917,-0.393055576355329,0.751388904253164,0.401338458061218,0.741895854473114,1.07695543766022
0,0.0916666697993398,-0.365277787314105,0.743055601577497,0.911410927772522,0.146607652306557,0.896750152111053
0,0.12777778582816,-0.338888890156135,0.797222239152834,1.13559854030609,-0.873537302017212,0.654542088508606
0,0.2194444556275,-0.388888900705567,0.881944498159761,1.13315498828888,-1.78617000579834,0.621249973773956
0,0.25555557165632,-0.572222240304247,0.94305554652751,1.00701141357422,-1.82098925113678,0.424856781959534
0,0.134722233088466,-0.577777807837263,1.00555558402623,0.996321201324463,-1.14323425292969,0.392786353826523
0,0.220833347510754,-0.486111138037923,1.04722224327614,0.664010524749756,-1.1612548828125,0.370184332132339
0,0.256944463539574,-0.462500024646461,1.04583335139288,0.368657171726227,-1.49600899219513,-0.244040668010712
0,0.269444466176932,-0.477777786738398,0.99583334084345,0.196393176913261,-1.41506934165955,-0.572075307369232
0,0.348611133338914,-0.493055597454194,0.973611167959101,0.430965423583984,-2.34236288070679,-1.06626534461975
0,0.550000018796039,-0.522222229754814,1.02777785415829,0.843299448490143,-4.18137264251709,-1.47462868690491
0,0.651388931778157,-0.437500019371745,0.883333390043015,0.0167987942695618,-6.55152988433838,-1.31641459465027
0,0.670833369519857,-0.438888911254999,0.926388941176177,0.234572261571884,-6.82153224945068,-0.62338799238205
0,0.970833384192592,-0.437500019371745,0.763888931202451,0.0485637858510017,-8.58326721191406,-0.104457959532738
0,1.147222264375,-0.398611119576417,0.736111142161226,-0.0531452745199203,-9.13823890686035,0.0235183127224445
0,1.22083333969204,-0.366666679197359,0.63888890482887,0.813367068767548,-4.1193699836731,0.32284227013588
0,1.22083333969204,-0.366666679197359,0.63888890482887,1.15514612197876,-0.885754585266113,0.226020142436027
0,0.870833363093728,-0.352777784676747,0.493055597454194,0.18539759516716,-4.29438257217407,-0.621249973773956
0,0.870833363093728,-0.352777784676747,0.493055597454194,-0.566272079944611,-6.45715093612671,-1.41323673725128
0,0.816666676894533,-0.333333346935047,0.279166685047782,-0.769995629787445,-6.7396764755249,-1.5268577337265
0,0.816666676894533,-0.333333346935047,0.279166685047782,-0.983187615871429,-6.42019367218018,-1.40285205841064
0,0.791666671619817,-0.213888888094483,-0.033333335301303,-1.3744467496872,-3.64167308807373,-1.00640046596527
0,0.86805557932722,-0.150000007336368,-0.055555559848502,-1.18599486351013,-1.51525127887726,-0.86315256357193
0,0.819444460661041,-0.118055554801345,-0.0486111125881959,-1.74585282802582,-2.65054440498352,-0.46547931432724
0,0.784722260827405,-0.116666675074056,-0.13750000469901,-2.25073289871216,-4.79743003845215,0.0901026204228401
0,0.645833364245141,-0.0847222225390337,-0.206944452990142,-1.78250479698181,-5.2393913269043,0.4914411008358
0,0.609722223904392,0.0625000010308258,-0.170833336961321,0.16951510310173,-4.40006256103516,-0.415999233722687
0,0.808333374218867,0.0222222230277034,-0.244444460902216,0.968221426010132,-2.27211332321167,-0.900109946727753
0,0.847222298326124,0.0513888902767219,-0.301388906555989,1.51189148426056,1.1578950881958,0.248316720128059
0,0.854166660494678,0.0486111125881959,-0.368055571080613,1.52533054351807,-0.81428337097168,0.224798411130905
0,0.837500055143345,0.0819444448505077,-0.423611149163062,1.06718158721924,-1.4022411108017,-0.196087747812271
0,0.797222239152834,0.0638888929140799,-0.400000011459671,0.237626582384109,-0.567188382148743,-0.252898216247559
0,0.912500022343635,-0.0722222259796579,-0.444444478788016,-0.11087204515934,-0.590401232242584,-0.30757063627243
0,0.915277806110144,-0.0430555572111439,-0.534722256704101,-0.0033597587607801,-1.11024761199951,0.0320704244077206
0,0.929166724942685,-0.126388893944906,-0.508333359546131,0.212886542081833,-0.674089789390564,0.209832206368446
0,0.791666671619817,-0.0902777839940679,-0.534722256704101,-0.0598647929728031,-0.838717997074127,-0.525954961776733
0,0.791666671619817,-0.0902777839940679,-0.534722256704101,-0.202196389436722,-0.532979905605316,-0.706465661525726
0,0.762500039319197,-0.106944444047242,-0.509722251429385,-0.360715925693512,0.446237057447434,-0.747699081897736
0,0.831944487610329,-0.197222234119292,-0.515277818962402,-0.199447497725487,0.0488692186772823,-0.15851953625679
0,0.916666697993398,-0.200000005729836,-0.490277813687686,0.441350132226944,0.11087204515934,-0.177150920033455
0,1.08888890252604,-0.1194444466846,-0.518055554105052,0.24342979490757,0.70860368013382,-0.499993205070496
0,0.986111194908388,-0.13750000469901,-0.575000024070755,0.363159388303757,0.995710372924805,-0.212275668978691
0,0.886111173809523,-0.186111123365188,-0.541666667496514,0.288633823394775,1.88115954399109,0.564134061336517
0,0.993055557076942,-0.211111128639904,-0.604166704995233,0.220827788114548,1.46699285507202,0.718377530574799
0,0.997222232726705,-0.170833336961321,-0.597222245578963,0.252898216247559,1.64994704723358,0.728151381015778
0,0.99583334084345,-0.130555557438704,-0.562499997121468,0.214108273386955,1.58183550834656,-0.0500909499824047
0,0.958333357243305,-0.14722222356986,-0.498611116363352,-0.11117747426033,1.31733095645904,-0.946230292320251
0,1.03472221632685,-0.170833336961321,-0.449999997697174,-0.205861583352089,1.50731003284454,-0.588874101638794
0,1.08055555122652,-0.130555557438704,-0.404166687109433,-0.0204639863222837,1.86924767494202,-0.149967417120934
0,1.0361111082101,-0.134722233088466,-0.372222246730376,0.212275668978691,1.63742423057556,-0.16401731967926
0,0.923611157409668,-0.170833336961321,-0.24583335278547,0.181426972150803,1.47432327270508,-0.487470477819443
0,0.881944498159761,-0.0958333393711199,-0.250000004123303,0.36987891793251,2.04517674446106,-0.406836241483688
0,1.01805561097552,-0.115277783190802,-0.301388906555989,0.339946508407593,1.43003559112549,-0.166155353188515
0,1.05555559457566,-0.0500000014324589,-0.24583335278547,0.113315500319004,0.545502662658691,0.0821613743901253
0,1.01944450285877,-0.0819444448505077,-0.187500003092477,0.125838235020638,0.662788808345795,0.0381790772080422
0,0.970833384192592,-0.131944449321958,-0.144444451959316,0.0784961804747581,0.274889349937439,-0.0351247526705265
0,0.890277849459286,-0.0791666671619817,-0.148611115453114,-0.00916297826915979,-0.282830595970154,-0.56169056892395
0,0.929166724942685,-0.154166670830166,-0.12916666555545,-0.00152716308366507,-0.380569040775299,-1.05557513236999
0,0.927777833059431,-0.150000007336368,-0.161111118090472,-0.0729983970522881,-0.386066824197769,-1.27762460708618
0,0.984722303025134,-0.108333335930496,-0.229166674498349,-0.0897971913218498,-0.369268029928207,-1.31091678142548
0,1.02500007039179,-0.033333335301303,-0.304166666010569,-0.210443079471588,-0.242208063602448,-1.22295224666596
0,1.05555559457566,0.0236111118719664,-0.290277795801886,-0.201280102133751,-0.114842668175697,-0.777020573616028
0,1.05000002704265,0.03194444645704,-0.269444466176932,-0.0858265683054924,0.11087204515934,-0.446847915649414
0,1.05000002704265,0.0486111125881959,-0.344444457689151,0.11606439948082,0.265115529298782,-0.136833816766739
0,0.980555627375371,-0.00277777787846293,-0.190277786858986,0.00885754637420177,0.247094988822937,-0.103236228227615
0,0.956944465360051,0.0125000003581147,-0.206944452990142,0.000916297896765172,0.463952153921127,-0.194255143404007
0,1.06111116210868,0.027777779924251,-0.223611131277262,0.176845490932465,0.124005645513535,-0.0821613743901253
0,1.01527782720901,0.0388888906783549,-0.212499996211229,0.0775798857212067,0.0607810914516449,0.00733038317412138
0,0.983333411141879,0.0347222241455659,-0.211111128639904,-0.00305432616733015,0.141109868884087,0.0901026204228401
0,0.976388951725609,0.0458333348996699,-0.211111128639904,0.0378736443817616,0.0568104684352875,0.186008468270302
0,1.05833337834217,0.029166668768514,-0.18333333959868,0.00733038317412138,-0.135917514562607,0.0329867228865623
0,1.01805561097552,0.0166666676506515,-0.204166669223633,0.0833831056952477,-0.308181524276733,-0.0873537287116051
0,0.994444448960196,0.00416666691266287,-0.231944458264858,-0.0339030213654041,-0.132863193750381,-0.115758962929249
0,1.01666671909226,0.033333335301303,-0.265277790527169,-0.0699440687894821,0.0775798857212067,-0.0287106670439243
0,1.00972225967599,0.0347222241455659,-0.241666677135707,-0.0583376325666905,0.171042263507843,0.00366519158706069
0,0.986111194908388,0.00555555575692586,-0.200000005729836,0.0305432621389627,-0.00885754637420177,-0.152105450630188
0,0.962500032893068,0.00555555575692586,-0.17361112072783,0.0613919571042061,-0.0873537287116051,-0.221133217215538
0,0.99583334084345,0.029166668768514,-0.187500003092477,0.0390953756868839,-0.257479697465897,-0.12705996632576
0,1.05000002704265,0.0680555564078778,-0.259722222994153,-0.0671951770782471,-0.240070044994354,0.0045814891345799
0,0.981944519258625,0.0486111125881959,-0.376388898068209,-0.223882108926773,-0.0394008085131645,0.0842994004487991
0,0.87500003874349,0.0541666679652478,-0.212499996211229,-0.391870051622391,-0.236099421977997,0.472809702157974
0,0.913888914226889,0.027777779924251,-0.179166676104882,-0.131641462445259,-0.395229816436768,0.522595226764679
0,0.861111119910949,0.0569444456537738,-0.211111128639904,-0.078801617026329,-0.204639852046967,0.79992800951004
0,0.948611114060526,0.027777779924251,-0.190277786858986,-0.00824668072164059,0.447458803653717,0.93554013967514
0,1.0361111082101,-0.0152777788063885,-0.254166679773066,-0.0491746515035629,0.718988418579102,0.831998467445374
0,1.19027781550816,-0.0833333367337618,-0.193055558469529,0.0464257597923279,0.368657171726227,0.656985580921173
0,1.1291666698927,-0.104166672436698,-0.184722231481934,0.161879286170006,0.0824668109416962,0.251065611839294
0,0.994444448960196,-0.143055560076062,-0.0902777839940679,0.127670839428902,0.112399205565453,0.0167987942695618
0,0.926388941176177,-0.0236111118719664,-0.2194444556275,0.118507854640484,0.143247902393341,0.241597205400467
0,1.00000001649321,-0.0541666679652478,-0.2194444556275,0.0675006061792374,0.234572261571884,0.212275668978691
0,1.00000001649321,-0.0541666679652478,-0.2194444556275,0.0598647929728031,0.0226020142436027,-0.206777885556221
0,1.04027778385987,-0.052777782159976,-0.200000005729836,-0.0143553335219622,0.017409659922123,-0.192727982997894
0,0.984722303025134,-0.0388888906783549,-0.194444450352783,-0.00794124789535999,0.0503963828086853,-0.279165416955948
0,0.926388941176177,-0.0402777795226179,-0.233333350148112,-0.0934623852372169,0.411112308502197,-0.618195652961731
0,0.991666665193688,-0.0458333348996699,-0.190277786858986,-0.037568211555481,0.498771458864212,-0.677449584007263
0,0.977777843608863,-0.00833333382532574,-0.187500003092477,-0.0629191175103188,0.436768651008606,-0.71959924697876
0,0.904166671044111,-0.00972222266958873,-0.187500003092477,-0.0503963828086853,0.394618958234787,-1.17438840866089
0,1.00138890837647,0.0472222237439329,-0.144444451959316,-0.00152716308366507,0.215635433793068,-0.672562658786774
0,1.06250005399193,0.0472222237439329,-0.143055560076062,0.0748309940099716,0.00794124789535999,-0.324064016342163
0,1.04166667574312,-0.00694444498106275,-0.151388899219622,0.127976268529892,-0.0888808965682983,-0.557414531707764
0,0.986111194908388,0.0416666683668809,-0.14583334384257,0.160046696662903,-0.240375474095344,-0.619417369365692
0,1.04305556762637,0.0902777839940679,-0.122222230451108,0.166766211390495,-0.484721571207047,-0.515264809131622
0,1.1083333888916,0.108333335930496,-0.144444451959316,0.213802829384804,-0.835969090461731,-0.296269655227661
0,1.1083333888916,0.108333335930496,-0.144444451959316,-0.251676470041275,0.0287106670439243,-0.262977480888367
0,1.05000002704265,0.0944444474878658,-0.234722242031366,-0.176234617829323,0.135001212358475,-0.00885754637420177
0,1.02916674604155,0.0708333340964038,-0.212499996211229,-0.081855945289135,0.208610475063324,-0.0482583530247212
0,1.02916674604155,0.0708333340964038,-0.212499996211229,0.00610865233466029,0.0800233483314514,0.00946841109544039
0,0.983333411141879,0.0750000036681839,-0.168055565350778,0.0265726372599602,0.136222943663597,0.00671951752156019
0,0.986111194908388,0.0763888894734557,-0.175000000455119,0.0213802829384804,0.0717766657471657,-0.058643065392971
0,0.970833384192592,0.0916666697993398,-0.140277788465518,-0.200363799929619,0.423329621553421,-0.0965167060494423
0,1.01527782720901,0.0930555616825939,-0.263888898643915,-0.317649930715561,0.886670887470245,-0.0384845100343227
0,1.00000001649321,0.0861111144222878,-0.193055558469529,-0.283746898174286,0.812145352363586,-0.0751364231109619
0,0.969444492309338,0.0722222259796579,-0.113888891307548,0.0348193198442459,0.610865235328674,-0.402560204267502
0,1.00694447590948,0.0125000003581147,-0.0388888906783549,0.114537231624126,0.129503428936005,-0.431576281785965
0,1.02500007039179,0.0958333393711199,-0.120833338567854,0.113315500319004,0.178983509540558,-0.460286974906921
0,0.983333411141879,0.105555564319952,-0.101388894748172,0.0632245540618896,0.1795943826437,-0.329561799764633
0,1.00972225967599,0.138888896582264,-0.115277783190802,0.0171042270958424,0.119729585945606,-0.13744467496872
0,1.02500007039179,0.141666668192807,-0.126388893944906,0.0265726372599602,0.134390354156494,-0.133168622851372
0,1.03750000009336,0.134722233088466,-0.120833338567854,0.070249505341053,0.0256563406437635,-0.0827722400426865
0,1.02916674604155,0.136111112815755,-0.105555564319952,0.135001212358475,-0.0858265683054924,-0.0949895456433296
0,1.02638896227504,0.108333335930496,-0.112499999424294,0.0171042270958424,0.150883719325066,-0.15851953625679
0,0.969444492309338,0.111111119697004,-0.125000002061652,-0.00244346098043024,0.183565005660057,-0.296269655227661
0,0.933333400592447,0.133333341205212,-0.0694444482911319,0.126449108123779,-0.04764748737216,-0.262977480888367
0,0.984722303025134,0.150000007336368,-0.186111123365188,0.0314595587551594,0.0167987942695618,-0.215635433793068
0,1.04166667574312,0.17361112072783,-0.158333334323963,-0.100181899964809,0.143858760595322,-0.173485726118088
0,1.03888889197661,0.170833336961321,-0.118055554801345,-0.135612085461616,0.244346097111702,-0.0684169083833694
0,1.04166667574312,0.158333334323963,-0.10972222781375,-0.0858265683054924,0.167071640491486,0.013744467869401
0,1.01527782720901,0.159722226207217,-0.0986111170596459,-0.0293215326964855,-0.000610865245107561,-0.0693332031369209
0,1.00555558402623,0.141666668192807,-0.0861111144222878,-0.081855945289135,-0.0577267669141293,-0.10048733651638
0,0.987499989543926,0.154166670830166,-0.0500000014324589,0.0626136884093285,-0.25961771607399,-0.000305432622553781
0,0.944444438410764,0.177777784221628,-0.143055560076062,-0.261755764484406,0.193338856101036,0.0616973899304867
0,0.980555627375371,0.17361112072783,-0.161111118090472,-0.235488548874855,0.264504641294479,-0.0342084541916847
0,1.01111115155925,0.166666673467524,-0.111111119697004,-0.0626136884093285,0.107512280344963,-0.0400116741657257
0,1.00833336779274,0.14722222356986,-0.0625000010308258,0.0311541277915239,-0.0616973899304867,0.00610865233466029
0,0.965277816659576,0.138888896582264,-0.0513888902767219,0.12705996632576,-0.304821759462357,0.0763581544160843
0,0.863888903677457,0.15555556271342,-0.0847222225390337,-0.0503963828086853,-0.362548530101776,0.53328537940979
0,0.786111152710659,0.151388899219622,-0.12777778582816,-0.138360977172852,-0.106290549039841,0.7889324426651
0,0.904166671044111,0.152777778946911,-0.13750000469901,-0.0452040284872055,-0.0207694191485643,0.953560650348663
0,0.991666665193688,0.125000002061652,-0.136111112815755,0.027488935738802,0.0571159012615681,0.837801694869995
0,1.06111116210868,0.0750000036681839,-0.13750000469901,0.0968221426010132,0.314290165901184,0.702800452709198
0,1.10138892947533,0.055555559848502,-0.133333341205212,0.0409279726445675,0.53328537940979,0.272140473127365
0,1.14444448060849,0.0416666683668809,-0.105555564319952,-0.000610865245107561,0.397978693246841,-0.212275668978691
0,1.05694448645892,0.0652777787193518,-0.0833333367337618,0.0616973899304867,0.297491371631622,-0.0928515195846558
0,1.08750001064279,0.0791666671619817,-0.0777777813567098,0.0726929605007172,0.156381502747536,-0.0516181141138077
0,1.04166667574312,0.0875000002275597,-0.0611111152255539,0.102625362575054,-0.0183259565383196,0.0409279726445675
0,1.04166667574312,0.0777777813567098,-0.0847222225390337,0.0626136884093285,-0.00671951752156019,0.0342084541916847
0,1.0513889189259,0.0680555564078778,-0.0944444474878658,0.0186313893646002,-0.00702495034784079,-0.0326812900602817
0,1.02222228662528,0.0819444448505077,-0.0694444482911319,-0.000610865245107561,-0.116675265133381,-0.0705549344420433
0,1.00277780025972,0.0819444448505077,-0.0583333375370279,0.0207694191485643,-0.168598800897598,-0.00794124789535999
0,1.02777785415829,0.0833333367337618,-0.0875000002275597,-0.0314595587551594,-0.0479529201984406,0.0479529201984406
0,1.01527782720901,0.0875000002275597,-0.0847222225390337,-0.0561996027827263,-0.01191187184304,0.0342084541916847
0,1.04722224327614,0.0861111144222878,-0.0986111170596459,-0.0684169083833694,0.189368233084679,-0.0311541277915239
0,1.02222228662528,0.0819444448505077,-0.105555564319952,0.0226020142436027,0.136222943663597,-0.0308486949652433
0,0.976388951725609,0.0791666671619817,-0.0750000036681839,0.0772744566202164,-0.0201585534960032,0.0421497002243996
0,1.01666671909226,0.0708333340964038,-0.112499999424294,0.109650313854218,-0.0855211317539215,-0.00763581553474069
0,1.02777785415829,0.0819444448505077,-0.0916666697993398,0.0610865242779255,-0.102319926023483,-0.0675006061792374
0,1.04166667574312,0.0736111117849297,-0.0861111144222878,0.0210748501121998,-0.149661988019943,-0.0653625801205635
0,1.02361117850853,0.0805555590452358,-0.0736111117849297,0.0164933614432812,-0.107817716896534,0.00397062394768
0,1.05000002704265,0.0597222233422998,-0.113888891307548,0.0305432621389627,-0.0229074470698834,0.0253509078174829
0,1.01527782720901,0.0666666706026059,-0.101388894748172,0.0610865242779255,0.0879645943641663,0.0143553335219622
0,1.02361117850853,0.0722222259796579,-0.104166672436698,0.0626136884093285,0.266642689704895,-0.017409659922123
0,1.02222228662528,0.0916666697993398,-0.115277783190802,0.0577267669141293,0.475253164768219,0.00488692196086049
0,1.01944450285877,0.101388894748172,-0.0847222225390337,0.0351247526705265,0.526871263980865,0.0342084541916847
0,1.01944450285877,0.0750000036681839,-0.0486111125881959,0.0448985956609249,0.262366622686386,-0.0103847095742822
0,1.04027778385987,0.0652777787193518,-0.0569444456537738,0.0366519130766392,0.114537231624126,-0.0742201283574104
0,1.04583335139288,0.0916666697993398,-0.0666666706026059,-0.0507018156349659,0.0552833043038845,-0.0491746515035629
0,1.08472222687628,0.0888888921108138,-0.0583333375370279,-0.087659165263176,0.137139245867729,0.0751364231109619
0,1.07500008094122,0.0888888921108138,-0.0680555564078778,-0.00488692196086049,0.179288953542709,0.202807262539864
0,1.02500007039179,0.0680555564078778,-0.0430555572111439,0.00702495034784079,-0.0956004112958908,0.223271250724793
0,1.0125000434425,0.0402777795226179,-0.0194444453391775,-0.151494577527046,-0.479834645986557,0.0519235469400883
0,0.92083337364316,0.0347222241455659,-0.0194444453391775,-0.000916297896765172,-1.10963666439056,0.0720821022987366
0,0.983333411141879,0.0458333348996699,-0.140277788465518,-0.0968221426010132,1.25380086898804,0.0177150927484035
0,0.911111130460381,0.0513888902767219,-0.00138888893923146,0.187535628676414,-0.251676470041275,-0.0204639863222837
0,0.955555573476797,0.0944444474878658,-0.0500000014324589,0.0861319974064827,-0.705854773521423,-0.0946841165423393
0,1.05000002704265,0.0875000002275597,-0.108333335930496,0.0189368221908808,-0.0164933614432812,-0.015577063895762
0,1.04027778385987,0.0722222259796579,-0.125000002061652,0.0513126812875271,-0.01191187184304,0.0219911485910416
0,1.03194452980806,0.0708333340964038,-0.0916666697993398,0.0598647929728031,-0.0980438739061356,0.0033597587607801
0,1.03194452980806,0.0583333375370279,-0.102777780553444,0.0555887371301651,0.03176499158144,0.00580321997404099
0,0.984722303025134,0.0777777813567098,-0.0888888921108138,0.04764748737216,0.0213802829384804,-0.00702495034784079
0,1.00972225967599,0.0763888894734557,-0.0847222225390337,-0.0262672062963247,-0.0946841165423393,-0.0186313893646002
0,1.01805561097552,0.0777777813567098,-0.108333335930496,-0.0681114718317986,0.0232128798961639,0.00122173049021512
0,1.01944450285877,0.0597222233422998,-0.0986111170596459,-0.0171042270958424,0.00977384392172098,0.00244346098043024
0,1.01805561097552,0.0597222233422998,-0.0875000002275597,0.0311541277915239,-0.0143553335219622,-0.000305432622553781
0,1.02083339474202,0.0625000010308258,-0.0986111170596459,0.0021380283869803,0.0372627787292004,-0.0106901414692402
0,1.00972225967599,0.0652777787193518,-0.0958333393711199,0.0268780700862408,-0.0537561401724815,-0.0152716310694814
0,1.00833336779274,0.0638888929140799,-0.0888888921108138,0.0577267669141293,0.0638354197144508,0.027488935738802
0,1.02500007039179,0.0652777787193518,-0.0541666679652478,-0.118507854640484,0.161268427968025,0.0226020142436027
0,1.00694447590948,0.0652777787193518,-0.0638888929140799,-0.0290160998702049,-0.0140499006956816,-0.00671951752156019
0,1.00694447590948,0.0652777787193518,-0.0638888929140799,-0.0705549344420433,-0.00794124789535999,0.0192422550171614
0,1.01388893532575,0.0694444482911319,-0.0875000002275597,-0.0784961804747581,0.00885754637420177,0.015577063895762
0,1.0361111082101,0.0680555564078778,-0.0916666697993398,-0.0992656052112579,0.00427605677396059,-0.015577063895762
0,1.0361111082101,0.0680555564078778,-0.0916666697993398,-0.120340451598167,0.0766635909676552,-0.017409659922123
0,1.00138890837647,0.0750000036681839,-0.0833333367337618,-0.0696386396884918,-0.0335975885391235,-0.0323758572340012
0,1.02916674604155,0.0819444448505077,-0.100000002864918,-0.081855945289135,0.0473420582711697,-0.00610865233466029
0,1.02916674604155,0.0819444448505077,-0.100000002864918,-0.00671951752156019,0.0558941699564457,0.00183259579353034
0,1.04027778385987,0.0805555590452358,-0.125000002061652,-0.0467311926186085,0.0891863256692886,0.00549778714776039
0,1.02222228662528,0.0513888902767219,-0.0777777813567098,-0.0635299831628799,0.11606439948082,0.00305432616733015
0,1.02222228662528,0.0513888902767219,-0.0777777813567098,-0.141720741987228,0.16890424489975,-0.0149661982432008
0,0.993055557076942,0.0777777813567098,-0.0611111152255539,0.150883719325066,-0.130114302039146,0.0131336031481624
0,1.04166667574312,0.0777777813567098,-0.0875000002275597,0.0488692186772823,-0.0406225398182869,-0.0171042270958424
0,1.04166667574312,0.0777777813567098,-0.0875000002275597,-0.0122173046693206,0.183870434761047,0.0109955742955208
0,1.05833337834217,0.0750000036681839,-0.0694444482911319,-0.176540061831474,0.133779495954514,-0.00427605677396059
0,0.979166735492117,0.0583333375370279,-0.030555557612777,-0.0998764708638191,-0.0180205255746841,-0.0134390350431204
0,1.00138890837647,0.0597222233422998,-0.0750000036681839,-0.0149661982432008,-0.0849102661013603,-0.0268780700862408
0,1.04166667574312,0.0583333375370279,-0.0916666697993398,0.096211276948452,-0.0791070461273193,0.0149661982432008
0,1.0305556379248,0.0777777813567098,-0.0833333367337618,-0.0571159012615681,-0.198531210422516,0.0106901414692402
0,1.01111115155925,0.0875000002275597,-0.0972222251763917,-0.200058370828629,-0.294437050819397,0.0113010071218014
0,1.01944450285877,0.0680555564078778,-0.0625000010308258,-0.0543670058250427,-0.313679307699203,-0.0503963828086853
0,1.02222228662528,0.0694444482911319,-0.0722222259796579,0.0372627787292004,-0.266642689704895,-0.0387899428606033
0,1.01527782720901,0.0777777813567098,-0.104166672436698,0.0531452745199203,-0.0681114718317986,-0.00244346098043024
0,1.01666671909226,0.0847222225390337,-0.105555564319952,0.0360410511493683,-0.0629191175103188,0.0241291765123606
0,1.0361111082101,0.0722222259796579,-0.0875000002275597,0.0387899428606033,-0.281303435564041,0.0510072484612465
0,1.00972225967599,0.0666666706026059,-0.111111119697004,0.00794124789535999,-0.37079519033432,0.0293215326964855
0,1.00000001649321,0.0652777787193518,-0.1194444466846,-0.0222965814173222,-0.356745302677154,0.00397062394768
0,1.00972225967599,0.0680555564078778,-0.12777778582816,0.0204639863222837,-0.187230199575424,-0.0696386396884918
0,1.01111115155925,0.0763888894734557,-0.108333335930496,0.0387899428606033,-0.190895393490791,-0.0852157026529312
0,1.01388893532575,0.0916666697993398,-0.144444451959316,0.0222965814173222,-0.10048733651638,-0.0244346093386412
0,1.01944450285877,0.0819444448505077,-0.138888896582264,0.00977384392172098,-0.0800233483314514,0.0229074470698834
0,1.01944450285877,0.0722222259796579,-0.14722222356986,-0.0345138870179653,0.0164933614432812,0.0103847095742822
0,1.01111115155925,0.0750000036681839,-0.156944454596674,-0.064446285367012,0.111788339912891,-0.0128281703218818
0,1.01805561097552,0.0694444482911319,-0.154166670830166,-0.0717766657471657,0.291688144207001,-0.02382374368608
0,1.02638896227504,0.0805555590452358,-0.12777778582816,0.0931569486856461,0.267864406108856,0.0186313893646002
0,1.0125000434425,0.0819444448505077,-0.118055554801345,0.182648703455925,0.290160983800888,0.0580321997404099
0,1.01666671909226,0.0819444448505077,-0.0916666697993398,0.146913096308708,0.18020524084568,-0.0210748501121998
0,1.00555558402623,0.0652777787193518,-0.0819444448505077,0.11606439948082,0.135001212358475,-0.00794124789535999
0,1.02638896227504,0.0611111152255539,-0.111111119697004,0.0653625801205635,0.0665843114256859,0.00763581553474069
0,1.00972225967599,0.0736111117849297,-0.0944444474878658,0.0638354197144508,0.019547687843442,0.00427605677396059
0,1.00138890837647,0.0680555564078778,-0.0875000002275597,0.0497855171561241,-0.0754418596625328,-0.0198531206697226
0,1.00833336779274,0.0694444482911319,-0.0972222251763917,0.000610865245107561,-0.0561996027827263,-0.0222965814173222
5,1.03472221632685,0.0763888894734557,-0.125000002061652,-0.0403171069920063,0.162795588374138,-0.0100792767480016
5,1.01944450285877,0.0819444448505077,-0.100000002864918,-0.0204639863222837,0.0339030213654041,0.00671951752156019
5,1.00416669214298,0.0722222259796579,-0.100000002864918,-0.0323758572340012,0.0122173046693206,0.00244346098043024
5,1.00138890837647,0.0680555564078778,-0.105555564319952,0.0152716310694814,-0.00733038317412138,0.00824668072164059
5,1.01944450285877,0.0680555564078778,-0.0972222251763917,0.0326812900602817,0.0229074470698834,-0.00244346098043024
5,1.02222228662528,0.0763888894734557,-0.102777780553444,0.00794124789535999,0.029626963660121,-0.0021380283869803
5,1.02083339474202,0.0680555564078778,-0.0972222251763917,0.017409659922123,-0.0192422550171614,-0.0113010071218014
5,1.01805561097552,0.0750000036681839,-0.111111119697004,-0.0280998013913631,0.00366519158706069,0.00122173049021512
5,1.00555558402623,0.0763888894734557,-0.0986111170596459,-0.00824668072164059,-0.0623082555830479,-0.00916297826915979
5,1.01527782720901,0.0777777813567098,-0.102777780553444,0.0103847095742822,-0.0681114718317986,-0.0250454749912024
5,1.02361117850853,0.0722222259796579,-0.10972222781375,-0.0384845100343227,-0.0128281703218818,-0.0113010071218014
5,1.02916674604155,0.0763888894734557,-0.104166672436698,-0.120035022497177,0.0448985956609249,0.00977384392172098
5,1.01527782720901,0.0861111144222878,-0.111111119697004,-0.117896988987923,-0.000610865245107561,0.00763581553474069
5,0.998611124609959,0.0777777813567098,-0.0930555616825939,0.0812450796365738,-0.128892570734024,0.0222965814173222
5,1.00277780025972,0.0847222225390337,-0.106944444047242,0.214108273386955,-0.221133217215538,-0.000305432622553781
5,1.02222228662528,0.0791666671619817,-0.123611110178398,0.165849909186363,-0.150883719325066,-0.00916297826915979
5,1.02916674604155,0.0861111144222878,-0.113888891307548,0.0152716310694814,-0.0363464802503586,-0.0100792767480016
5,1.02083339474202,0.0819444448505077,-0.102777780553444,-0.0653625801205635,0.0152716310694814,0.00122173049021512
5,1.0125000434425,0.0666666706026059,-0.116666675074056,-0.0348193198442459,0.0323758572340012,0.00671951752156019
5,1.00972225967599,0.0722222259796579,-0.113888891307548,-0.0229074470698834,0.0534507073462009,-0.000916297896765172
5,1.01527782720901,0.0680555564078778,-0.113888891307548,-0.0271835029125214,0.0565050356090069,0.00244346098043024
5,1.02222228662528,0.0680555564078778,-0.113888891307548,0.0167987942695618,0.08460483700037,0.017409659922123
5,1.02500007039179,0.0680555564078778,-0.106944444047242,0.0494800843298435,0.087659165263176,0.0143553335219622
5,1.02361117850853,0.0694444482911319,-0.104166672436698,0.0314595587551594,0.140193566679955,0.0122173046693206
5,1.00416669214298,0.0666666706026059,-0.0888888921108138,-0.0131336031481624,0.0302378293126821,-0.0268780700862408
5,1.01527782720901,0.0986111170596459,-0.125000002061652,0.0109955742955208,-0.0293215326964855,-0.0280998013913631
5,1.02500007039179,0.0791666671619817,-0.122222230451108,-0.0433714315295219,0.0946841165423393,-0.00671951752156019
5,1.01666671909226,0.0611111152255539,-0.106944444047242,-0.0149661982432008,0.138971850275993,-0.00549778714776039
5,1.01805561097552,0.0652777787193518,-0.106944444047242,0.0610865242779255,-0.0140499006956816,0.00152716308366507
5,1.01944450285877,0.0722222259796579,-0.111111119697004,0.107206851243973,0.0565050356090069,0.0394008085131645
5,1.01111115155925,0.0875000002275597,-0.152777778946911,0.0280998013913631,-0.00519235478714108,0.0271835029125214
5,1.01527782720901,0.0791666671619817,-0.122222230451108,-0.0149661982432008,0.0189368221908808,0.00733038317412138
5,1.01666671909226,0.0708333340964038,-0.104166672436698,0.00152716308366507,-0.0045814891345799,0.0045814891345799
5,1.01666671909226,0.0708333340964038,-0.104166672436698,0.00794124789535999,-0.00305432616733015,0.00305432616733015
5,1.01944450285877,0.0680555564078778,-0.101388894748172,0.00305432616733015,-0.0021380283869803,0.00305432616733015
5,1.01805561097552,0.0680555564078778,-0.105555564319952,0.00488692196086049,-0.00366519158706069,-0.000916297896765172
5,1.01944450285877,0.0722222259796579,-0.101388894748172,0.0128281703218818,-0.0045814891345799,-0.00824668072164059
5,1.01527782720901,0.0750000036681839,-0.101388894748172,0.0146607663482428,-0.00824668072164059,-0.00427605677396059
5,1.01388893532575,0.0722222259796579,-0.106944444047242,0.0161879286170006,0.00488692196086049,0.00366519158706069
5,1.0125000434425,0.0666666706026059,-0.0986111170596459,0.0100792767480016,-0.0143553335219622,-0.0045814891345799
5,1.01388893532575,0.0680555564078778,-0.0944444474878658,0.0152716310694814,-0.00549778714776039,-0.00122173049021512
5,1.01666671909226,0.0708333340964038,-0.100000002864918,0.00855211354792118,-0.00824668072164059,0.00305432616733015
5,1.01666671909226,0.0722222259796579,-0.106944444047242,0.00671951752156019,-0.0021380283869803,0.0027488935738802
5,1.01944450285877,0.0736111117849297,-0.101388894748172,0.00733038317412138,-0.00580321997404099,-0.00397062394768
5,1.01527782720901,0.0722222259796579,-0.100000002864918,0.00733038317412138,-0.0027488935738802,-0.01191187184304
5,1.01111115155925,0.0736111117849297,-0.106944444047242,0.00122173049021512,-0.00427605677396059,-0.000916297896765172
5,1.01527782720901,0.0694444482911319,-0.106944444047242,0.00488692196086049,-0.00824668072164059,0.00122173049021512
5,1.01944450285877,0.0694444482911319,-0.101388894748172,0.00610865233466029,-0.00427605677396059,-0.0027488935738802
5,1.01666671909226,0.0694444482911319,-0.0944444474878658,0.0103847095742822,-0.00488692196086049,-0.0027488935738802
5,1.01944450285877,0.0680555564078778,-0.0902777839940679,0.0125227374956012,0.000610865245107561,-0.00763581553474069
5,1.01944450285877,0.0680555564078778,-0.0902777839940679,0.0122173046693206,-0.0045814891345799,-0.00549778714776039
5,1.0125000434425,0.0750000036681839,-0.101388894748172,0.0161879286170006,-0.0027488935738802,-0.011606439948082
5,1.01388893532575,0.0736111117849297,-0.106944444047242,0.01191187184304,-0.0109955742955208,-0.00916297826915979
5,1.01388893532575,0.0736111117849297,-0.106944444047242,0.0103847095742822,-0.00794124789535999,-0.00824668072164059
5,1.01805561097552,0.0777777813567098,-0.101388894748172,0.000916297896765172,-0.011606439948082,-0.0021380283869803
5,1.0125000434425,0.0777777813567098,-0.104166672436698,-0.00549778714776039,-0.01588249579072,-0.00885754637420177
5,1.0125000434425,0.0777777813567098,-0.104166672436698,-0.0134390350431204,-0.0280998013913631,-0.00977384392172098
5,1.01388893532575,0.0750000036681839,-0.104166672436698,0.000610865245107561,-0.0302378293126821,-0.0100792767480016
5,1.02222228662528,0.0777777813567098,-0.111111119697004,-0.0027488935738802,-0.0152716310694814,-0.0109955742955208
5,1.02222228662528,0.0777777813567098,-0.111111119697004,-0.0109955742955208,-0.0207694191485643,-0.00946841109544039
5,1.02083339474202,0.0847222225390337,-0.112499999424294,-0.0305432621389627,-0.0213802829384804,-0.00733038317412138
5,1.01805561097552,0.0888888921108138,-0.106944444047242,-0.0452040284872055,-0.0131336031481624,-0.000916297896765172
5,1.01111115155925,0.0930555616825939,-0.108333335930496,-0.0561996027827263,-0.0125227374956012,-0.0027488935738802
5,1.01666671909226,0.0875000002275597,-0.1194444466846,-0.0558941699564457,0.00152716308366507,0.0021380283869803
5,1.01527782720901,0.0847222225390337,-0.113888891307548,-0.0653625801205635,-0.0180205255746841,-0.000610865245107561
5,1.01388893532575,0.0847222225390337,-0.104166672436698,-0.0662788823246956,-0.017409659922123,-0.00641408516094089
5,1.01666671909226,0.0861111144222878,-0.111111119697004,-0.0775798857212067,-0.0146607663482428,0.00152716308366507
5,1.01944450285877,0.0875000002275597,-0.111111119697004,-0.0821613743901253,-0.0033597587607801,-0.000916297896765172
5,1.01388893532575,0.0847222225390337,-0.113888891307548,-0.0714712366461754,0.00366519158706069,0.00244346098043024
5,1.01805561097552,0.0763888894734557,-0.113888891307548,-0.0580321997404099,-0.00122173049021512,0.0146607663482428
5,1.0125000434425,0.0750000036681839,-0.10972222781375,-0.0494800843298435,-0.0146607663482428,0.0143553335219622
5,1.0125000434425,0.0750000036681839,-0.105555564319952,-0.0378736443817616,-0.0106901414692402,0.000916297896765172
5,1.0125000434425,0.0777777813567098,-0.0944444474878658,-0.02382374368608,-0.015577063895762,0.00427605677396059
5,1.00694447590948,0.0805555590452358,-0.105555564319952,-0.0219911485910416,-0.0360410511493683,0.00305432616733015
5,1.01388893532575,0.0777777813567098,-0.108333335930496,-0.0226020142436027,-0.0241291765123606,0.00610865233466029
5,1.01805561097552,0.0791666671619817,-0.104166672436698,-0.0192422550171614,-0.0164933614432812,-0.00488692196086049
5,1.01111115155925,0.0763888894734557,-0.0958333393711199,-0.0134390350431204,-0.0226020142436027,-0.00763581553474069
5,1.00972225967599,0.0847222225390337,-0.102777780553444,-0.00824668072164059,-0.0397062413394451,-0.0113010071218014
5,1.01111115155925,0.0736111117849297,-0.106944444047242,-0.00855211354792118,-0.0409279726445675,-0.015577063895762
5,1.01527782720901,0.0777777813567098,-0.100000002864918,-0.00855211354792118,-0.0348193198442459,-0.0213802829384804
5,1.01805561097552,0.0833333367337618,-0.102777780553444,-0.0100792767480016,-0.0394008085131645,-0.0180205255746841
5,1.01527782720901,0.0777777813567098,-0.106944444047242,-0.0204639863222837,-0.0357356183230877,-0.0122173046693206
5,1.0125000434425,0.0791666671619817,-0.111111119697004,-0.0241291765123606,-0.03176499158144,-0.0131336031481624
5,1.02222228662528,0.0888888921108138,-0.113888891307548,-0.0311541277915239,0.0140499006956816,-0.00885754637420177
5,1.03472221632685,0.0916666697993398,-0.125000002061652,-0.00580321997404099,0.019547687843442,-0.0320704244077206
5,1.02500007039179,0.0805555590452358,-0.120833338567854,-0.0122173046693206,-0.000916297896765172,-0.0192422550171614
5,1.0125000434425,0.0625000010308258,-0.101388894748172,-0.000916297896765172,-0.0384845100343227,-0.0140499006956816
5,1.00555558402623,0.0541666679652478,-0.0986111170596459,0.00519235478714108,-0.0357356183230877,-0.011606439948082
5,1.01111115155925,0.0569444456537738,-0.101388894748172,-0.00183259579353034,-0.0241291765123606,-0.0033597587607801
5,1.0125000434425,0.0569444456537738,-0.111111119697004,0.0021380283869803,-0.0198531206697226,-0.00122173049021512
5,1.02083339474202,0.0583333375370279,-0.105555564319952,0.00152716308366507,-0.0183259565383196,-0.000610865245107561
5,1.01944450285877,0.055555559848502,-0.104166672436698,-0.00183259579353034,-0.00763581553474069,-0.00885754637420177
5,1.01944450285877,0.055555559848502,-0.104166672436698,0.00855211354792118,-0.0161879286170006,-0.000610865245107561
5,1.01388893532575,0.0652777787193518,-0.112499999424294,0.0113010071218014,-0.0213802829384804,-0.00397062394768
5,1.01666671909226,0.0680555564078778,-0.115277783190802,0.011606439948082,-0.015577063895762,-0.00488692196086049
5,1.01944450285877,0.0680555564078778,-0.113888891307548,0.0210748501121998,-0.0183259565383196,0.00794124789535999
5,1.01805561097552,0.0708333340964038,-0.1194444466846,0.0244346093386412,-0.00610865233466029,0.0045814891345799
5,1.02222228662528,0.0694444482911319,-0.113888891307548,0.0189368221908808,0.00397062394768,0.0045814891345799
5,1.01944450285877,0.0777777813567098,-0.120833338567854,0.0183259565383196,0.027488935738802,0.00733038317412138
5,1.01666671909226,0.0777777813567098,-0.1194444466846,0.013744467869401,0.0287106670439243,0.00427605677396059
5,1.0125000434425,0.0777777813567098,-0.116666675074056,0.0146607663482428,0.0177150927484035,0.00885754637420177
5,1.0125000434425,0.0680555564078778,-0.113888891307548,0.00519235478714108,0.00702495034784079,0.00885754637420177
5,1.01527782720901,0.0722222259796579,-0.113888891307548,0.00733038317412138,0.00244346098043024,0.00397062394768
5,1.01666671909226,0.0722222259796579,-0.122222230451108,0.0201585534960032,0.0192422550171614,0.00519235478714108
5,1.01527782720901,0.0708333340964038,-0.126388893944906,0.0244346093386412,0.021685715764761,0.00488692196086049
5,1.01388893532575,0.0652777787193518,-0.116666675074056,0.0384845100343227,0.0189368221908808,0.0106901414692402
5,1.00833336779274,0.0638888929140799,-0.111111119697004,0.0335975885391235,-0.0033597587607801,0.00152716308366507
5,1.0125000434425,0.0666666706026059,-0.115277783190802,0.0397062413394451,-0.015577063895762,0.00824668072164059
5,1.0125000434425,0.0722222259796579,-0.112499999424294,0.0409279726445675,-0.0201585534960032,-0.00427605677396059
5,1.0125000434425,0.0666666706026059,-0.113888891307548,0.0543670058250427,-0.0143553335219622,-0.0143553335219622
5,1.01388893532575,0.0750000036681839,-0.106944444047242,0.0537561401724815,-0.011606439948082,-0.011606439948082
5,1.01111115155925,0.0763888894734557,-0.111111119697004,0.0531452745199203,-0.0134390350431204,-0.00946841109544039
5,1.0125000434425,0.0777777813567098,-0.111111119697004,0.0427605658769607,-0.0207694191485643,-0.0128281703218818
5,1.01527782720901,0.0777777813567098,-0.10972222781375,0.0439822971820831,-0.0167987942695618,-0.00733038317412138
5,1.01111115155925,0.0819444448505077,-0.108333335930496,0.0473420582711697,-0.015577063895762,-0.00427605677396059
5,1.0125000434425,0.0763888894734557,-0.115277783190802,0.0448985956609249,-0.00946841109544039,-0.0021380283869803
5,1.01527782720901,0.0777777813567098,-0.112499999424294,0.0525344125926495,-0.0106901414692402,-0.0045814891345799
5,1.01666671909226,0.0750000036681839,-0.112499999424294,0.0507018156349659,-0.01191187184304,-0.00397062394768
5,1.0125000434425,0.0763888894734557,-0.115277783190802,0.0470366254448891,-0.0103847095742822,0.000916297896765172
5,1.0125000434425,0.0763888894734557,-0.120833338567854,0.0513126812875271,-0.00610865233466029,-0.00702495034784079
5,1.01111115155925,0.0805555590452358,-0.113888891307548,0.0436768643558025,-0.00122173049021512,-0.00122173049021512
5,1.01111115155925,0.0819444448505077,-0.115277783190802,0.0522289797663689,0.0027488935738802,-0.0045814891345799
5,1.0125000434425,0.0888888921108138,-0.112499999424294,0.0470366254448891,-0.00366519158706069,-0.00763581553474069
5,1.01388893532575,0.0819444448505077,-0.1194444466846,0.0332921557128429,-0.0045814891345799,0.000916297896765172
5,1.01527782720901,0.0833333367337618,-0.118055554801345,0.03176499158144,-0.00183259579353034,-0.00641408516094089
5,1.01527782720901,0.0847222225390337,-0.115277783190802,0.0247400421649218,-0.00733038317412138,-0.000610865245107561
5,1.01666671909226,0.0861111144222878,-0.120833338567854,0.0284052342176437,-0.00366519158706069,-0.00122173049021512
5,1.01527782720901,0.0777777813567098,-0.118055554801345,0.0192422550171614,0.00671951752156019,-0.00885754637420177
5,1.01527782720901,0.0819444448505077,-0.130555557438704,0.0122173046693206,0.00305432616733015,-0.0045814891345799
5,1.0125000434425,0.0805555590452358,-0.111111119697004,0.01588249579072,-0.0027488935738802,-0.00641408516094089
5,1.01527782720901,0.0805555590452358,-0.111111119697004,0.01191187184304,-0.00488692196086049,-0.00733038317412138
5,1.02083339474202,0.0819444448505077,-0.115277783190802,0.00855211354792118,-0.00519235478714108,-0.00794124789535999
5,1.01388893532575,0.0847222225390337,-0.125000002061652,0.00549778714776039,-0.00946841109544039,-0.00519235478714108
5,1.0125000434425,0.0791666671619817,-0.111111119697004,0.00946841109544039,-0.00519235478714108,-0.00427605677396059
5,1.0125000434425,0.0819444448505077,-0.115277783190802,0.00885754637420177,0.00885754637420177,0.000610865245107561
5,1.0125000434425,0.0875000002275597,-0.116666675074056,-0.00397062394768,0.000916297896765172,-0.00427605677396059
5,1.01944450285877,0.0819444448505077,-0.122222230451108,0.00641408516094089,0.00122173049021512,0.00183259579353034
5,1.0125000434425,0.0805555590452358,-0.1194444466846,0.019547687843442,0.00916297826915979,0.00671951752156019
5,1.01388893532575,0.0805555590452358,-0.116666675074056,0.0259617734700441,0.0183259565383196,0.00977384392172098
5,1.01527782720901,0.0833333367337618,-0.122222230451108,0.0256563406437635,0.0021380283869803,-0.00244346098043024
5,1.01388893532575,0.0833333367337618,-0.126388893944906,0.0210748501121998,0.000610865245107561,0.00183259579353034
5,1.01388893532575,0.0833333367337618,-0.126388893944906,0.0177150927484035,-0.0021380283869803,-0.0021380283869803
5,1.01666671909226,0.0847222225390337,-0.1194444466846,0.017409659922123,-0.000305432622553781,-0.0021380283869803
5,1.01805561097552,0.0847222225390337,-0.1194444466846,0.0128281703218818,0.00397062394768,0.000916297896765172
5,1.01527782720901,0.0875000002275597,-0.120833338567854,0.0146607663482428,0.0131336031481624,0.000305432622553781
5,1.01527782720901,0.0875000002275597,-0.120833338567854,0.0201585534960032,0.015577063895762,-0.0027488935738802
5,1.0125000434425,0.0791666671619817,-0.118055554801345,0.0106901414692402,0.00794124789535999,-0.000916297896765172
5,1.0125000434425,0.0791666671619817,-0.118055554801345,0.0122173046693206,-0.00397062394768,-0.0103847095742822
5,1.01388893532575,0.0819444448505077,-0.120833338567854,0.00580321997404099,0.00549778714776039,-0.00519235478714108
5,1.01388893532575,0.0819444448505077,-0.120833338567854,-0.0027488935738802,0.00763581553474069,0.0021380283869803
5,1.01388893532575,0.0847222225390337,-0.12916666555545,0.00916297826915979,0.0122173046693206,-0.00183259579353034
5,1.01388893532575,0.0847222225390337,-0.12916666555545,0.00946841109544039,0.0152716310694814,0.00366519158706069
5,1.01527782720901,0.0750000036681839,-0.112499999424294,0.00763581553474069,0.0103847095742822,0.0100792767480016
5,1.01666671909226,0.0805555590452358,-0.125000002061652,-0.00152716308366507,0.0045814891345799,0.011606439948082
5,1.01666671909226,0.0805555590452358,-0.125000002061652,0.0033597587607801,0.00733038317412138,-0.00183259579353034
5,1.01388893532575,0.0805555590452358,-0.1194444466846,0.00397062394768,0.0109955742955208,0.00671951752156019
5,1.01527782720901,0.0777777813567098,-0.122222230451108,0.00855211354792118,0.01191187184304,0.00366519158706069
5,1.01388893532575,0.0736111117849297,-0.120833338567854,0.0106901414692402,0.00733038317412138,-0.000610865245107561
5,1.00972225967599,0.0847222225390337,-0.1194444466846,0.0131336031481624,0.00183259579353034,-0.00366519158706069
5,1.01666671909226,0.0833333367337618,-0.122222230451108,0.00885754637420177,0.00824668072164059,-0.00610865233466029
5,1.01527782720901,0.0791666671619817,-0.116666675074056,0.00427605677396059,0.00183259579353034,-0.00244346098043024
5,1.0125000434425,0.0763888894734557,-0.118055554801345,0.00305432616733015,0.00549778714776039,-0.00366519158706069
5,1.02083339474202,0.0750000036681839,-0.122222230451108,0.00977384392172098,-0.000610865245107561,-0.00183259579353034
5,1.01805561097552,0.0722222259796579,-0.12777778582816,0.0140499006956816,0.00244346098043024,-0.00183259579353034
5,1.01805561097552,0.0750000036681839,-0.118055554801345,0.00397062394768,0.00488692196086049,0.000305432622553781
5,1.01527782720901,0.0777777813567098,-0.115277783190802,0.0113010071218014,0.00305432616733015,0.000305432622553781
5,1.01666671909226,0.0736111117849297,-0.1194444466846,0.0128281703218818,-0.00122173049021512,0.00122173049021512
5,1.01527782720901,0.0736111117849297,-0.111111119697004,0.01588249579072,0.000610865245107561,0.00519235478714108
5,1.01527782720901,0.0763888894734557,-0.125000002061652,0.011606439948082,0.00366519158706069,-0.00183259579353034
5,1.01111115155925,0.0777777813567098,-0.125000002061652,0.00733038317412138,0.000916297896765172,0.00610865233466029
5,1.0125000434425,0.0750000036681839,-0.12777778582816,0.00580321997404099,0.00610865233466029,0.0106901414692402
5,1.0125000434425,0.0722222259796579,-0.12777778582816,0.0106901414692402,0.00855211354792118,-0.00122173049021512
5,1.01388893532575,0.0777777813567098,-0.118055554801345,0.0106901414692402,0.0128281703218818,0.00641408516094089
5,1.00833336779274,0.0791666671619817,-0.116666675074056,0.00916297826915979,0.0140499006956816,-0.00183259579353034
5,1.00972225967599,0.0763888894734557,-0.120833338567854,-0.00122173049021512,0.0125227374956012,0.00580321997404099
5,1.01388893532575,0.0750000036681839,-0.118055554801345,0.00488692196086049,-0.0027488935738802,-0.00366519158706069
5,1.01388893532575,0.0736111117849297,-0.108333335930496,0.0125227374956012,0.00671951752156019,-0.0027488935738802
5,1.0125000434425,0.0736111117849297,-0.108333335930496,0.015577063895762,0.00305432616733015,-0.0033597587607801
5,1.0125000434425,0.0763888894734557,-0.1194444466846,0.0125227374956012,0.0045814891345799,-0.0045814891345799
5,1.0125000434425,0.0722222259796579,-0.112499999424294,0.0189368221908808,0.000305432622553781,0.00183259579353034
5,1.01527782720901,0.0777777813567098,-0.113888891307548,0.0180205255746841,-0.000916297896765172,-0.00427605677396059
5,1.0125000434425,0.0791666671619817,-0.111111119697004,0.0128281703218818,0.00152716308366507,0.00580321997404099
5,1.01666671909226,0.0736111117849297,-0.111111119697004,0.0103847095742822,0.000610865245107561,-0.00183259579353034
5,1.01527782720901,0.0777777813567098,-0.10972222781375,0.0131336031481624,0.00916297826915979,-0.000610865245107561
5,1.0125000434425,0.0777777813567098,-0.113888891307548,0.00763581553474069,0.0109955742955208,0.00580321997404099
5,1.01111115155925,0.0750000036681839,-0.106944444047242,0.00549778714776039,0.00580321997404099,0.000916297896765172
5,1.01805561097552,0.0708333340964038,-0.104166672436698,0.00519235478714108,0.00366519158706069,0.00702495034784079
5,1.01527782720901,0.0750000036681839,-0.112499999424294,0.00580321997404099,0.00183259579353034,0.00641408516094089
5,1.01527782720901,0.0750000036681839,-0.118055554801345,0.0106901414692402,0.00427605677396059,-0.00397062394768
5,1.01666671909226,0.0708333340964038,-0.118055554801345,0.00519235478714108,0.00733038317412138,0.0021380283869803
5,1.01666671909226,0.0777777813567098,-0.120833338567854,0.00671951752156019,0.00702495034784079,0.00641408516094089
5,1.01527782720901,0.0750000036681839,-0.116666675074056,0.00916297826915979,0.0131336031481624,0.0021380283869803
5,1.01388893532575,0.0777777813567098,-0.116666675074056,0.011606439948082,0.011606439948082,-0.000916297896765172
5,1.01666671909226,0.0750000036681839,-0.115277783190802,0.00977384392172098,0.0122173046693206,0.00671951752156019
5,1.01944450285877,0.0722222259796579,-0.10972222781375,0.00733038317412138,0.00610865233466029,-0.000916297896765172
5,1.01527782720901,0.0736111117849297,-0.116666675074056,0.0149661982432008,0.00702495034784079,0.00122173049021512
5,1.01527782720901,0.0763888894734557,-0.113888891307548,0.0134390350431204,0.011606439948082,0.00641408516094089
5,1.01527782720901,0.0750000036681839,-0.120833338567854,0.0125227374956012,0.00641408516094089,0.00610865233466029
5,1.01527782720901,0.0750000036681839,-0.120833338567854,0.0177150927484035,0.00671951752156019,-0.00366519158706069
5,1.01805561097552,0.0722222259796579,-0.104166672436698,0.00946841109544039,0.000610865245107561,0.00122173049021512
5,1.01944450285877,0.0750000036681839,-0.112499999424294,0.0109955742955208,0.00916297826915979,-0.00427605677396059
5,1.01805561097552,0.0791666671619817,-0.1194444466846,0.01588249579072,0.0100792767480016,-0.000916297896765172
5,1.01944450285877,0.0763888894734557,-0.12777778582816,0.0134390350431204,0.0045814891345799,0.000610865245107561
5,1.01805561097552,0.0763888894734557,-0.118055554801345,0.00916297826915979,0.00671951752156019,-0.000305432622553781
5,1.01111115155925,0.0763888894734557,-0.113888891307548,0.00855211354792118,0.0131336031481624,0.0027488935738802
5,1.01111115155925,0.0763888894734557,-0.113888891307548,0.0128281703218818,0.0177150927484035,0.00824668072164059
5,1.00972225967599,0.0777777813567098,-0.120833338567854,0.0103847095742822,0.017409659922123,-0.00427605677396059
5,1.0125000434425,0.0791666671619817,-0.10972222781375,0.00885754637420177,0.00916297826915979,0.00763581553474069
5,1.01388893532575,0.0750000036681839,-0.118055554801345,0.00702495034784079,0.00397062394768,0.0045814891345799
5,1.01527782720901,0.0722222259796579,-0.108333335930496,0.00183259579353034,0.00763581553474069,-0.0021380283869803
5,1.01527782720901,0.0763888894734557,-0.115277783190802,0.00427605677396059,0.00671951752156019,0.0027488935738802
5,1.01527782720901,0.0777777813567098,-0.120833338567854,0.00946841109544039,0.011606439948082,0.00794124789535999
5,1.01527782720901,0.0708333340964038,-0.118055554801345,0.0106901414692402,0.0149661982432008,0.0125227374956012
5,1.01527782720901,0.0736111117849297,-0.118055554801345,0.00397062394768,0.017409659922123,0.00610865233466029
5,1.01388893532575,0.0708333340964038,-0.116666675074056,0.0122173046693206,0.0100792767480016,-0.00122173049021512
5,1.00972225967599,0.0722222259796579,-0.111111119697004,0.00733038317412138,0.00885754637420177,0.00641408516094089
5,1.00972225967599,0.0833333367337618,-0.10972222781375,0.00305432616733015,0.0146607663482428,0.00244346098043024
5,1.0125000434425,0.0722222259796579,-0.111111119697004,0.00885754637420177,0.0113010071218014,0.00244346098043024
5,1.01527782720901,0.0652777787193518,-0.10972222781375,0.000916297896765172,0.0177150927484035,0.0045814891345799
5,1.01666671909226,0.0708333340964038,-0.112499999424294,0.00885754637420177,0.0122173046693206,0.00122173049021512
5,1.0125000434425,0.0722222259796579,-0.116666675074056,0.00122173049021512,0.00733038317412138,0.00733038317412138
5,1.01527782720901,0.0694444482911319,-0.111111119697004,0.00397062394768,0.0131336031481624,0.00671951752156019
5,1.01527782720901,0.0694444482911319,-0.10972222781375,0.00244346098043024,0.0128281703218818,0.00641408516094089
5,1.01527782720901,0.0708333340964038,-0.111111119697004,0.0131336031481624,0.0146607663482428,0.0045814891345799
5,1.01527782720901,0.0652777787193518,-0.111111119697004,0.0140499006956816,0.0183259565383196,0.0103847095742822
5,1.01944450285877,0.0722222259796579,-0.10972222781375,0.011606439948082,0.0192422550171614,0.000305432622553781
5,1.01666671909226,0.0680555564078778,-0.104166672436698,0.0125227374956012,0.017409659922123,0.0140499006956816
5,1.01527782720901,0.0680555564078778,-0.104166672436698,0.0131336031481624,0.0183259565383196,0.0027488935738802
5,1.01805561097552,0.0722222259796579,-0.111111119697004,0.00855211354792118,0.0222965814173222,-0.00885754637420177
5,1.01666671909226,0.0722222259796579,-0.113888891307548,0.0161879286170006,0.019547687843442,0.00427605677396059
5,1.01527782720901,0.0777777813567098,-0.108333335930496,0.013744467869401,0.00977384392172098,-0.000916297896765172
5,1.01388893532575,0.0777777813567098,-0.104166672436698,0.015577063895762,0.011606439948082,0.00244346098043024
5,1.01388893532575,0.0750000036681839,-0.108333335930496,0.00916297826915979,0.01191187184304,0.000916297896765172
5,1.01527782720901,0.0750000036681839,-0.115277783190802,0.00519235478714108,0.0140499006956816,0.00244346098043024
5,1.01805561097552,0.0736111117849297,-0.112499999424294,-0.00305432616733015,0.0033597587607801,0.00519235478714108
5,1.01666671909226,0.0722222259796579,-0.104166672436698,0.0021380283869803,0.015577063895762,0.0106901414692402
5,1.02083339474202,0.0750000036681839,-0.10972222781375,0.00122173049021512,0.0161879286170006,0.011606439948082
5,1.01527782720901,0.0708333340964038,-0.104166672436698,-0.00183259579353034,0.0186313893646002,0.00519235478714108
5,1.01944450285877,0.0750000036681839,-0.102777780553444,-0.00366519158706069,0.00946841109544039,0.0140499006956816
5,1.01527782720901,0.0750000036681839,-0.116666675074056,-0.00671951752156019,0.01588249579072,0.00916297826915979
5,1.01944450285877,0.0680555564078778,-0.10972222781375,-0.00152716308366507,0.0284052342176437,0.015577063895762
5,1.01388893532575,0.0680555564078778,-0.102777780553444,-0.00427605677396059,0.0308486949652433,0.0103847095742822
5,1.01527782720901,0.0708333340964038,-0.10972222781375,-0.0207694191485643,0.02382374368608,0.0131336031481624
5,1.01527782720901,0.0708333340964038,-0.10972222781375,-0.0146607663482428,0.0271835029125214,0.0109955742955208
5,1.01805561097552,0.0680555564078778,-0.0944444474878658,-0.0152716310694814,0.0192422550171614,0.0113010071218014
5,1.01527782720901,0.0694444482911319,-0.111111119697004,-0.01191187184304,0.0125227374956012,0.0219911485910416
5,1.01527782720901,0.0694444482911319,-0.111111119697004,0.00763581553474069,0.0305432621389627,0.00519235478714108
5,1.01944450285877,0.0694444482911319,-0.113888891307548,0.0149661982432008,0.0351247526705265,0.0045814891345799
5,1.01805561097552,0.0708333340964038,-0.111111119697004,0.00488692196086049,0.0241291765123606,0.0186313893646002
5,1.01527782720901,0.0736111117849297,-0.10972222781375,-0.0177150927484035,0.0213802829384804,0.0131336031481624
5,1.01805561097552,0.0708333340964038,-0.0944444474878658,-0.0189368221908808,0.0219911485910416,0.0189368221908808
5,1.01805561097552,0.0708333340964038,-0.104166672436698,-0.0134390350431204,0.0302378293126821,0.0146607663482428
5,1.01805561097552,0.0722222259796579,-0.106944444047242,-0.0177150927484035,0.0384845100343227,0.02382374368608
5,1.02083339474202,0.0680555564078778,-0.0972222251763917,-0.0244346093386412,0.0494800843298435,0.0210748501121998
5,1.01944450285877,0.0680555564078778,-0.0888888921108138,-0.0311541277915239,0.0412334054708481,0.01191187184304
5,1.01388893532575,0.0652777787193518,-0.0805555590452358,-0.029626963660121,0.0302378293126821,0.0183259565383196
5,1.00972225967599,0.0541666679652478,-0.0819444448505077,-0.0222965814173222,0.00671951752156019,0.00733038317412138
5,1.01527782720901,0.055555559848502,-0.0777777813567098,-0.0113010071218014,0.00580321997404099,0.00549778714776039
5,1.01527782720901,0.0652777787193518,-0.0916666697993398,-0.00610865233466029,0.0131336031481624,0.00183259579353034
5,1.01527782720901,0.0652777787193518,-0.0986111170596459,0.00519235478714108,0.0100792767480016,0.00397062394768
5,1.0125000434425,0.0597222233422998,-0.0916666697993398,0.00916297826915979,0.0106901414692402,0.00641408516094089
5,1.01805561097552,0.055555559848502,-0.0944444474878658,0.00855211354792118,0.00855211354792118,0.0106901414692402
5,1.01805561097552,0.0569444456537738,-0.0916666697993398,0.00244346098043024,0.0146607663482428,0.0146607663482428
5,1.01666671909226,0.0583333375370279,-0.0958333393711199,-0.00641408516094089,0.0113010071218014,0.000916297896765172
5,1.01666671909226,0.0722222259796579,-0.101388894748172,-0.00427605677396059,0.011606439948082,0.00824668072164059
5,1.01666671909226,0.0680555564078778,-0.0944444474878658,-0.00519235478714108,0.0149661982432008,0.0131336031481624
5,1.0125000434425,0.0638888929140799,-0.0944444474878658,-0.00580321997404099,0.0128281703218818,0.00366519158706069
5,1.0125000434425,0.0652777787193518,-0.0902777839940679,-0.0045814891345799,0.00244346098043024,0.00305432616733015
5,1.01944450285877,0.0708333340964038,-0.104166672436698,-0.0027488935738802,-0.00855211354792118,-0.00122173049021512
5,1.02222228662528,0.0680555564078778,-0.100000002864918,-0.00855211354792118,-0.00366519158706069,0.0021380283869803
5,1.01388893532575,0.0611111152255539,-0.0847222225390337,-0.00580321997404099,-0.013744467869401,0.000610865245107561
5,1.01944450285877,0.0625000010308258,-0.0902777839940679,-0.00916297826915979,-0.00549778714776039,-0.00244346098043024
5,1.01944450285877,0.0625000010308258,-0.0902777839940679,-0.011606439948082,-0.00977384392172098,-0.00122173049021512
5,1.01527782720901,0.0694444482911319,-0.0986111170596459,-0.0232128798961639,-0.0122173046693206,0.000610865245107561
5,1.00833336779274,0.0680555564078778,-0.0916666697993398,-0.0351247526705265,-0.0366519130766392,0.00122173049021512
5,1.00972225967599,0.0722222259796579,-0.0944444474878658,-0.0415388382971287,-0.0256563406437635,-0.00366519158706069
5,1.01666671909226,0.0722222259796579,-0.108333335930496,-0.0436768643558025,-0.0207694191485643,-0.000916297896765172
5,1.01944450285877,0.0722222259796579,-0.101388894748172,-0.0485637858510017,-0.000305432622553781,0.00244346098043024
5,1.01944450285877,0.0638888929140799,-0.0986111170596459,-0.0412334054708481,-0.00427605677396059,0.00641408516094089
5,1.01388893532575,0.055555559848502,-0.0847222225390337,-0.0326812900602817,-0.0198531206697226,-0.00733038317412138
5,1.0125000434425,0.055555559848502,-0.0944444474878658,-0.0177150927484035,-0.03176499158144,-0.00916297826915979
5,1.01666671909226,0.0583333375370279,-0.0944444474878658,-0.01588249579072,-0.0186313893646002,-0.00977384392172098
5,1.02361117850853,0.0583333375370279,-0.0958333393711199,-0.00366519158706069,-0.0100792767480016,-0.00763581553474069
5,1.02500007039179,0.0652777787193518,-0.104166672436698,0.000305432622553781,-0.0131336031481624,-0.00580321997404099
5,1.01944450285877,0.0625000010308258,-0.0972222251763917,0.00183259579353034,-0.0134390350431204,-0.000610865245107561
5,1.02083339474202,0.0583333375370279,-0.0986111170596459,0.00916297826915979,-0.00122173049021512,-0.00610865233466029
5,1.01944450285877,0.0625000010308258,-0.101388894748172,0.0113010071218014,-0.00610865233466029,0.00122173049021512
5,1.01527782720901,0.0652777787193518,-0.0944444474878658,0.0143553335219622,-0.0106901414692402,-0.00305432616733015
5,1.02083339474202,0.0638888929140799,-0.0986111170596459,0.00580321997404099,-0.00794124789535999,-0.0103847095742822
5,1.02500007039179,0.0611111152255539,-0.100000002864918,-0.00183259579353034,-0.0103847095742822,-0.000916297896765172
5,1.02222228662528,0.0611111152255539,-0.0958333393711199,-0.0045814891345799,-0.0100792767480016,-0.0122173046693206
5,1.01944450285877,0.0583333375370279,-0.0972222251763917,0.0033597587607801,-0.00519235478714108,-0.000305432622553781
5,1.01944450285877,0.0583333375370279,-0.0916666697993398,0.00488692196086049,-0.00244346098043024,-0.00885754637420177
5,1.01944450285877,0.0638888929140799,-0.0888888921108138,0.00733038317412138,-0.00519235478714108,-0.00977384392172098
5,1.01527782720901,0.0666666706026059,-0.0986111170596459,0.0180205255746841,-0.0021380283869803,-0.000305432622553781
5,1.01944450285877,0.0652777787193518,-0.0944444474878658,0.0180205255746841,-0.00702495034784079,-0.0045814891345799
5,1.01666671909226,0.0652777787193518,-0.0986111170596459,0.0207694191485643,-0.0109955742955208,-0.00733038317412138
5,1.02083339474202,0.0638888929140799,-0.0986111170596459,0.0219911485910416,0.000916297896765172,-0.00977384392172098
5,1.01805561097552,0.0763888894734557,-0.0986111170596459,0.0259617734700441,-0.0021380283869803,-0.0171042270958424
5,1.01527782720901,0.0652777787193518,-0.100000002864918,0.0219911485910416,0.00733038317412138,-0.0131336031481624
5,1.01666671909226,0.0652777787193518,-0.102777780553444,0.0210748501121998,-0.00366519158706069,-0.0146607663482428
5,1.01527782720901,0.0722222259796579,-0.108333335930496,0.0198531206697226,-0.0128281703218818,-0.0180205255746841
5,1.01527782720901,0.0763888894734557,-0.104166672436698,0.0186313893646002,-0.0149661982432008,-0.0140499006956816
5,1.01527782720901,0.0750000036681839,-0.104166672436698,0.0128281703218818,-0.0122173046693206,-0.00580321997404099
5,1.0125000434425,0.0777777813567098,-0.106944444047242,0.00519235478714108,-0.00183259579353034,0.00427605677396059
5,1.0125000434425,0.0750000036681839,-0.101388894748172,0.0021380283869803,-0.00152716308366507,0.00610865233466029
5,1.02361117850853,0.0680555564078778,-0.105555564319952,-0.00641408516094089,0.000916297896765172,-0.0027488935738802
5,1.02916674604155,0.0680555564078778,-0.108333335930496,-0.01588249579072,-0.00366519158706069,-0.00397062394768
5,1.02361117850853,0.0611111152255539,-0.108333335930496,-0.0302378293126821,-0.00519235478714108,-0.00763581553474069
5,1.02222228662528,0.0652777787193518,-0.113888891307548,-0.0320704244077206,0.00671951752156019,0.00183259579353034
5,1.01388893532575,0.0680555564078778,-0.100000002864918,-0.0314595587551594,-0.0027488935738802,-0.0045814891345799
5,1.01388893532575,0.0638888929140799,-0.105555564319952,-0.017409659922123,-0.0146607663482428,-0.0109955742955208
5,1.0125000434425,0.0611111152255539,-0.0972222251763917,-0.0284052342176437,-0.0149661982432008,-0.00641408516094089
5,1.01388893532575,0.0611111152255539,-0.105555564319952,-0.0268780700862408,-0.0198531206697226,-0.0113010071218014
5,1.01666671909226,0.0638888929140799,-0.100000002864918,-0.0235183127224445,-0.0192422550171614,-0.0109955742955208
5,1.01805561097552,0.0694444482911319,-0.108333335930496,-0.0219911485910416,-0.0210748501121998,-0.0021380283869803
5,1.02083339474202,0.0652777787193518,-0.0944444474878658,-0.0222965814173222,0.000610865245107561,-0.015577063895762
5,1.02083339474202,0.0652777787193518,-0.0944444474878658,-0.0204639863222837,0.00610865233466029,-0.0152716310694814
5,1.01527782720901,0.0680555564078778,-0.111111119697004,-0.0164933614432812,0.0033597587607801,-0.00519235478714108
5,1.00972225967599,0.0652777787193518,-0.0916666697993398,-0.0210748501121998,-0.0125227374956012,-0.00549778714776039
5,1.00972225967599,0.0652777787193518,-0.0916666697993398,-0.0180205255746841,-0.0033597587607801,-0.0027488935738802
5,1.01388893532575,0.0666666706026059,-0.0944444474878658,-0.015577063895762,-0.0021380283869803,-0.0021380283869803
5,1.0125000434425,0.0736111117849297,-0.0875000002275597,-0.0149661982432008,-0.00152716308366507,-0.00519235478714108
5,1.0125000434425,0.0708333340964038,-0.100000002864918,-0.0106901414692402,-0.00671951752156019,-0.000610865245107561
5,1.01527782720901,0.0680555564078778,-0.0958333393711199,-0.01191187184304,-0.0177150927484035,-0.00397062394768
5,1.01527782720901,0.0708333340964038,-0.101388894748172,-0.000610865245107561,-0.0161879286170006,-0.0113010071218014
5,1.01944450285877,0.0694444482911319,-0.101388894748172,-0.0033597587607801,-0.019547687843442,-0.00763581553474069
5,1.01944450285877,0.0722222259796579,-0.0986111170596459,-0.0143553335219622,-0.0183259565383196,-0.00488692196086049
5,1.01944450285877,0.0694444482911319,-0.106944444047242,-0.0235183127224445,-0.0113010071218014,-0.0033597587607801
5,1.01666671909226,0.0625000010308258,-0.0972222251763917,-0.01588249579072,-0.015577063895762,-0.00244346098043024
5,1.01944450285877,0.0652777787193518,-0.105555564319952,-0.00305432616733015,-0.00824668072164059,0.00366519158706069
5,1.01944450285877,0.0694444482911319,-0.101388894748172,-0.000305432622553781,-0.00580321997404099,0.0027488935738802
5,1.01805561097552,0.0722222259796579,-0.102777780553444,0.000916297896765172,0.00519235478714108,-0.00855211354792118
5,1.01944450285877,0.0708333340964038,-0.111111119697004,0.0021380283869803,0.00305432616733015,-0.000305432622553781
5,1.01666671909226,0.0638888929140799,-0.101388894748172,-0.00122173049021512,0.0021380283869803,0.0027488935738802
5,1.01805561097552,0.0680555564078778,-0.101388894748172,0.00183259579353034,-0.00366519158706069,0.00488692196086049
5,1.01805561097552,0.0694444482911319,-0.105555564319952,0.00794124789535999,-0.00641408516094089,-0.0021380283869803
5,1.01527782720901,0.0736111117849297,-0.111111119697004,-0.00244346098043024,-0.00183259579353034,0.00122173049021512
5,1.00972225967599,0.0736111117849297,-0.108333335930496,0.000305432622553781,0.00152716308366507,-0.00152716308366507
5,1.0125000434425,0.0750000036681839,-0.108333335930496,0.0021380283869803,-0.0027488935738802,0.00152716308366507
5,1.01527782720901,0.0750000036681839,-0.112499999424294,-0.00549778714776039,-0.00366519158706069,-0.00794124789535999
5,1.02083339474202,0.0694444482911319,-0.112499999424294,-0.00916297826915979,-0.0235183127224445,-0.00885754637420177
5,1.02083339474202,0.0694444482911319,-0.112499999424294,-0.0103847095742822,-0.00671951752156019,-0.00519235478714108
5,1.01666671909226,0.0750000036681839,-0.115277783190802,-0.00427605677396059,0.00916297826915979,-0.0146607663482428
5,1.0125000434425,0.0722222259796579,-0.102777780553444,-0.0149661982432008,-0.00549778714776039,-0.0027488935738802
5,1.0125000434425,0.0722222259796579,-0.102777780553444,-0.015577063895762,-0.000916297896765172,-0.00549778714776039
5,1.0125000434425,0.0680555564078778,-0.104166672436698,-0.00397062394768,-0.0128281703218818,-0.01191187184304
5,1.01527782720901,0.0680555564078778,-0.105555564319952,-0.0033597587607801,-0.011606439948082,-0.000916297896765172
5,1.01527782720901,0.0680555564078778,-0.105555564319952,-0.00794124789535999,-0.00824668072164059,-0.000305432622553781
5,1.01388893532575,0.0680555564078778,-0.104166672436698,-0.0021380283869803,-0.0183259565383196,-0.00916297826915979
5,1.01944450285877,0.0708333340964038,-0.102777780553444,-0.00244346098043024,-0.00488692196086049,-0.00733038317412138
5,1.01944450285877,0.0708333340964038,-0.102777780553444,0.00152716308366507,0.0033597587607801,-0.0113010071218014
5,1.0125000434425,0.0652777787193518,-0.0972222251763917,0.00427605677396059,-0.0027488935738802,-0.0143553335219622
5,1.00972225967599,0.0722222259796579,-0.104166672436698,0.0109955742955208,-0.00702495034784079,-0.0106901414692402
5,1.0125000434425,0.0722222259796579,-0.100000002864918,0.0161879286170006,-0.00122173049021512,0.000916297896765172
5,1.0125000434425,0.0722222259796579,-0.100000002864918,0.00794124789535999,-0.000305432622553781,-0.00366519158706069
5,1.01944450285877,0.0694444482911319,-0.108333335930496,0.00580321997404099,0.00397062394768,-0.00488692196086049
5,1.01805561097552,0.0750000036681839,-0.104166672436698,0.00183259579353034,-0.0027488935738802,-0.0113010071218014
5,1.01805561097552,0.0750000036681839,-0.104166672436698,0.00733038317412138,-0.0045814891345799,-0.0103847095742822
5,1.01527782720901,0.0708333340964038,-0.100000002864918,-0.00152716308366507,-0.00397062394768,-0.0045814891345799
5,1.01388893532575,0.0750000036681839,-0.106944444047242,0.0128281703218818,-0.00794124789535999,-0.0106901414692402
5,1.01388893532575,0.0777777813567098,-0.104166672436698,-0.000610865245107561,-0.0100792767480016,-0.00702495034784079
5,1.01527782720901,0.0763888894734557,-0.101388894748172,0.00305432616733015,-0.00733038317412138,-0.0113010071218014
5,1.01388893532575,0.0750000036681839,-0.10972222781375,-0.00671951752156019,-0.0027488935738802,-0.0201585534960032
5,1.01805561097552,0.0736111117849297,-0.108333335930496,0.00122173049021512,-0.00427605677396059,-0.0103847095742822
5,1.01527782720901,0.0750000036681839,-0.108333335930496,-0.00152716308366507,-0.00488692196086049,-0.00855211354792118
5,1.01527782720901,0.0805555590452358,-0.113888891307548,-0.0033597587607801,-0.00519235478714108,-0.00733038317412138
5,1.0125000434425,0.0777777813567098,-0.100000002864918,-0.00366519158706069,-0.0106901414692402,-0.00549778714776039
5,1.01944450285877,0.0777777813567098,-0.1194444466846,-0.00427605677396059,-0.00733038317412138,-0.00610865233466029
5,1.01805561097552,0.0763888894734557,-0.1194444466846,-0.0131336031481624,-0.00733038317412138,-0.00702495034784079
5,1.01527782720901,0.0763888894734557,-0.111111119697004,-0.0143553335219622,-0.00427605677396059,-0.0125227374956012
5,1.01527782720901,0.0763888894734557,-0.108333335930496,-0.0149661982432008,-0.000610865245107561,-0.0109955742955208
5,1.01666671909226,0.0763888894734557,-0.112499999424294,-0.0201585534960032,-0.00152716308366507,-0.0134390350431204
5,1.0125000434425,0.0819444448505077,-0.108333335930496,-0.0207694191485643,-0.00824668072164059,-0.00152716308366507
5,1.01527782720901,0.0805555590452358,-0.10972222781375,-0.00641408516094089,0.000610865245107561,-0.0021380283869803
5,1.0125000434425,0.0847222225390337,-0.111111119697004,-0.00885754637420177,0.0021380283869803,-0.00549778714776039
5,1.0125000434425,0.0763888894734557,-0.111111119697004,-0.0180205255746841,-0.00152716308366507,-0.0033597587607801
5,1.0125000434425,0.0750000036681839,-0.102777780553444,-0.0213802829384804,-0.00702495034784079,-0.00580321997404099
5,1.0125000434425,0.0750000036681839,-0.108333335930496,-0.0241291765123606,-0.00946841109544039,-0.00733038317412138
5,1.01944450285877,0.0750000036681839,-0.108333335930496,-0.0226020142436027,-0.00580321997404099,0.00183259579353034
5,1.01666671909226,0.0819444448505077,-0.10972222781375,-0.02382374368608,-0.00519235478714108,-0.00244346098043024
5,1.01527782720901,0.0847222225390337,-0.113888891307548,-0.0250454749912024,0.0045814891345799,0.00641408516094089
5,1.01527782720901,0.0833333367337618,-0.1194444466846,-0.0146607663482428,0.0100792767480016,-0.00122173049021512
5,1.01666671909226,0.0777777813567098,-0.12777778582816,-0.0213802829384804,0.0140499006956816,0.01191187184304
5,1.01666671909226,0.0791666671619817,-0.125000002061652,-0.0128281703218818,0.0134390350431204,0.00366519158706069
5,1.01666671909226,0.0722222259796579,-0.120833338567854,-0.0109955742955208,0.011606439948082,0.00641408516094089
5,1.01388893532575,0.0777777813567098,-0.115277783190802,-0.00366519158706069,0.013744467869401,-0.00183259579353034
5,1.00833336779274,0.0777777813567098,-0.113888891307548,-0.00305432616733015,0.011606439948082,0.00671951752156019
5,1.00972225967599,0.0805555590452358,-0.108333335930496,-0.000916297896765172,0.00397062394768,0.00122173049021512
5,1.00972225967599,0.0777777813567098,-0.111111119697004,-0.00152716308366507,0.00183259579353034,-0.00580321997404099
5,1.00972225967599,0.0722222259796579,-0.104166672436698,-0.00122173049021512,-0.0103847095742822,-0.01191187184304
5,1.00972225967599,0.0708333340964038,-0.105555564319952,-0.00427605677396059,-0.0262672062963247,-0.0146607663482428
5,1.01388893532575,0.0722222259796579,-0.104166672436698,0.000916297896765172,-0.0222965814173222,-0.0183259565383196
5,1.01388893532575,0.0750000036681839,-0.104166672436698,-0.00641408516094089,-0.0250454749912024,-0.0180205255746841
5,1.01527782720901,0.0750000036681839,-0.108333335930496,-0.00733038317412138,-0.0277943685650826,-0.0210748501121998
5,1.01527782720901,0.0750000036681839,-0.102777780553444,-0.0122173046693206,-0.0232128798961639,-0.0198531206697226
5,1.01805561097552,0.0833333367337618,-0.10972222781375,-0.00977384392172098,-0.0161879286170006,-0.0027488935738802
5,1.02222228662528,0.0847222225390337,-0.111111119697004,-0.00794124789535999,-0.00427605677396059,-0.00977384392172098
5,1.02361117850853,0.0805555590452358,-0.113888891307548,-0.00885754637420177,0.00122173049021512,0.0021380283869803
5,1.02222228662528,0.0819444448505077,-0.10972222781375,-0.0140499006956816,0.00977384392172098,-0.00427605677396059
5,1.01666671909226,0.0777777813567098,-0.120833338567854,-0.0033597587607801,0.0134390350431204,-0.00183259579353034
5,1.01805561097552,0.0847222225390337,-0.120833338567854,-0.00152716308366507,0.0131336031481624,-0.00183259579353034
5,1.01527782720901,0.0819444448505077,-0.118055554801345,-0.00855211354792118,0.0149661982432008,0.00610865233466029
5,1.01666671909226,0.0847222225390337,-0.115277783190802,-0.0161879286170006,0.00824668072164059,0.00733038317412138
5,1.01527782720901,0.0847222225390337,-0.113888891307548,-0.021685715764761,-0.00122173049021512,0.00824668072164059
5,1.00972225967599,0.0833333367337618,-0.10972222781375,-0.0226020142436027,-0.00183259579353034,0.00183259579353034
5,1.01388893532575,0.0791666671619817,-0.106944444047242,-0.0247400421649218,0.00305432616733015,0.00366519158706069
5,1.0125000434425,0.0819444448505077,-0.108333335930496,-0.0140499006956816,-0.000610865245107561,-0.000305432622553781
5,1.01527782720901,0.0763888894734557,-0.111111119697004,-0.00885754637420177,0.00244346098043024,-0.00183259579353034
5,1.01944450285877,0.0763888894734557,-0.111111119697004,-0.0134390350431204,-0.000305432622553781,-0.00977384392172098
5,1.01944450285877,0.0763888894734557,-0.111111119697004,-0.00427605677396059,-0.0100792767480016,-0.00671951752156019
5,1.01805561097552,0.0791666671619817,-0.10972222781375,0.0033597587607801,-0.00152716308366507,-0.00122173049021512
5,1.01666671909226,0.0791666671619817,-0.10972222781375,0.0021380283869803,0.00305432616733015,0.00610865233466029
5,1.01527782720901,0.0847222225390337,-0.112499999424294,0.00794124789535999,0.0113010071218014,-0.00244346098043024
5,1.01944450285877,0.0777777813567098,-0.111111119697004,0.00763581553474069,0.00916297826915979,0.000305432622553781
5,1.01666671909226,0.0777777813567098,-0.118055554801345,0.0106901414692402,0.00519235478714108,0.000610865245107561
5,1.01111115155925,0.0791666671619817,-0.108333335930496,0.00580321997404099,0.00488692196086049,-0.000610865245107561
5,1.0125000434425,0.0875000002275597,-0.113888891307548,0.00702495034784079,0.00671951752156019,0.000305432622553781
5,1.0125000434425,0.0819444448505077,-0.111111119697004,0.0113010071218014,0.00488692196086049,-0.00244346098043024
5,1.01527782720901,0.0791666671619817,-0.10972222781375,0.000305432622553781,0.00549778714776039,0.00610865233466029
5,1.01805561097552,0.0777777813567098,-0.10972222781375,0.00610865233466029,0.00488692196086049,0.0106901414692402
5,1.01527782720901,0.0847222225390337,-0.101388894748172,0.0033597587607801,0.00366519158706069,-0.0109955742955208
5,1.01388893532575,0.0916666697993398,-0.108333335930496,0.00305432616733015,-0.00244346098043024,-0.00152716308366507
5,1.01388893532575,0.0847222225390337,-0.113888891307548,0.0106901414692402,0.00427605677396059,-0.00183259579353034
5,1.01527782720901,0.0791666671619817,-0.113888891307548,0.00641408516094089,0.00916297826915979,-0.0045814891345799
5,1.01111115155925,0.0819444448505077,-0.113888891307548,0.0045814891345799,0.00519235478714108,-0.000610865245107561
5,1.01111115155925,0.0819444448505077,-0.108333335930496,0.000916297896765172,0.00183259579353034,0.00244346098043024
5,1.00833336779274,0.0791666671619817,-0.113888891307548,-0.0021380283869803,0.0021380283869803,0.0134390350431204
5,1.00972225967599,0.0777777813567098,-0.118055554801345,0.00794124789535999,0.00610865233466029,-0.00671951752156019
5,1.0125000434425,0.0833333367337618,-0.113888891307548,0.00641408516094089,0.00549778714776039,0.00244346098043024
5,1.01527782720901,0.0777777813567098,-0.111111119697004,-0.00152716308366507,-0.00152716308366507,-0.000610865245107561
5,1.01527782720901,0.0819444448505077,-0.111111119697004,0.00122173049021512,0.00305432616733015,0.00488692196086049
5,1.01666671909226,0.0791666671619817,-0.118055554801345,-0.0045814891345799,0.00580321997404099,0.000305432622553781
5,1.01944450285877,0.0777777813567098,-0.113888891307548,0.00183259579353034,0.0131336031481624,0.00519235478714108
5,1.01666671909226,0.0791666671619817,-0.115277783190802,-0.00244346098043024,0.00977384392172098,-0.000916297896765172
5,1.01527782720901,0.0777777813567098,-0.120833338567854,0.0027488935738802,0.00366519158706069,-0.00610865233466029
5,1.01527782720901,0.0777777813567098,-0.115277783190802,0.00824668072164059,-0.00519235478714108,-0.0021380283869803
5,1.01388893532575,0.0736111117849297,-0.120833338567854,0.00824668072164059,0.0109955742955208,0.00122173049021512
5,1.01527782720901,0.0791666671619817,-0.118055554801345,0.0146607663482428,0.0149661982432008,-0.00152716308366507
5,1.01388893532575,0.0777777813567098,-0.108333335930496,0.00885754637420177,0.00610865233466029,0.00244346098043024
5,1.0125000434425,0.0777777813567098,-0.10972222781375,0.00946841109544039,0.000916297896765172,0.0033597587607801
5,1.01111115155925,0.0819444448505077,-0.102777780553444,0.00244346098043024,-0.00244346098043024,-0.000305432622553781
5,1.0125000434425,0.0847222225390337,-0.113888891307548,-0.000305432622553781,0.00763581553474069,-0.00122173049021512
5,1.01527782720901,0.0791666671619817,-0.113888891307548,-0.00519235478714108,0.01191187184304,0.00824668072164059
5,1.01527782720901,0.0833333367337618,-0.111111119697004,-0.00122173049021512,0.0131336031481624,0.00152716308366507
5,1.01527782720901,0.0819444448505077,-0.108333335930496,-0.0027488935738802,0.00641408516094089,0.00519235478714108
5,1.01527782720901,0.0847222225390337,-0.120833338567854,-0.00183259579353034,0.00519235478714108,-0.000305432622553781
5,1.0125000434425,0.0847222225390337,-0.120833338567854,-0.00824668072164059,0.000305432622553781,0.00366519158706069
5,1.0125000434425,0.0888888921108138,-0.1194444466846,-0.0106901414692402,0.00152716308366507,-0.00397062394768
5,1.01944450285877,0.0875000002275597,-0.113888891307548,-0.0152716310694814,0.00794124789535999,-0.00671951752156019
5,1.01527782720901,0.0875000002275597,-0.108333335930496,-0.0186313893646002,0.00122173049021512,0.00152716308366507
5,1.00972225967599,0.0875000002275597,-0.104166672436698,-0.0253509078174829,-0.0021380283869803,-0.00152716308366507
5,1.00833336779274,0.0819444448505077,-0.0958333393711199,-0.00885754637420177,-0.0134390350431204,-0.00610865233466029
5,1.01111115155925,0.0805555590452358,-0.102777780553444,-0.0140499006956816,-0.0287106670439243,-0.0033597587607801
5,1.01944450285877,0.0805555590452358,-0.111111119697004,-0.015577063895762,-0.0106901414692402,-0.00488692196086049
5,1.01944450285877,0.0833333367337618,-0.115277783190802,-0.0232128798961639,-0.00519235478714108,-0.00488692196086049
5,1.01805561097552,0.0875000002275597,-0.1194444466846,-0.0222965814173222,-0.00549778714776039,0.00794124789535999
5,1.01944450285877,0.0875000002275597,-0.118055554801345,-0.0259617734700441,-0.00183259579353034,0.000610865245107561
5,1.01527782720901,0.0819444448505077,-0.113888891307548,-0.0268780700862408,-0.0027488935738802,0.00794124789535999
5,1.0125000434425,0.0833333367337618,-0.112499999424294,-0.0186313893646002,0.00763581553474069,0.00397062394768
5,1.01388893532575,0.0805555590452358,-0.108333335930496,-0.0259617734700441,0.00305432616733015,0.0021380283869803
5,1.01527782720901,0.0805555590452358,-0.10972222781375,-0.0183259565383196,-0.0222965814173222,-0.000916297896765172
5,1.0125000434425,0.0763888894734557,-0.113888891307548,-0.00885754637420177,-0.0360410511493683,-0.00733038317412138
5,1.00833336779274,0.0736111117849297,-0.113888891307548,-0.0262672062963247,-0.0287106670439243,-0.00305432616733015
5,1.01527782720901,0.0763888894734557,-0.12777778582816,-0.02382374368608,-0.011606439948082,0.0021380283869803
5,1.01527782720901,0.0819444448505077,-0.113888891307548,-0.0308486949652433,-0.00397062394768,0.00244346098043024
5,1.01527782720901,0.0847222225390337,-0.102777780553444,-0.0415388382971287,0.00946841109544039,-0.0033597587607801
5,1.0125000434425,0.0750000036681839,-0.118055554801345,-0.0503963828086853,-0.0027488935738802,0.0109955742955208
5,1.0125000434425,0.0750000036681839,-0.10972222781375,-0.0400116741657257,-0.000916297896765172,0.00885754637420177
5,1.01388893532575,0.0750000036681839,-0.108333335930496,-0.0329867228865623,0.00916297826915979,0.0103847095742822
5,1.01666671909226,0.0722222259796579,-0.106944444047242,-0.0247400421649218,0.0213802829384804,0.00610865233466029
5,1.01944450285877,0.0680555564078778,-0.120833338567854,-0.0232128798961639,0.0232128798961639,0.00152716308366507
5,1.01666671909226,0.0680555564078778,-0.10972222781375,-0.02382374368608,0.013744467869401,0.00427605677396059
5,1.01527782720901,0.0680555564078778,-0.108333335930496,-0.017409659922123,0.0021380283869803,0.00763581553474069
5,1.01666671909226,0.0722222259796579,-0.0986111170596459,-0.00794124789535999,0.00519235478714108,0.0033597587607801
5,1.01527782720901,0.0736111117849297,-0.104166672436698,0.00641408516094089,0.00794124789535999,0.00427605677396059
5,1.01944450285877,0.0722222259796579,-0.108333335930496,0.01588249579072,0.00916297826915979,-0.00733038317412138
5,1.01527782720901,0.0763888894734557,-0.102777780553444,0.0259617734700441,0.0256563406437635,0.0021380283869803
5,1.0125000434425,0.0750000036681839,-0.104166672436698,0.0128281703218818,0.013744467869401,0.00763581553474069
5,1.0125000434425,0.0750000036681839,-0.105555564319952,0.01588249579072,0.0146607663482428,0.00824668072164059
5,1.01527782720901,0.0805555590452358,-0.101388894748172,0.00885754637420177,0.013744467869401,0.00855211354792118
5,1.01527782720901,0.0777777813567098,-0.101388894748172,0.0143553335219622,0.00763581553474069,0.0128281703218818
5,1.01388893532575,0.0722222259796579,-0.106944444047242,0.0210748501121998,0.00244346098043024,0.00641408516094089
5,1.01666671909226,0.0763888894734557,-0.108333335930496,0.0235183127224445,-0.000916297896765172,0.00488692196086049
5,1.01527782720901,0.0819444448505077,-0.112499999424294,0.0290160998702049,-0.00152716308366507,0.0021380283869803
5,1.01527782720901,0.0750000036681839,-0.108333335930496,0.0323758572340012,-0.00122173049021512,-0.000610865245107561
5,1.01666671909226,0.0777777813567098,-0.101388894748172,0.0335975885391235,0.00519235478714108,0.00244346098043024
5,1.00972225967599,0.0750000036681839,-0.106944444047242,0.0308486949652433,-0.000916297896765172,0.00183259579353034
5,1.01527782720901,0.0763888894734557,-0.105555564319952,0.0339030213654041,-0.00702495034784079,-0.00427605677396059
5,1.01527782720901,0.0763888894734557,-0.105555564319952,0.0363464802503586,-0.0146607663482428,-0.00946841109544039
5,1.01388893532575,0.0763888894734557,-0.105555564319952,0.0268780700862408,-0.0204639863222837,-0.0021380283869803
5,1.01666671909226,0.0763888894734557,-0.111111119697004,0.0229074470698834,-0.01588249579072,-0.00244346098043024
5,1.01666671909226,0.0763888894734557,-0.111111119697004,0.0143553335219622,-0.00122173049021512,-0.0045814891345799
5,1.01944450285877,0.0819444448505077,-0.106944444047242,0.00549778714776039,0.00366519158706069,-0.00519235478714108
5,1.01944450285877,0.0819444448505077,-0.106944444047242,-0.00702495034784079,0.00977384392172098,0.0021380283869803
5,1.01527782720901,0.0750000036681839,-0.113888891307548,-0.00152716308366507,0.0106901414692402,0.01191187184304
5,1.01527782720901,0.0722222259796579,-0.112499999424294,-0.00152716308366507,0.0045814891345799,0.00427605677396059
5,1.01527782720901,0.0722222259796579,-0.112499999424294,0.00733038317412138,0.0134390350431204,0.00152716308366507
5,1.01527782720901,0.0777777813567098,-0.101388894748172,0.00580321997404099,0.02382374368608,0.00824668072164059
5,1.01666671909226,0.0777777813567098,-0.111111119697004,-0.00916297826915979,0.00702495034784079,0.00549778714776039
5,1.01527782720901,0.0805555590452358,-0.111111119697004,-0.0161879286170006,0.00183259579353034,0.00244346098043024
5,1.02083339474202,0.0736111117849297,-0.10972222781375,-0.00916297826915979,0.00855211354792118,0.00488692196086049
5,1.01944450285877,0.0777777813567098,-0.108333335930496,-0.01588249579072,0.02382374368608,0.00916297826915979
5,1.01944450285877,0.0819444448505077,-0.10972222781375,-0.00794124789535999,0.0213802829384804,0.0146607663482428
5,1.01944450285877,0.0763888894734557,-0.104166672436698,-0.0161879286170006,0.0244346093386412,0.0134390350431204
5,1.01527782720901,0.0819444448505077,-0.102777780553444,-0.0167987942695618,0.0161879286170006,0.00488692196086049
5,1.01388893532575,0.0777777813567098,-0.0986111170596459,-0.01588249579072,0.00519235478714108,0.00244346098043024
5,1.01527782720901,0.0750000036681839,-0.105555564319952,-0.00977384392172098,0.00122173049021512,-0.0021380283869803
5,1.01805561097552,0.0805555590452358,-0.113888891307548,0.00122173049021512,0.01588249579072,0.00610865233466029
5,1.01527782720901,0.0694444482911319,-0.113888891307548,0.00885754637420177,0.017409659922123,-0.000610865245107561
5,1.01527782720901,0.0680555564078778,-0.101388894748172,0.00946841109544039,0.0143553335219622,-0.00641408516094089
5,1.01666671909226,0.0805555590452358,-0.104166672436698,0.00916297826915979,0.0198531206697226,0.0027488935738802
5,1.01527782720901,0.0819444448505077,-0.101388894748172,0.00549778714776039,0.0177150927484035,0.00641408516094089
5,1.01388893532575,0.0805555590452358,-0.0972222251763917,0.00488692196086049,0.00580321997404099,-0.000305432622553781
5,1.0125000434425,0.0763888894734557,-0.101388894748172,0.00671951752156019,-0.0033597587607801,0.0045814891345799
5,1.01388893532575,0.0791666671619817,-0.100000002864918,0.00152716308366507,0.0033597587607801,-0.0027488935738802
5,1.0125000434425,0.0819444448505077,-0.104166672436698,-0.00427605677396059,0.01191187184304,-0.00855211354792118
5,1.01527782720901,0.0833333367337618,-0.108333335930496,-0.00580321997404099,0.00488692196086049,0.000916297896765172
5,1.01388893532575,0.0750000036681839,-0.10972222781375,0.00519235478714108,0.01191187184304,-0.00427605677396059
5,1.01666671909226,0.0736111117849297,-0.101388894748172,0.00397062394768,0.00671951752156019,0.00427605677396059
5,1.01527782720901,0.0750000036681839,-0.106944444047242,0.00671951752156019,-0.00152716308366507,-0.00580321997404099
5,1.0125000434425,0.0777777813567098,-0.101388894748172,0.00183259579353034,0.000610865245107561,-0.00794124789535999
5,1.01527782720901,0.0763888894734557,-0.104166672436698,0.0134390350431204,0.00397062394768,-0.00855211354792118
5,1.01527782720901,0.0791666671619817,-0.104166672436698,0.0106901414692402,0.00671951752156019,-0.00671951752156019
5,1.01527782720901,0.0819444448505077,-0.108333335930496,0.0103847095742822,0.00641408516094089,-0.000610865245107561
5,1.01388893532575,0.0777777813567098,-0.102777780553444,0.0143553335219622,0.00702495034784079,-0.00519235478714108
5,1.0125000434425,0.0861111144222878,-0.101388894748172,0.00397062394768,-0.00152716308366507,-0.00305432616733015
5,1.01527782720901,0.0805555590452358,-0.104166672436698,0.00580321997404099,-0.000610865245107561,0.00152716308366507
5,1.01666671909226,0.0763888894734557,-0.0972222251763917,0.00580321997404099,-0.000305432622553781,-0.0113010071218014
5,1.01666671909226,0.0777777813567098,-0.104166672436698,0.00641408516094089,0.00519235478714108,-0.000305432622553781
5,1.0125000434425,0.0819444448505077,-0.108333335930496,0.0103847095742822,0.0045814891345799,-0.000916297896765172
5,1.0125000434425,0.0750000036681839,-0.0972222251763917,0.00610865233466029,-0.00488692196086049,-0.00397062394768
5,1.01527782720901,0.0750000036681839,-0.102777780553444,0.00519235478714108,0.0027488935738802,-0.0167987942695618
5,1.0125000434425,0.0805555590452358,-0.113888891307548,0.0122173046693206,-0.00946841109544039,-0.00671951752156019
5,1.01527782720901,0.0847222225390337,-0.112499999424294,0.0134390350431204,0.00366519158706069,0.000610865245107561
5,1.01388893532575,0.0819444448505077,-0.111111119697004,0.00946841109544039,0.00366519158706069,0.00244346098043024
5,1.01111115155925,0.0750000036681839,-0.10972222781375,0.01191187184304,-0.00122173049021512,0.00427605677396059
5,1.0125000434425,0.0805555590452358,-0.102777780553444,0.00977384392172098,0.0027488935738802,-0.000305432622553781
5,1.01805561097552,0.0736111117849297,-0.104166672436698,0.00855211354792118,-0.00397062394768,-0.00427605677396059
5,1.01527782720901,0.0791666671619817,-0.0944444474878658,0.00946841109544039,-0.0027488935738802,0.00366519158706069
5,1.01388893532575,0.0750000036681839,-0.0972222251763917,0.0146607663482428,-0.00244346098043024,0.00427605677396059
5,1.0125000434425,0.0805555590452358,-0.101388894748172,0.0161879286170006,0.000916297896765172,0.00641408516094089
5,1.01666671909226,0.0777777813567098,-0.102777780553444,0.0143553335219622,0.0045814891345799,-0.00305432616733015
5,1.0125000434425,0.0763888894734557,-0.104166672436698,0.0131336031481624,0.000305432622553781,0.00244346098043024
5,1.0125000434425,0.0722222259796579,-0.0916666697993398,0.0143553335219622,0.000610865245107561,-0.00488692196086049
5,1.01527782720901,0.0777777813567098,-0.0972222251763917,0.00519235478714108,0.000610865245107561,0.00244346098043024
5,1.01527782720901,0.0777777813567098,-0.101388894748172,0.00946841109544039,0.00397062394768,-0.00183259579353034
5,1.01527782720901,0.0750000036681839,-0.0986111170596459,0.0125227374956012,0.0027488935738802,-0.00152716308366507
5,1.0125000434425,0.0791666671619817,-0.101388894748172,0.0125227374956012,-0.000610865245107561,-0.000305432622553781
5,1.01666671909226,0.0777777813567098,-0.104166672436698,0.0131336031481624,0.000916297896765172,-0.00549778714776039
5,1.01527782720901,0.0750000036681839,-0.0986111170596459,0.0161879286170006,0.0021380283869803,-0.00397062394768
5,1.01666671909226,0.0805555590452358,-0.0944444474878658,0.00519235478714108,0.00244346098043024,-0.000305432622553781
5,1.01805561097552,0.0819444448505077,-0.100000002864918,0.00427605677396059,0.0033597587607801,0.00610865233466029
5,1.01944450285877,0.0791666671619817,-0.102777780553444,0.00183259579353034,0.00488692196086049,0.00122173049021512
5,1.01527782720901,0.0722222259796579,-0.101388894748172,-0.00244346098043024,0.00549778714776039,0.0100792767480016
5,1.01388893532575,0.0750000036681839,-0.102777780553444,0.0021380283869803,0.0045814891345799,-0.00488692196086049
5,1.0125000434425,0.0777777813567098,-0.108333335930496,-0.000610865245107561,0.00671951752156019,-0.00427605677396059
5,1.02083339474202,0.0819444448505077,-0.104166672436698,0.00397062394768,0.0113010071218014,0.0106901414692402
5,1.01388893532575,0.0750000036681839,-0.10972222781375,-0.00580321997404099,0.00152716308366507,-0.0027488935738802
5,1.01666671909226,0.0750000036681839,-0.112499999424294,-0.00702495034784079,0.00946841109544039,0.00488692196086049
5,1.0125000434425,0.0777777813567098,-0.104166672436698,-0.00122173049021512,0.00152716308366507,-0.00152716308366507
5,1.01111115155925,0.0722222259796579,-0.10972222781375,-0.00122173049021512,0.00733038317412138,0.0033597587607801
5,1.0125000434425,0.0777777813567098,-0.0958333393711199,-0.00397062394768,0.00549778714776039,0.00488692196086049
5,1.0125000434425,0.0777777813567098,-0.0986111170596459,0.00152716308366507,-0.00610865233466029,-0.00244346098043024
5,1.0125000434425,0.0750000036681839,-0.105555564319952,0.00366519158706069,0.000916297896765172,-0.00244346098043024
5,1.0125000434425,0.0777777813567098,-0.104166672436698,-0.00183259579353034,0.00580321997404099,0.000916297896765172
5,1.01388893532575,0.0777777813567098,-0.0875000002275597,-0.00427605677396059,-0.00733038317412138,0.00183259579353034
5,1.01666671909226,0.0777777813567098,-0.0930555616825939,-0.00733038317412138,-0.00183259579353034,0.00488692196086049
5,1.01666671909226,0.0736111117849297,-0.0986111170596459,0.00305432616733015,-0.00152716308366507,0.00122173049021512
5,1.01111115155925,0.0694444482911319,-0.102777780553444,0.0149661982432008,0.0131336031481624,0.00305432616733015
5,1.01111115155925,0.0694444482911319,-0.102777780553444,0.00549778714776039,0.0100792767480016,0.0027488935738802
5,1.01666671909226,0.0722222259796579,-0.0972222251763917,0.0021380283869803,0.00244346098043024,-0.0027488935738802
5,1.01527782720901,0.0791666671619817,-0.0916666697993398,-0.000305432622553781,-0.0134390350431204,-0.00244346098043024
5,1.01527782720901,0.0791666671619817,-0.0916666697993398,0.00519235478714108,-0.0113010071218014,0.000305432622553781
5,1.02083339474202,0.0722222259796579,-0.104166672436698,0.00794124789535999,-0.0125227374956012,0.00152716308366507
5,1.01944450285877,0.0777777813567098,-0.108333335930496,0.00977384392172098,-0.000916297896765172,0.00152716308366507
5,1.01944450285877,0.0777777813567098,-0.108333335930496,0.0189368221908808,0.0106901414692402,-0.00641408516094089
5,1.01805561097552,0.0763888894734557,-0.0986111170596459,0.013744467869401,0.00244346098043024,0.000305432622553781
5,1.01388893532575,0.0791666671619817,-0.100000002864918,0.0134390350431204,-0.00580321997404099,0.00122173049021512
5,1.01388893532575,0.0791666671619817,-0.100000002864918,0.00733038317412138,-0.0021380283869803,0.00244346098043024
5,1.01527782720901,0.0819444448505077,-0.111111119697004,0.00855211354792118,-0.00488692196086049,-0.00763581553474069
5,1.01527782720901,0.0763888894734557,-0.104166672436698,0.0106901414692402,-0.000916297896765172,-0.000916297896765172
5,1.01388893532575,0.0736111117849297,-0.106944444047242,0.00244346098043024,0.000610865245107561,-0.00641408516094089
5,1.0125000434425,0.0777777813567098,-0.102777780553444,0.00580321997404099,-0.00763581553474069,-0.00519235478714108
5,1.01527782720901,0.0750000036681839,-0.104166672436698,-0.0045814891345799,-0.00549778714776039,0.00671951752156019
5,1.01944450285877,0.0708333340964038,-0.108333335930496,0.0021380283869803,-0.00397062394768,-0.000610865245107561
5,1.01666671909226,0.0763888894734557,-0.102777780553444,0.0106901414692402,0.0045814891345799,-0.00519235478714108
5,1.01527782720901,0.0722222259796579,-0.105555564319952,0.00488692196086049,0.00427605677396059,-0.00183259579353034
5,1.01527782720901,0.0763888894734557,-0.102777780553444,0.00794124789535999,0.00305432616733015,-0.000305432622553781
5,1.01527782720901,0.0777777813567098,-0.104166672436698,0.00977384392172098,0.0033597587607801,0.00183259579353034
5,1.0125000434425,0.0777777813567098,-0.100000002864918,-0.00305432616733015,-0.00152716308366507,0.00244346098043024
5,1.01527782720901,0.0819444448505077,-0.101388894748172,-0.000610865245107561,0.00152716308366507,0.00305432616733015
5,1.01666671909226,0.0819444448505077,-0.101388894748172,-0.000610865245107561,-0.0045814891345799,-0.0021380283869803
5,1.01388893532575,0.0736111117849297,-0.113888891307548,-0.00244346098043024,0.000916297896765172,-0.00244346098043024
5,1.01666671909226,0.0777777813567098,-0.108333335930496,-0.00885754637420177,-0.00122173049021512,-0.0045814891345799
5,1.01666671909226,0.0750000036681839,-0.106944444047242,0.000305432622553781,0.000305432622553781,-0.00702495034784079
5,1.01944450285877,0.0750000036681839,-0.108333335930496,0.0021380283869803,-0.00183259579353034,0.00366519158706069
5,1.01666671909226,0.0777777813567098,-0.108333335930496,0.00794124789535999,0.0045814891345799,-0.00641408516094089
5,1.01666671909226,0.0680555564078778,-0.101388894748172,0.00580321997404099,0.00183259579353034,0.000610865245107561
5,1.01944450285877,0.0750000036681839,-0.102777780553444,0.00733038317412138,0.0021380283869803,-0.0027488935738802
5,1.01111115155925,0.0777777813567098,-0.0958333393711199,0.00519235478714108,-0.0180205255746841,-0.00183259579353034
5,1.01527782720901,0.0722222259796579,-0.0986111170596459,0.00733038317412138,-0.00610865233466029,-0.00305432616733015
5,1.01527782720901,0.0722222259796579,-0.108333335930496,0.0128281703218818,0.00977384392172098,-0.0033597587607801
5,1.01805561097552,0.0777777813567098,-0.104166672436698,0.011606439948082,0.0106901414692402,0.00610865233466029
5,1.01805561097552,0.0805555590452358,-0.106944444047242,0.00183259579353034,0.00580321997404099,0.000610865245107561
5,1.01805561097552,0.0750000036681839,-0.104166672436698,-0.00519235478714108,0.00305432616733015,-0.00885754637420177
5,1.01527782720901,0.0777777813567098,-0.104166672436698,0.00305432616733015,-0.00946841109544039,-0.0027488935738802
5,1.01805561097552,0.0763888894734557,-0.105555564319952,0.00702495034784079,-0.00977384392172098,-0.00855211354792118
5,1.0125000434425,0.0791666671619817,-0.108333335930496,0.00733038317412138,-0.01588249579072,-0.0027488935738802
5,1.01527782720901,0.0791666671619817,-0.111111119697004,0.00702495034784079,0.00183259579353034,-0.00641408516094089
5,1.01388893532575,0.0805555590452358,-0.104166672436698,0.00733038317412138,-0.0033597587607801,-0.0125227374956012
