Activity,acc_x,acc_y,acc_z,gyro_x,gyro_y,gyro_z
0,0.447222262554524,0.0722222259796579,0.922222265526414,-0.177761793136597,-0.0552833043038845,-0.189062789082527
0,0.44583337067127,0.0722222259796579,0.913888914226889,-0.184786736965179,-0.0681114718317986,-0.171653136610985
0,0.44583337067127,0.0722222259796579,0.913888914226889,-0.166155353188515,-0.0662788823246956,-0.0931569486856461
0,0.438888911254999,0.0708333340964038,0.869444471210474,-0.109650313854218,-0.123089343309402,-0.0305432621389627
0,0.440277803138253,0.0666666706026059,0.848611190209378,-0.0595593601465225,-0.124005645513535,-0.0204639863222837
0,0.461111132763207,0.0569444456537738,0.844444514559616,-0.0754418596625328,-0.144164204597473,-0.013744467869401
0,0.459722240879953,0.052777782159976,0.854166660494678,-0.145385921001434,-0.127670839428902,0.0259617734700441
0,0.449999997697174,0.0625000010308258,0.863888903677457,-0.168598800897598,-0.0873537287116051,0.0931569486856461
0,0.426388884305712,0.0861111144222878,0.877777822509998,-0.127365410327911,0.0262672062963247,0.204028993844986
0,0.444444478788016,0.0805555590452358,0.895833319744586,-0.0513126812875271,0.0629191175103188,0.13225232064724
0,0.495833332596844,0.0597222233422998,0.89166674134254,-0.0791070461273193,0.0778853222727776,0.101709060370922
0,0.49444444071359,0.0486111125881959,0.906944454810619,-0.0824668109416962,0.0219911485910416,0.0861319974064827
0,0.473611111088636,0.0541666679652478,0.895833319744586,-0.0519235469400883,-0.11636982858181,0.103847093880177
0,0.444444478788016,0.0625000010308258,0.894444525109048,0.0345138870179653,-0.0500909499824047,0.0870482996106148
0,0.452777781463682,0.0541666679652478,0.888888957576031,0.0946841165423393,-0.13225232064724,0.0723875313997269
0,0.456944457113445,0.0458333348996699,0.880555606276507,0.12705996632576,-0.179288953542709,0.0891863256692886
0,0.459722240879953,0.0513888902767219,0.884722281926269,0.176234617829323,-0.202196389436722,0.0784961804747581
0,0.466666700296224,0.0583333375370279,0.884722281926269,0.223576679825783,-0.207694187760353,0.0613919571042061
0,0.479166678621653,0.055555559848502,0.904166671044111,0.300240278244019,-0.112093769013882,0.0268780700862408
0,0.486111138037923,0.055555559848502,0.890277849459286,0.339030206203461,0.0452040284872055,0.0164933614432812
0,0.459722240879953,0.0680555564078778,0.888888957576031,0.315206468105316,0.0213802829384804,0.0937678143382072
0,0.42916666807222,0.0805555590452358,0.888888957576031,0.241291776299477,0.017409659922123,0.151800006628036
0,0.42916666807222,0.0805555590452358,0.888888957576031,0.280692577362061,0.0482583530247212,0.244040668010712
0,0.46527780841297,0.104166672436698,0.913888914226889,0.37568211555481,0.111788339912891,0.39125919342041
0,0.456944457113445,0.0750000036681839,0.888888957576031,0.347887754440308,0.013744467869401,0.582765460014343
0,0.470833327322128,0.0875000002275597,0.85138887672817,0.146913096308708,-0.0769690200686455,0.739757835865021
0,0.42916666807222,0.116666675074056,0.825000028194058,-0.096211276948452,-0.218078896403313,0.902553379535675
0,0.470833327322128,0.0972222251763917,0.84583340644287,-0.141415297985077,0.0601702257990837,0.789237916469574
0,0.476388894855144,0.0875000002275597,0.848611190209378,-0.222660377621651,0.0919352173805237,0.831082165241241
0,0.47500000297189,0.0652777787193518,0.852777768611424,-0.382401645183563,-0.171347707509995,0.969137728214264
0,0.470833327322128,0.0500000014324589,0.861111119910949,-0.431270867586136,-0.0262672062963247,1.10505521297455
0,0.393055576355329,0.0833333367337618,0.95000000594378,-0.299323976039886,-0.293215304613113,1.42514860630035
0,0.42916666807222,0.0652777787193518,0.925000049292922,-0.142942473292351,-0.11636982858181,1.3912456035614
0,0.466666700296224,0.03194444645704,0.92083337364316,-0.0241291765123606,-0.229990765452385,1.4245377779007
0,0.455555565230191,0.0180555564949145,0.87500003874349,-0.242818936705589,-0.24862214922905,1.67102181911469
0,0.401388903342925,0.033333335301303,0.841666730793107,-0.453872889280319,-0.143553331494331,1.81701862812042
0,0.390277792588821,0.03194444645704,0.847222298326124,-0.566272079944611,-0.201890960335732,1.95721220970154
0,0.449999997697174,-0.0625000010308258,0.841666730793107,-0.550084173679352,-0.501214921474457,2.07969069480896
0,0.479166678621653,-0.0944444474878658,0.859722228027695,-0.222660377621651,-0.383928805589676,2.01066303253174
0,0.479166678621653,-0.125000002061652,0.906944454810619,-0.136528387665749,-0.653931260108948,1.98500657081604
0,0.486111138037923,-0.186111123365188,0.89722221162784,-0.164628177881241,-0.80939644575119,1.97401106357575
0,0.513888927079148,-0.20972223675665,0.866666687443965,0.0919352173805237,-0.648128032684326,1.79350030422211
0,0.579166699720517,-0.279166685047782,0.834722271376837,0.243735238909721,-0.977995276451111,1.64108943939209
0,0.595833353695709,-0.380555573717971,0.672222261403111,-0.0293215326964855,-0.463035851716995,1.34634697437286
0,0.594444461812454,-0.379166681834717,0.745833336720147,-0.146913096308708,-0.999375522136688,1.21409463882446
0,0.601388921228725,-0.368055571080613,0.862500011794203,0.236099421977997,-1.03877639770508,0.918130457401276
0,0.647222256128395,-0.409722230330521,0.886111173809523,0.671340882778168,-0.675006091594696,0.503047525882721
0,0.663888910103586,-0.416666689746791,0.82916670384382,0.780685782432556,-0.532674491405487,0.256868839263916
0,0.677777780312269,-0.386111116939059,0.827777811960566,0.773660838603973,-0.93095862865448,0.438295811414719
0,0.690277807261557,-0.338888890156135,0.759722255552688,0.675006091594696,-0.758389174938202,0.541226625442505
0,0.661111126337078,-0.222222239394008,0.637500012945616,0.744033873081207,-0.228463605046272,1.0012081861496
0,0.679166672195524,-0.308333341660331,0.668055585753349,1.1545352935791,-0.45509460568428,1.17499935626984
0,0.656944450687316,-0.273611117514765,0.652777823661411,1.328937292099,-0.50182580947876,1.63467538356781
0,0.686111131611794,-0.383333357484479,0.627777818386695,1.70523035526276,-0.932180345058441,2.21591377258301
0,0.681944455962032,-0.423611149163062,0.613888899554154,1.53388261795044,-1.44347453117371,2.88817095756531
0,0.676388937052873,-0.362500003547597,0.650000039894903,0.988990843296051,-1.7657059431076,3.23544788360596
0,0.663888910103586,-0.301388906555989,0.623611142736933,0.438295811414719,-2.35396933555603,3.0845639705658
0,0.625000034620187,-0.272222225631511,0.604166704995233,-0.129808858036995,-3.6569447517395,3.07601189613342
0,0.58611111051293,-0.252777787889811,0.729166682744956,-0.894001305103302,-5.6269850730896,2.33564329147339
0,0.65833334257057,-0.315277801076602,0.848611190209378,-1.39827048778534,-5.70578670501709,1.51922190189362
0,0.769444450111609,-0.447222262554524,0.833333379493583,-1.21653819084168,-4.84141254425049,1.18813288211823
0,0.779166693294388,-0.502777792013115,0.644444472361887,-1.07756626605988,-3.86402821540833,1.67377078533173
0,0.694444482911319,-0.495833332596844,0.525000013521323,-1.53143918514252,-3.69878911972046,1.73699533939362
0,0.641666688595378,-0.437500019371745,0.469444484062732,-1.94957637786865,-3.69939994812012,1.16339290142059
0,0.702777785586986,-0.394444468238583,0.343055565805897,-2.19178438186646,-3.3802227973938,0.728762209415436
0,0.95000000594378,-0.380555573717971,0.423611149163062,-0.901942551136017,-1.99722397327423,-0.186313897371292
0,0.916666697993398,-0.538888932353864,0.379166681834717,-0.137139245867729,-1.47279608249664,-0.187230199575424
0,0.726388898978447,-0.629166710269949,0.256944463539574,0.295047909021378,-0.583070874214172,0.459370672702789
0,0.791666671619817,-0.531944472937593,0.120833338567854,0.175929188728332,-0.239764615893364,0.559858024120331
0,0.858333336144441,-0.473611111088636,0.0361111129898289,-0.0873537287116051,-0.980133295059204,0.0326812900602817
0,1.00277780025972,-0.545833343146276,0.055555559848502,-0.355218142271042,-1.66369152069092,-0.140804439783096
0,0.977777843608863,-0.611111115787646,0.162500009973726,-0.117896988987923,-1.23761296272278,0.136528387665749
0,1.05000002704265,-0.755555579902926,0.179166676104882,-0.143247902393341,-0.01191187184304,1.14201259613037
0,1.18333335609189,-0.765277823085705,0.0777777813567098,-0.291993588209152,0.664315938949585,1.71286618709564
0,1.02777785415829,-0.736111142161226,-0.0361111129898289,-0.904385983943939,-0.453872889280319,1.75532126426697
0,0.877777822509998,-0.618055575203916,-0.0416666683668809,-1.32313406467438,-1.38727498054504,1.24402701854706
0,0.680555564078778,-0.587500002396184,-0.197222234119292,-1.37353050708771,-1.4456125497818,0.680503904819489
0,0.661111126337078,-0.5930555699292,-0.0875000002275597,-1.63131558895111,-2.29196643829346,0.600175082683563
0,0.706944461236748,-0.580555591603771,-0.0597222233422998,-1.0134254693985,-0.218995183706284,0.765108704566956
0,0.604166704995233,-0.52083333787156,-0.20138889761309,-0.171958565711975,0.304516315460205,0.367435455322266
0,0.484722246154669,-0.511111143312639,-0.197222234119292,0.0360410511493683,0.262672066688538,-0.515875697135925
0,0.484722246154669,-0.511111143312639,-0.197222234119292,0.33292156457901,0.574824213981628,-1.02106130123138
0,0.420833365396554,-0.426388884305712,-0.116666675074056,0.664926826953888,0.630412936210632,-1.638951420784
0,0.420833365396554,-0.426388884305712,-0.116666675074056,1.27365398406982,0.94195419549942,-1.79716551303864
0,0.594444461812454,-0.493055597454194,0.0652777787193518,1.63436996936798,1.48104274272919,-1.49509263038635
0,1.01944450285877,-0.584722267253534,0.0361111129898289,0.985936522483826,1.19485247135162,-1.54151844978332
0,1.04583335139288,-0.609722223904392,0.12777778582816,-0.0626136884093285,0.0638354197144508,-2.34999871253967
0,1.04583335139288,-0.609722223904392,0.12777778582816,-0.140804439783096,0.697913527488708,-2.43765783309936
0,1.1083333888916,-0.698611158561081,-0.315277801076602,-0.138360977172852,0.244040668010712,-1.93155586719513
0,1.2013889505742,-0.676388937052873,-0.0791666671619817,0.0326812900602817,-0.39125919342041,-1.258993268013
0,1.2013889505742,-0.676388937052873,-0.0791666671619817,0.0998764708638191,0.136833816766739,-1.55648469924927
0,0.979166735492117,-0.408333338447267,0.0652777787193518,0.506101846694946,0.984103918075562,-2.43277072906494
0,0.769444450111609,-0.281944444502361,-0.12777778582816,0.489303052425385,0.84116142988205,-2.84388303756714
0,0.769444450111609,-0.281944444502361,-0.12777778582816,0.129503428936005,-0.328645497560501,-3.00179171562195
0,1.10416671324184,-0.488888921804431,0.0402777795226179,-0.189368233084679,0.277332812547684,-1.52135992050171
0,1.17777778855888,-0.447222262554524,0.144444451959316,0.00152716308366507,0.49693888425827,-1.21989786624908
0,1.19722227492443,-0.344444457689151,0.130555557438704,0.118507854640484,-0.0803287774324417,-0.872010111808777
0,1.08888890252604,-0.302777798439244,0.0916666697993398,-0.0436768643558025,-0.183259576559067,-1.02839159965515
0,0.952777789710289,-0.243055569018962,0.030555557612777,-0.371100634336472,-0.545808076858521,-1.35642623901367
0,0.894444525109048,-0.170833336961321,-0.0138888899621255,-0.759000062942505,-0.504574716091156,-1.62887215614319
0,0.812500049868629,-0.108333335930496,0.00694444498106275,-0.326812893152237,-0.700662434101105,-1.37261426448822
0,0.890277849459286,-0.0916666697993398,0.00555555575692586,-0.358883321285248,-0.927293419837952,-1.60352122783661
0,1.0305556379248,-0.125000002061652,0.00694444498106275,-0.425467640161514,-0.831082165241241,-1.67193818092346
0,1.01944450285877,-0.148611115453114,0.15555556271342,0.0803287774324417,-0.424551337957382,-1.7324138879776
0,1.04444445950963,-0.140277788465518,0.055555559848502,0.0717766657471657,-0.795346558094025,-1.47004723548889
0,1.53888890022322,-0.305555557893823,-0.0430555572111439,0.557719945907593,-0.0571159012615681,-1.49723076820373
0,1.20000005869094,0.0152777788063885,-0.0875000002275597,0.214413702487946,-0.124616511166096,-0.518930017948151
0,1.16111118320754,0.108333335930496,-0.12916666555545,0.229379892349243,0.0726929605007172,0.193644285202026
0,1.09166668629255,0.12777778582816,-0.190277786858986,0.109650313854218,0.176845490932465,0.457538068294525
0,1.06805562152495,0.0625000010308258,-0.159722226207217,0.293520748615265,0.90408056974411,0.277638256549835
0,1.1708333291426,0.0236111118719664,-0.206944452990142,0.106901414692402,1.70278692245483,-0.0372627787292004
0,1.25555563677339,0.0152777788063885,-0.363888895430851,-0.418748140335083,3.63892436027527,-0.452651143074036
0,1.01805561097552,0.0625000010308258,-0.0347222241455659,-0.424856781959534,2.71254706382752,-0.102014496922493
0,0.818055568777787,0.134722233088466,0.454166673346937,-0.401338458061218,-0.0949895456433296,0.31703907251358
0,0.82222224442755,0.0388888906783549,0.487500029921177,0.16951510310173,-0.788627028465271,0.231212496757507
0,0.983333411141879,-0.0805555590452358,0.18333333959868,0.33292156457901,-0.558636248111725,-0.0601702257990837
0,1.01527782720901,-0.00277777787846293,0.055555559848502,0.165544480085373,-0.562912344932556,0.0424551330506802
0,1.07500008094122,-0.0708333340964038,-0.00138888893923146,0.231823354959488,-0.0519235469400883,-0.114537231624126
0,1.06111116210868,0.0111111115138517,-0.0722222259796579,0.15851953625679,0.591012120246887,0.00152716308366507
0,1.02916674604155,0.0694444482911319,0.138888896582264,0.497855186462402,0.44409903883934,0.0956004112958908
0,1.0513889189259,0.0569444456537738,-0.0375000018340919,-0.230296194553375,0.473420560359955,0.078801617026329
0,1.06666672964169,0.00972222266958873,0.101388894748172,0.00580321997404099,0.659734487533569,-0.0033597587607801
0,1.03888889197661,-0.0138888899621255,0.120833338567854,0.0812450796365738,0.440433830022812,-0.0549778714776039
0,0.991666665193688,0.00972222266958873,0.13750000469901,0.0467311926186085,0.0867428630590439,0.159130394458771
0,0.809722266102121,0.027777779924251,0.125000002061652,-0.00488692196086049,-0.0696386396884918,0.588874101638794
0,0.894444525109048,0.027777779924251,0.0750000036681839,0.359494209289551,0.333532422780991,0.473420560359955
0,1.04861113515939,-0.00416666691266287,0.14722222356986,0.203112691640854,0.303905457258224,0.35430184006691
0,1.02500007039179,-0.00277777787846293,0.0458333348996699,-0.260839462280273,0.228158175945282,0.365602850914002
0,0.986111194908388,-0.0125000003581147,0.055555559848502,-0.572075307369232,0.0161879286170006,0.575129628181458
0,0.95000000594378,-0.00416666691266287,0.166666673467524,-0.31245756149292,0.0381790772080422,0.764497876167297
0,0.877777822509998,-0.0166666676506515,0.202777789496344,-0.0568104684352875,0.0164933614432812,1.28984200954437
0,0.836111163260091,-0.00833333382532574,0.140277788465518,0.121867619454861,0.0106901414692402,1.90620493888855
0,1.20972230187372,-0.0750000036681839,0.163888889701015,0.196393176913261,-0.0839939713478088,0.543364644050598
0,0.894444525109048,-0.0652777787193518,0.15555556271342,0.266337245702743,0.188757359981537,1.4190399646759
0,0.738888925927735,-0.112499999424294,0.118055554801345,0.098960168659687,0.313679307699203,1.5534303188324
0,1.45277779795689,-0.29166668768514,0.140277788465518,-0.103236228227615,-0.0470366254448891,0.0510072484612465
0,1.15000004814151,-0.18333333959868,0.130555557438704,-0.115758962929249,-0.447764217853546,-0.157603234052658
0,1.07222229717471,-0.140277788465518,0.0708333340964038,-0.290771842002869,-0.358577907085419,-0.127670839428902
0,1.07361118905796,-0.198611113846581,0.166666673467524,-0.246178686618805,-0.49693888425827,-0.503963828086853
0,1.12499999424293,-0.180555567988136,0.140277788465518,-0.141415297985077,-0.64537912607193,-0.364991992712021
0,1.1083333888916,-0.161111118090472,0.120833338567854,0.00794124789535999,-0.580932855606079,-0.194255143404007
0,1.04861113515939,-0.143055560076062,0.0388888906783549,-0.00305432616733015,-0.245262399315834,-0.125532805919647
0,0.98888888142718,-0.144444451959316,0.0125000003581147,-0.278249114751816,-0.182954147458077,-0.0397062413394451
0,1.00277780025972,-0.101388894748172,0.14583334384257,-0.267864406108856,-0.703411340713501,-0.186313897371292
0,0.987499989543926,-0.12777778582816,0.152777778946911,-0.186924770474434,-0.817032277584076,-0.110566608607769
0,1.0513889189259,-0.140277788465518,0.0791666671619817,-0.0455094613134861,-0.603840291500092,0.00733038317412138
0,1.04583335139288,-0.176388892338373,0.0194444453391775,0.0033597587607801,-0.29596421122551,-0.0852157026529312
0,1.07222229717471,-0.17361112072783,0.0222222230277034,0.0931569486856461,-0.135306656360626,-0.188757359981537
0,1.13055556177595,-0.150000007336368,0.0375000018340919,0.21685716509819,0.176845490932465,-0.339030206203461
0,1.17638889667562,-0.102777780553444,0.0847222225390337,0.335670441389084,0.411417752504349,-0.421497017145157
0,1.20555562622396,-0.0416666683668809,0.0944444474878658,0.655763864517212,0.531147301197052,-0.353996396064758
0,1.17777778855888,-0.0708333340964038,0.102777780553444,0.853684186935425,0.589790403842926,-0.18509216606617
0,1.08055555122652,-0.0750000036681839,0.116666675074056,0.921184778213501,0.220216915011406,-0.0610865242779255
0,0.973611167959101,-0.0736111117849297,0.0750000036681839,0.546418964862823,-0.392175495624542,0.296880513429642
0,0.973611167959101,-0.0736111117849297,0.0750000036681839,-0.127365410327911,0.410806864500046,0.168598800897598
0,0.905555562927365,-0.14583334384257,0.166666673467524,-0.824057221412659,0.144164204597473,0.188146501779556
0,0.905555562927365,-0.14583334384257,0.166666673467524,0.0342084541916847,0.301156580448151,-0.00733038317412138
0,1.00694447590948,-0.0458333348996699,0.0194444453391775,-0.248011291027069,0.599869668483734,0.167377084493637
0,1.09444447005906,-0.144444451959316,0.13750000469901,-0.150578290224075,0.546724379062653,0.112704634666443
0,1.09444447005906,-0.144444451959316,0.13750000469901,0.0763581544160843,0.627664029598236,0.0830776765942574
0,1.05277781080915,-0.13750000469901,0.163888889701015,0.0806342139840126,0.39064833521843,0.0461203269660473
0,0.983333411141879,-0.122222230451108,0.161111118090472,0.0839939713478088,0.199142068624496,0.0497855171561241
0,0.945833330294018,-0.120833338567854,0.138888896582264,0.017409659922123,0.0161879286170006,0.058643065392971
0,0.952777789710289,-0.13750000469901,0.144444451959316,-0.0638354197144508,-0.115148097276688,0.0668897479772568
0,0.987499989543926,-0.131944449321958,0.150000007336368,-0.0751364231109619,-0.152716308832169,0.0913243517279625
0,1.02500007039179,-0.120833338567854,0.118055554801345,-0.0171042270958424,-0.13225232064724,0.0555887371301651
0,1.05555559457566,-0.106944444047242,0.115277783190802,0.0027488935738802,-0.0204639863222837,0.0507018156349659
0,1.0513889189259,-0.10972222781375,0.0916666697993398,-0.0992656052112579,0.160046696662903,0.0109955742955208
0,1.02916674604155,-0.136111112815755,0.0861111144222878,-0.037568211555481,0.0219911485910416,0.103541657328606
0,1.03750000009336,-0.134722233088466,0.17361112072783,0.273973047733307,-0.221438646316528,0.0027488935738802
0,1.00416669214298,-0.113888891307548,0.152777778946911,0.139277279376984,0.0189368221908808,0.0491746515035629
0,1.01527782720901,-0.120833338567854,0.0875000002275597,-0.0943786799907684,0.193644285202026,0.0366519130766392
0,1.01111115155925,-0.123611110178398,0.0486111125881959,-0.101403631269932,0.277027398347855,0.0894917547702789
0,1.04166667574312,-0.14583334384257,0.122222230451108,0.183259576559067,-0.0675006061792374,0.0335975885391235
0,0.96666670854283,-0.111111119697004,0.18333333959868,0.123394779860973,0.696080923080444,0.0705549344420433
0,1.06250005399193,-0.15555556271342,0.052777782159976,-0.572380721569061,0.513126790523529,-0.0128281703218818
0,0.991666665193688,-0.14722222356986,0.0777777813567098,-0.63438355922699,0.335670441389084,-0.109650313854218
0,0.96666670854283,-0.156944454596674,0.206944452990142,-0.35979962348938,-0.484721571207047,0.0565050356090069
0,0.956944465360051,-0.116666675074056,0.263888898643915,0.0992656052112579,-0.534201681613922,0.0134390350431204
0,0.975000059842355,-0.158333334323963,0.206944452990142,-0.170431405305862,-0.0409279726445675,-0.0733038261532784
0,0.994444448960196,-0.141666668192807,-0.0208333341834404,-0.909272909164429,0.194866016507149,-0.105068825185299
0,1.00972225967599,-0.148611115453114,0.0638888929140799,-0.597120761871338,0.490524798631668,-0.107512280344963
0,1.08888890252604,-0.126388893944906,0.252777787889811,-0.0522289797663689,0.134390354156494,0.0448985956609249
0,1.00972225967599,-0.0944444474878658,0.250000004123303,0.0668897479772568,0.0164933614432812,0.081855945289135
0,0.93750007624221,-0.111111119697004,0.150000007336368,-0.109039448201656,-0.257479697465897,0.105374254286289
0,0.952777789710289,-0.152777778946911,0.197222234119292,-0.112399205565453,-0.414166629314423,0.0656680166721344
0,0.99583334084345,-0.156944454596674,0.16527778158427,-0.0632245540618896,-0.558941721916199,0.0726929605007172
0,1.05833337834217,-0.123611110178398,0.0972222251763917,-0.0748309940099716,-0.394924372434616,0.0500909499824047
0,1.08750001064279,-0.106944444047242,0.111111119697004,-0.22754730284214,-0.133168622851372,-0.0229074470698834
0,1.05277781080915,-0.123611110178398,0.122222230451108,-0.0348193198442459,-0.113010071218014,-0.0134390350431204
0,1.00833336779274,-0.136111112815755,0.133333341205212,-0.0351247526705265,-0.134390354156494,0.0742201283574104
0,1.00277780025972,-0.133333341205212,0.154166670830166,0.00122173049021512,-0.215940862894058,0.127670839428902
0,0.94305554652751,-0.170833336961321,0.131944449321958,0.0424551330506802,-0.537256002426147,0.111788339912891
0,0.968055600426084,-0.156944454596674,0.12777778582816,-0.00885754637420177,-0.678671300411224,0.0387899428606033
0,0.993055557076942,-0.14722222356986,0.0847222225390337,-0.00366519158706069,-0.796262860298157,0.0452040284872055
0,1.10972228077486,-0.188888894975731,0.0513888902767219,0.0620028227567673,-0.327729195356369,0.0210748501121998
0,1.06527783775844,-0.186111123365188,0.0472222237439329,0.021685715764761,-0.32742378115654,-0.01588249579072
0,0.952777789710289,-0.193055558469529,0.0833333367337618,-0.413250327110291,-1.02839159965515,-0.0601702257990837
0,1.05972227022542,-0.193055558469529,0.026388891079988,-0.0537561401724815,-0.901331663131714,-0.0910189226269722
0,1.06805562152495,-0.193055558469529,0.0152777788063885,0.0946841165423393,-0.652709543704987,-0.0867428630590439
0,1.02222228662528,-0.170833336961321,0.0152777788063885,0.147829383611679,-0.423329621553421,0.00549778714776039
0,0.976388951725609,-0.12777778582816,-0.0208333341834404,-0.143858760595322,-0.547946095466614,0.0430659987032413
0,1.02500007039179,-0.13750000469901,-0.0638888929140799,-0.458759784698486,-0.634994447231293,-0.000305432622553781
0,1.04166667574312,-0.159722226207217,-0.101388894748172,-0.520457208156586,-0.451734840869904,-0.0299323964864016
0,1.04722224327614,-0.14722222356986,-0.0888888921108138,-0.400422155857086,-0.208305045962334,-0.00855211354792118
0,1.04583335139288,-0.148611115453114,-0.0722222259796579,-0.22204951941967,0.0864374339580536,0.0140499006956816
5,1.04027778385987,-0.154166670830166,-0.0625000010308258,-0.182037845253944,0.220216915011406,0.0516181141138077
5,1.04027778385987,-0.154166670830166,-0.0625000010308258,-0.176234617829323,0.224187538027763,0.0494800843298435
5,1.0305556379248,-0.212499996211229,-0.0222222230277034,0.090408056974411,0.386677712202072,0.0766635909676552
5,1.06805562152495,-0.2194444556275,-0.0222222230277034,0.491135656833649,0.764803290367126,0.0299323964864016
5,1.06805562152495,-0.2194444556275,-0.0222222230277034,0.625220596790314,1.05588054656982,-0.157603234052658
5,1.04583335139288,-0.180555567988136,0.00277777787846293,0.608421802520752,1.10810959339142,-0.276416510343552
5,1.08611111875954,-0.223611131277262,-0.0486111125881959,0.80298238992691,1.84389674663544,-0.2165517359972
5,1.08611111875954,-0.223611131277262,-0.0486111125881959,1.0690141916275,0.417831838130951,-0.0861319974064827
5,0.890277849459286,-0.0375000018340919,0.212499996211229,1.01709067821503,-0.469144523143768,0.131336033344269
5,0.881944498159761,-0.0944444474878658,0.0652777787193518,0.270613312721252,-0.704633057117462,-0.0106901414692402
5,0.881944498159761,-0.0944444474878658,0.0652777787193518,-0.0775798857212067,-0.712879717350006,0.00946841109544039
5,0.987499989543926,-0.15555556271342,0.00555555575692586,-0.0100792767480016,-0.418442696332932,-0.00824668072164059
5,1.08888890252604,-0.176388892338373,0.00277777787846293,0.153938040137291,-0.0635299831628799,-0.017409659922123
5,1.11805563207438,-0.159722226207217,0.00277777787846293,0.215940862894058,0.193644285202026,-0.00977384392172098
5,1.07500008094122,-0.143055560076062,0.00277777787846293,0.129808858036995,0.266031801700592,-0.00549778714776039
5,1.01666671909226,-0.118055554801345,0.0138888899621255,0.011606439948082,0.190895393490791,-0.00397062394768
5,0.987499989543926,-0.111111119697004,0.0680555564078778,0.00885754637420177,0.00824668072164059,0.00244346098043024
5,0.986111194908388,-0.125000002061652,0.0875000002275597,0.112704634666443,-0.167071640491486,0.0027488935738802
5,1.00972225967599,-0.14583334384257,0.0833333367337618,0.144469633698463,-0.163101017475128,-0.0021380283869803
5,1.01944450285877,-0.14583334384257,0.0625000010308258,0.130114302039146,-0.0974330082535744,-0.00733038317412138
5,1.03750000009336,-0.131944449321958,0.03194444645704,0.102319926023483,-0.021685715764761,0.000610865245107561
5,1.0361111082101,-0.125000002061652,0.030555557612777,0.0809396430850029,0.0149661982432008,0.00610865233466029
5,1.02500007039179,-0.1194444466846,0.0361111129898289,0.0791070461273193,0.0125227374956012,0.0045814891345799
5,1.00972225967599,-0.125000002061652,0.0625000010308258,0.0671951770782471,-0.0235183127224445,0.0219911485910416
5,1.00972225967599,-0.125000002061652,0.0611111152255539,0.0525344125926495,-0.0794124826788902,0.0247400421649218
5,1.00972225967599,-0.12777778582816,0.0611111152255539,0.0406225398182869,-0.0949895456433296,0.0250454749912024
5,1.01944450285877,-0.130555557438704,0.0486111125881959,0.0164933614432812,-0.0974330082535744,0.0268780700862408
5,1.02361117850853,-0.13750000469901,0.0416666683668809,-0.0100792767480016,-0.0598647929728031,0.0354301854968071
5,1.03194452980806,-0.144444451959316,0.0347222241455659,-0.0161879286170006,-0.0033597587607801,0.0339030213654041
5,1.02500007039179,-0.14722222356986,0.0486111125881959,-0.00122173049021512,-0.0183259565383196,0.0311541277915239
5,1.01527782720901,-0.150000007336368,0.0513888902767219,0.01588249579072,-0.0668897479772568,0.0494800843298435
5,1.01388893532575,-0.150000007336368,0.0513888902767219,0.01588249579072,-0.0849102661013603,0.0418442711234093
5,1.01944450285877,-0.152777778946911,0.0541666679652478,0.0568104684352875,-0.0827722400426865,0.0452040284872055
5,1.01944450285877,-0.148611115453114,0.0541666679652478,0.0620028227567673,-0.10048733651638,0.0497855171561241
5,1.02222228662528,-0.156944454596674,0.033333335301303,0.0595593601465225,-0.102014496922493,0.058643065392971
5,1.02500007039179,-0.159722226207217,0.0361111129898289,0.0885754600167274,-0.0513126812875271,0.0513126812875271
5,1.02500007039179,-0.158333334323963,0.029166668768514,0.0858265683054924,-0.0290160998702049,0.0424551330506802
5,1.02638896227504,-0.151388899219622,0.0361111129898289,0.0635299831628799,-0.0455094613134861,0.0412334054708481
5,1.02222228662528,-0.151388899219622,0.0361111129898289,0.0665843114256859,-0.0452040284872055,0.027488935738802
5,1.01666671909226,-0.144444451959316,0.0347222241455659,0.0580321997404099,-0.0607810914516449,0.021685715764761
5,1.00972225967599,-0.13750000469901,0.033333335301303,0.0265726372599602,-0.0891863256692886,0.0271835029125214
5,1.00972225967599,-0.126388893944906,0.0375000018340919,0.0167987942695618,-0.120340451598167,0.0394008085131645
5,1.00416669214298,-0.134722233088466,0.027777779924251,-0.0100792767480016,-0.167377084493637,0.0610865242779255
5,1.01527782720901,-0.148611115453114,0.0194444453391775,-0.058643065392971,-0.148134827613831,0.0616973899304867
5,1.02777785415829,-0.152777778946911,0.029166668768514,-0.0613919571042061,-0.11117747426033,0.0568104684352875
5,1.0305556379248,-0.148611115453114,0.033333335301303,0.0027488935738802,-0.10048733651638,0.0390953756868839
5,1.01805561097552,-0.148611115453114,0.0388888906783549,0.0198531206697226,-0.141415297985077,0.0513126812875271
5,1.01111115155925,-0.152777778946911,0.0194444453391775,-0.00702495034784079,-0.144469633698463,0.0580321997404099
5,1.01527782720901,-0.161111118090472,0.00277777787846293,-0.0464257597923279,-0.0681114718317986,0.0705549344420433
5,1.01805561097552,-0.166666673467524,0.00555555575692586,-0.0455094613134861,-0.0473420582711697,0.0635299831628799
5,1.02638896227504,-0.168055565350778,0.0236111118719664,-0.0378736443817616,-0.0849102661013603,0.0583376325666905
5,1.03888889197661,-0.17361112072783,0.0194444453391775,-0.0247400421649218,-0.0867428630590439,0.0326812900602817
5,1.0361111082101,-0.17361112072783,0.00972222266958873,0.00152716308366507,-0.0445931628346443,0.0403171069920063
5,1.02500007039179,-0.169444445078067,-0.00416666691266287,0.0143553335219622,-0.00244346098043024,0.0351247526705265
5,1.02361117850853,-0.166666673467524,-0.00277777787846293,0.00488692196086049,0.00916297826915979,0.0256563406437635
5,1.02500007039179,-0.170833336961321,0.0111111115138517,-0.0125227374956012,-0.0180205255746841,0.0265726372599602
5,1.02638896227504,-0.176388892338373,0.0138888899621255,0.00763581553474069,-0.0635299831628799,0.00763581553474069
5,1.02500007039179,-0.170833336961321,0.00277777787846293,0.0253509078174829,-0.0363464802503586,-0.00305432616733015
5,1.01805561097552,-0.170833336961321,0.0125000003581147,0.0339030213654041,0.0122173046693206,0.000610865245107561
5,1.01111115155925,-0.150000007336368,0.0125000003581147,0.0479529201984406,-0.00702495034784079,0.0161879286170006
5,1.00555558402623,-0.140277788465518,0.0250000007162294,0.0473420582711697,-0.132557764649391,0.0448985956609249
5,1.01944450285877,-0.141666668192807,0.00555555575692586,0.0226020142436027,-0.134695783257484,0.0522289797663689
5,1.02500007039179,-0.14722222356986,0.00138888893923146,0.00152716308366507,-0.0861319974064827,0.0543670058250427
5,1.02500007039179,-0.14722222356986,0.00138888893923146,-0.0226020142436027,-0.0766635909676552,0.0616973899304867
5,1.01944450285877,-0.13750000469901,0.00416666691266287,-0.0210748501121998,-0.113620936870575,0.0604756586253643
5,1.01944450285877,-0.136111112815755,0.00277777787846293,-0.0436768643558025,-0.124616511166096,0.0830776765942574
5,1.02638896227504,-0.156944454596674,-0.0111111115138517,-0.0894917547702789,-0.0464257597923279,0.0705549344420433
5,1.02916674604155,-0.177777784221628,-0.0125000003581147,-0.087659165263176,0.00549778714776039,0.0522289797663689
5,1.02083339474202,-0.18333333959868,-0.00416666691266287,-0.0745255574584007,-0.0152716310694814,0.0360410511493683
5,1.02222228662528,-0.188888894975731,-0.00277777787846293,-0.0668897479772568,-0.0513126812875271,0.0152716310694814
5,1.02638896227504,-0.184722231481934,-0.00277777787846293,-0.0464257597923279,-0.0574213340878487,0.00916297826915979
5,1.02916674604155,-0.18333333959868,-0.0180555564949145,-0.0265726372599602,-0.037568211555481,0.00733038317412138
5,1.02361117850853,-0.170833336961321,-0.0236111118719664,-0.0632245540618896,-0.0494800843298435,0.0271835029125214
5,1.01527782720901,-0.170833336961321,-0.0388888906783549,-0.126449108123779,-0.0280998013913631,0.0360410511493683
5,1.01805561097552,-0.186111123365188,-0.0361111129898289,-0.175318330526352,0.0244346093386412,0.0345138870179653
5,1.02500007039179,-0.202777789496344,-0.0236111118719664,-0.161573857069016,0.0568104684352875,0.0183259565383196
5,1.01944450285877,-0.216666671860991,-0.0208333341834404,-0.120645888149738,0.0681114718317986,-0.0152716310694814
5,1.0125000434425,-0.222222239394008,-0.0166666676506515,-0.0290160998702049,-0.0027488935738802,-0.0320704244077206
5,1.0125000434425,-0.216666671860991,-0.0222222230277034,0.0430659987032413,-0.0852157026529312,-0.00946841109544039
5,1.01805561097552,-0.2194444556275,-0.0250000007162294,0.0754418596625328,-0.110566608607769,0.0125227374956012
5,1.01111115155925,-0.2194444556275,-0.0361111129898289,0.0598647929728031,-0.0671951770782471,0.0198531206697226
5,1.00138890837647,-0.224999998848587,-0.052777782159976,0.0452040284872055,-0.0647517144680023,0.0122173046693206
5,1.01527782720901,-0.212499996211229,-0.0402777795226179,0.0717766657471657,-0.0888808965682983,0.0146607663482428
5,1.0305556379248,-0.190277786858986,-0.033333335301303,0.113926365971565,-0.0855211317539215,0.00885754637420177
5,1.04166667574312,-0.143055560076062,-0.030555557612777,0.0949895456433296,0.0271835029125214,-0.0543670058250427
5,1.03194452980806,-0.134722233088466,-0.0430555572111439,-0.00794124789535999,0.125532805919647,-0.0864374339580536
5,1.01666671909226,-0.133333341205212,-0.0458333348996699,-0.109955742955208,0.0723875313997269,-0.0311541277915239
5,1.01944450285877,-0.141666668192807,-0.00833333382532574,-0.0949895456433296,-0.0262672062963247,0.0421497002243996
5,1.02222228662528,-0.148611115453114,0.00972222266958873,-0.0219911485910416,-0.0167987942695618,0.0186313893646002
5,1.01388893532575,-0.177777784221628,-0.00277777787846293,-0.0192422550171614,0.0198531206697226,-0.0308486949652433
5,1.00555558402623,-0.195833342236038,-0.0236111118719664,-0.0580321997404099,-0.0268780700862408,-0.0427605658769607
5,1.0125000434425,-0.195833342236038,-0.00277777787846293,-0.0406225398182869,-0.0775798857212067,-0.0726929605007172
5,1.0305556379248,-0.187500003092477,0.00555555575692586,0.0464257597923279,-0.0974330082535744,-0.102319926023483
5,1.02777785415829,-0.177777784221628,-0.029166668768514,0.0534507073462009,-0.0604756586253643,-0.0882700309157372
5,1.01527782720901,-0.168055565350778,-0.0597222233422998,-0.0045814891345799,0.0421497002243996,-0.0641408488154411
5,1.01944450285877,-0.172222228844576,-0.0569444456537738,-0.0387899428606033,0.148745685815811,-0.0479529201984406
5,1.02222228662528,-0.17361112072783,-0.0388888906783549,-0.0186313893646002,0.117591559886932,-0.0534507073462009
5,1.02222228662528,-0.163888889701015,-0.0125000003581147,-0.0189368221908808,0.0357356183230877,-0.0473420582711697
5,1.02500007039179,-0.16527778158427,-0.0125000003581147,-0.0668897479772568,0.00946841109544039,-0.0632245540618896
5,1.02500007039179,-0.168055565350778,-0.0194444453391775,-0.0913243517279625,0.0412334054708481,-0.0549778714776039
5,1.02222228662528,-0.17361112072783,-0.0250000007162294,-0.0986547395586967,0.0598647929728031,-0.0561996027827263
5,1.02222228662528,-0.17361112072783,-0.0250000007162294,-0.0589484944939613,0.0708603709936142,-0.0552833043038845
5,1.02222228662528,-0.16527778158427,-0.0166666676506515,-0.0293215326964855,0.0772744566202164,-0.0494800843298435
5,1.01944450285877,-0.161111118090472,-0.0180555564949145,-0.0467311926186085,0.0858265683054924,-0.0427605658769607
5,1.01527782720901,-0.159722226207217,-0.0236111118719664,-0.0861319974064827,0.0662788823246956,-0.0397062413394451
5,1.00972225967599,-0.163888889701015,-0.0222222230277034,-0.113315500319004,0.0125227374956012,-0.0406225398182869
5,1.01527782720901,-0.170833336961321,-0.0194444453391775,-0.0937678143382072,-0.0204639863222837,-0.0342084541916847
5,1.02500007039179,-0.177777784221628,-0.0236111118719664,-0.0342084541916847,-0.0439822971820831,-0.0366519130766392
5,1.02500007039179,-0.179166676104882,-0.029166668768514,0.00794124789535999,-0.0265726372599602,-0.0418442711234093
5,1.02222228662528,-0.170833336961321,-0.0416666683668809,0.0329867228865623,0.04764748737216,-0.0253509078174829
5,1.01805561097552,-0.161111118090472,-0.0194444453391775,0.0390953756868839,0.0635299831628799,-0.0122173046693206
5,1.00833336779274,-0.161111118090472,-0.0194444453391775,0.0558941699564457,0.0256563406437635,0.00152716308366507
5,1.0125000434425,-0.161111118090472,-0.0125000003581147,0.070249505341053,-0.03176499158144,-0.00397062394768
5,1.01527782720901,-0.156944454596674,-0.0194444453391775,0.0507018156349659,-0.0314595587551594,-0.0128281703218818
5,1.02500007039179,-0.156944454596674,-0.0222222230277034,0.0568104684352875,-0.0045814891345799,-0.0226020142436027
5,1.02638896227504,-0.150000007336368,-0.0180555564949145,0.0720821022987366,-0.00244346098043024,-0.0033597587607801
5,1.02361117850853,-0.134722233088466,-0.0166666676506515,0.0742201283574104,-0.000610865245107561,-0.0045814891345799
5,1.02222228662528,-0.13750000469901,-0.0208333341834404,0.0500909499824047,-0.0131336031481624,-0.000305432622553781
5,1.02500007039179,-0.138888896582264,-0.0208333341834404,0.0207694191485643,0.015577063895762,-0.00244346098043024
5,1.02500007039179,-0.136111112815755,-0.0138888899621255,0.0152716310694814,0.0180205255746841,-0.0027488935738802
5,1.02361117850853,-0.13750000469901,-0.00694444498106275,0.02382374368608,0.0109955742955208,-0.00183259579353034
5,1.02500007039179,-0.140277788465518,-0.0152777788063885,0.0448985956609249,-0.021685715764761,-0.00916297826915979
5,1.02638896227504,-0.140277788465518,-0.0180555564949145,0.064446285367012,-0.021685715764761,-0.000610865245107561
5,1.02916674604155,-0.140277788465518,-0.0250000007162294,0.0406225398182869,0.0171042270958424,-0.0021380283869803
5,1.02500007039179,-0.14722222356986,-0.0222222230277034,0.0128281703218818,0.0339030213654041,-0.000610865245107561
5,1.02500007039179,-0.148611115453114,-0.0180555564949145,0.00946841109544039,0.0250454749912024,-0.00305432616733015
5,1.02500007039179,-0.140277788465518,-0.0194444453391775,0.0253509078174829,0.0284052342176437,-0.0033597587607801
5,1.02638896227504,-0.150000007336368,-0.0152777788063885,0.0421497002243996,0.0458148941397667,-0.00763581553474069
5,1.01944450285877,-0.148611115453114,-0.00972222266958873,0.0540615729987621,0.0620028227567673,-0.0149661982432008
5,1.01388893532575,-0.14722222356986,-0.00972222266958873,0.0610865242779255,0.037568211555481,-0.0143553335219622
5,1.01527782720901,-0.13750000469901,-0.00555555575692586,0.0448985956609249,-0.0164933614432812,-0.00977384392172098
5,1.01527782720901,-0.13750000469901,-0.00555555575692586,0.0354301854968071,-0.00641408516094089,-0.00855211354792118
5,1.02222228662528,-0.141666668192807,-0.00833333382532574,0.0232128798961639,0.0284052342176437,-0.0033597587607801
5,1.02500007039179,-0.14583334384257,-0.0125000003581147,0.01191187184304,0.0229074470698834,-0.00946841109544039
5,1.02500007039179,-0.144444451959316,-0.00277777787846293,0.0372627787292004,0.00641408516094089,-0.000305432622553781
5,1.01944450285877,-0.143055560076062,-0.00972222266958873,0.0534507073462009,0.0183259565383196,0.0027488935738802
5,1.01805561097552,-0.144444451959316,-0.0236111118719664,0.0293215326964855,0.0109955742955208,0.011606439948082
5,1.02083339474202,-0.144444451959316,-0.0166666676506515,0.0213802829384804,0.00397062394768,0.00122173049021512
5,1.02500007039179,-0.148611115453114,-0.00694444498106275,0.0302378293126821,0.013744467869401,0.0125227374956012
5,1.02500007039179,-0.150000007336368,-0.00555555575692586,0.03176499158144,0.0204639863222837,0.0033597587607801
5,1.02638896227504,-0.14722222356986,-0.00416666691266287,0.0433714315295219,0.0442877300083637,0.0134390350431204
5,1.02638896227504,-0.14722222356986,-0.00416666691266287,0.0415388382971287,0.0610865242779255,0.00244346098043024
5,1.01666671909226,-0.140277788465518,-0.00138888893923146,0.0210748501121998,0.017409659922123,-0.00977384392172098
5,1.02222228662528,-0.143055560076062,-0.00138888893923146,0.00244346098043024,-0.0100792767480016,-0.00366519158706069
5,1.02222228662528,-0.143055560076062,-0.00138888893923146,0.0241291765123606,0.00671951752156019,0.00488692196086049
5,1.02500007039179,-0.154166670830166,-0.00972222266958873,0.0323758572340012,0.0403171069920063,-0.00885754637420177
5,1.02777785415829,-0.154166670830166,-0.00416666691266287,0.02382374368608,0.0589484944939613,-0.00366519158706069
5,1.02222228662528,-0.150000007336368,-0.00833333382532574,0.0177150927484035,0.0467311926186085,0.00549778714776039
5,1.01944450285877,-0.14583334384257,-0.00833333382532574,0.0232128798961639,0.0128281703218818,0.013744467869401
5,1.01527782720901,-0.14722222356986,0.00694444498106275,0.0161879286170006,-0.00183259579353034,0.027488935738802
5,1.0125000434425,-0.14722222356986,0.00138888893923146,-0.0125227374956012,-0.0229074470698834,0.0268780700862408
5,1.02222228662528,-0.14722222356986,-0.00416666691266287,-0.0113010071218014,-0.0109955742955208,0.0222965814173222
5,1.02500007039179,-0.14583334384257,-0.0152777788063885,-0.00977384392172098,-0.0103847095742822,0.0390953756868839
5,1.02222228662528,-0.144444451959316,-0.0166666676506515,-0.0250454749912024,0.00794124789535999,0.0494800843298435
5,1.01944450285877,-0.156944454596674,-0.0111111115138517,-0.00580321997404099,0.0229074470698834,0.058643065392971
5,1.02361117850853,-0.15555556271342,-0.00416666691266287,0.0204639863222837,0.0222965814173222,0.0610865242779255
5,1.02500007039179,-0.163888889701015,0.00277777787846293,0.03176499158144,0.00794124789535999,0.0455094613134861
5,1.02083339474202,-0.162500009973726,0.00277777787846293,0.0424551330506802,-0.000610865245107561,0.0430659987032413
5,1.02083339474202,-0.172222228844576,-0.0250000007162294,0.0461203269660473,0.0439822971820831,0.0372627787292004
5,1.02222228662528,-0.17361112072783,-0.0138888899621255,0.0604756586253643,0.0427605658769607,0.0366519130766392
5,1.01527782720901,-0.16527778158427,0.0152777788063885,0.0720821022987366,-0.0235183127224445,0.027488935738802
5,1.0125000434425,-0.154166670830166,0.00138888893923146,0.0491746515035629,-0.0800233483314514,0.0314595587551594
5,1.0125000434425,-0.154166670830166,-0.00555555575692586,0.021685715764761,-0.0561996027827263,0.0342084541916847
5,1.01944450285877,-0.156944454596674,-0.00972222266958873,-0.00519235478714108,-0.0128281703218818,0.0485637858510017
5,1.02500007039179,-0.163888889701015,-0.00972222266958873,0.00152716308366507,0.0140499006956816,0.0439822971820831
5,1.02638896227504,-0.170833336961321,0.00277777787846293,0.00885754637420177,-0.00763581553474069,0.0436768643558025
5,1.02222228662528,-0.166666673467524,0.00694444498106275,0.00916297826915979,-0.02382374368608,0.0366519130766392
5,1.01666671909226,-0.170833336961321,0.00972222266958873,0.000610865245107561,-0.0232128798961639,0.029626963660121
5,1.01388893532575,-0.170833336961321,0.00138888893923146,0.0106901414692402,-0.0256563406437635,0.0335975885391235
5,1.02083339474202,-0.170833336961321,0.00138888893923146,0.00763581553474069,-0.0247400421649218,0.021685715764761
5,1.02222228662528,-0.177777784221628,0.00138888893923146,0.00824668072164059,-0.0134390350431204,0.0171042270958424
5,1.02222228662528,-0.169444445078067,0.00277777787846293,0.01588249579072,-0.0113010071218014,0.0250454749912024
5,1.02222228662528,-0.162500009973726,-0.00555555575692586,0.019547687843442,-0.0305432621389627,0.0204639863222837
5,1.02361117850853,-0.156944454596674,0.00277777787846293,-0.000916297896765172,-0.0308486949652433,0.0192422550171614
5,1.02500007039179,-0.156944454596674,-0.00138888893923146,-0.0103847095742822,-0.0308486949652433,0.0210748501121998
5,1.02777785415829,-0.163888889701015,0.00416666691266287,0.00671951752156019,-0.0122173046693206,0.0134390350431204
5,1.02083339474202,-0.175000000455119,0.00416666691266287,0.0183259565383196,0.013744467869401,0.00427605677396059
5,1.02083339474202,-0.180555567988136,-0.00555555575692586,0.0134390350431204,0.0210748501121998,-0.00580321997404099
5,1.02222228662528,-0.180555567988136,0.00416666691266287,0.0345138870179653,0.000305432622553781,-0.0125227374956012
5,1.01805561097552,-0.17361112072783,0.0125000003581147,0.0867428630590439,-0.0384845100343227,-0.00763581553474069
5,1.01805561097552,-0.170833336961321,-0.00833333382532574,0.105374254286289,-0.0494800843298435,-0.0134390350431204
5,1.01944450285877,-0.176388892338373,-0.0250000007162294,0.0919352173805237,0.0128281703218818,-0.0293215326964855
5,1.02222228662528,-0.176388892338373,-0.026388891079988,0.0882700309157372,0.0723875313997269,-0.0345138870179653
5,1.02500007039179,-0.170833336961321,0.00138888893923146,0.110566608607769,0.0806342139840126,-0.0473420582711697
5,1.02916674604155,-0.162500009973726,0.00972222266958873,0.128281697630882,0.0583376325666905,-0.0561996027827263
5,1.01527782720901,-0.156944454596674,-0.00555555575692586,0.0852157026529312,0.0180205255746841,-0.0470366254448891
5,1.01527782720901,-0.156944454596674,-0.00972222266958873,-0.00122173049021512,0.00671951752156019,-0.0284052342176437
5,1.01805561097552,-0.156944454596674,-0.00555555575692586,-0.00702495034784079,0.064446285367012,-0.0222965814173222
5,1.02083339474202,-0.151388899219622,0.0222222230277034,0.0372627787292004,0.0852157026529312,-0.0131336031481624
5,1.01527782720901,-0.162500009973726,0.0208333341834404,0.0830776765942574,0.00977384392172098,-0.000916297896765172
5,1.01805561097552,-0.17361112072783,0.00555555575692586,0.0815505087375641,-0.0299323964864016,0.000916297896765172
5,1.01805561097552,-0.177777784221628,0.00138888893923146,0.0729983970522881,-0.0183259565383196,0.0021380283869803
5,1.01944450285877,-0.172222228844576,0.00138888893923146,0.0580321997404099,-0.0232128798961639,-0.0106901414692402
5,1.02222228662528,-0.170833336961321,-0.00416666691266287,0.0445931628346443,-0.0311541277915239,-0.0131336031481624
5,1.01666671909226,-0.166666673467524,0.00277777787846293,0.0693332031369209,-0.0320704244077206,-0.000305432622553781
5,1.01527782720901,-0.175000000455119,0.00277777787846293,0.0998764708638191,-0.0302378293126821,0.0140499006956816
5,1.01805561097552,-0.176388892338373,-0.00138888893923146,0.108734011650086,-0.00152716308366507,0.0149661982432008
5,1.01944450285877,-0.17361112072783,0.00277777787846293,0.107512280344963,0.0348193198442459,0.00122173049021512
5,1.01944450285877,-0.163888889701015,-0.00138888893923146,0.116980694234371,0.03176499158144,0.00671951752156019
5,1.02083339474202,-0.169444445078067,0.00694444498106275,0.135306656360626,0.0262672062963247,-0.00183259579353034
5,1.01527782720901,-0.166666673467524,-0.00694444498106275,0.144164204597473,-0.00244346098043024,0.00763581553474069
5,1.01527782720901,-0.172222228844576,-0.00416666691266287,0.122173048555851,-0.00183259579353034,-0.00763581553474069
5,1.02222228662528,-0.17361112072783,-0.00277777787846293,0.10048733651638,0.0308486949652433,-0.00305432616733015
5,1.03472221632685,-0.180555567988136,0.00555555575692586,0.139277279376984,0.112399205565453,0.00916297826915979
5,1.03194452980806,-0.175000000455119,0.0125000003581147,0.155465200543404,0.166766211390495,0.0259617734700441
5,1.0361111082101,-0.17361112072783,0.027777779924251,0.0815505087375641,0.217773467302322,0.0232128798961639
5,1.04166667574312,-0.181944447715425,0.0458333348996699,0.0189368221908808,0.262366622686386,0.0122173046693206
5,1.03750000009336,-0.205555561106887,0.0388888906783549,0.0803287774324417,0.208915919065475,-0.0525344125926495
5,1.01111115155925,-0.202777789496344,-0.0430555572111439,0.156381502747536,0.121256753802299,-0.0671951770782471
5,1.00694447590948,-0.190277786858986,-0.0652777787193518,0.0525344125926495,0.240986332297325,-0.0430659987032413
5,1.0125000434425,-0.14722222356986,0.0416666683668809,-0.05283984541893,0.437074095010758,-0.00122173049021512
5,0.998611124609959,-0.134722233088466,0.0875000002275597,-0.0131336031481624,0.242818936705589,0.00794124789535999
5,0.96666670854283,-0.118055554801345,0.0805555590452358,-0.0122173046693206,-0.0491746515035629,0.0250454749912024
5,1.00694447590948,-0.123611110178398,0.0250000007162294,-0.0797179117798805,-0.127976268529892,0.0348193198442459
5,1.02916674604155,-0.134722233088466,0.0236111118719664,-0.0815505087375641,-0.0183259565383196,0.0427605658769607
5,1.03888889197661,-0.151388899219622,0.0138888899621255,-0.0763581544160843,0.0616973899304867,0.0311541277915239
5,1.02916674604155,-0.169444445078067,0.0222222230277034,-0.141109868884087,0.0745255574584007,0.0201585534960032
5,1.02222228662528,-0.162500009973726,0.0486111125881959,-0.141109868884087,0.0613919571042061,0.0210748501121998
5,1.02222228662528,-0.162500009973726,0.0486111125881959,-0.0687223374843597,0.0253509078174829,0.02382374368608
5,1.0125000434425,-0.180555567988136,0.052777782159976,-0.0568104684352875,0.0106901414692402,0.0280998013913631
5,1.02361117850853,-0.180555567988136,0.0583333375370279,-0.0720821022987366,0.0241291765123606,0.0284052342176437
5,1.02916674604155,-0.187500003092477,0.0611111152255539,-0.0351247526705265,0.0464257597923279,0.0192422550171614
5,1.0333333244436,-0.180555567988136,0.0625000010308258,0.0610865242779255,0.0433714315295219,-0.00305432616733015
5,1.02500007039179,-0.170833336961321,0.0361111129898289,0.0540615729987621,0.0565050356090069,-0.00885754637420177
5,1.00972225967599,-0.168055565350778,0.030555557612777,0.00519235478714108,0.0855211317539215,-0.00855211354792118
5,0.99583334084345,-0.170833336961321,0.029166668768514,0.0235183127224445,0.0607810914516449,-0.00122173049021512
5,0.99583334084345,-0.16527778158427,0.0361111129898289,0.0045814891345799,-0.00519235478714108,-0.0021380283869803
5,1.02222228662528,-0.163888889701015,0.0430555572111439,-0.015577063895762,-0.0204639863222837,0.0045814891345799
5,1.0361111082101,-0.161111118090472,0.0458333348996699,0.0103847095742822,0.0256563406437635,0.00977384392172098
5,1.0361111082101,-0.161111118090472,0.0458333348996699,0.0027488935738802,0.064446285367012,-0.00427605677396059
5,1.01666671909226,-0.17361112072783,0.0597222233422998,0.0213802829384804,0.0577267669141293,-0.01191187184304
5,1.00972225967599,-0.175000000455119,0.0444444460554069,0.00794124789535999,-0.011606439948082,-0.00763581553474069
5,1.00972225967599,-0.175000000455119,0.0444444460554069,0.00824668072164059,0.01588249579072,-0.000916297896765172
5,1.00972225967599,-0.172222228844576,0.0486111125881959,0.0229074470698834,0.0488692186772823,-0.00641408516094089
5,1.01527782720901,-0.176388892338373,0.0722222259796579,0.0513126812875271,-0.00549778714776039,-0.0131336031481624
5,1.01527782720901,-0.176388892338373,0.0722222259796579,0.0531452745199203,-0.0027488935738802,-0.0222965814173222
5,1.02916674604155,-0.154166670830166,0.0458333348996699,0.0455094613134861,0.0335975885391235,-0.0177150927484035
5,1.01527782720901,-0.163888889701015,0.0472222237439329,0.0277943685650826,0.0452040284872055,-0.0198531206697226
5,1.01527782720901,-0.163888889701015,0.0472222237439329,0.0183259565383196,0.01588249579072,-0.03176499158144
5,1.01527782720901,-0.15555556271342,0.0458333348996699,-0.0021380283869803,0.00366519158706069,-0.0339030213654041
5,1.02361117850853,-0.161111118090472,0.0388888906783549,-0.00702495034784079,0.0433714315295219,-0.0455094613134861
5,1.02500007039179,-0.159722226207217,0.0430555572111439,-0.00763581553474069,0.0595593601465225,-0.0467311926186085
5,1.02083339474202,-0.158333334323963,0.055555559848502,-0.00580321997404099,0.0448985956609249,-0.0503963828086853
5,1.01805561097552,-0.156944454596674,0.0569444456537738,-0.00580321997404099,0.0280998013913631,-0.0397062413394451
5,1.01666671909226,-0.163888889701015,0.0541666679652478,-0.0134390350431204,0.0164933614432812,-0.0427605658769607
5,1.01111115155925,-0.166666673467524,0.0486111125881959,-0.0302378293126821,0.0152716310694814,-0.0540615729987621
5,1.01805561097552,-0.159722226207217,0.055555559848502,-0.0284052342176437,0.0277943685650826,-0.0397062413394451
5,1.00833336779274,-0.159722226207217,0.0541666679652478,-0.0415388382971287,0.0134390350431204,-0.0345138870179653
5,1.01527782720901,-0.161111118090472,0.0625000010308258,-0.0308486949652433,-0.0213802829384804,-0.0345138870179653
5,1.02777785415829,-0.158333334323963,0.055555559848502,-0.0250454749912024,-0.00152716308366507,-0.0293215326964855
5,1.02916674604155,-0.163888889701015,0.0583333375370279,-0.0201585534960032,0.0134390350431204,-0.0497855171561241
5,1.02361117850853,-0.170833336961321,0.0625000010308258,0.000610865245107561,0.0161879286170006,-0.0620028227567673
5,1.01527782720901,-0.166666673467524,0.0513888902767219,0.0253509078174829,0.0201585534960032,-0.0574213340878487
5,1.01527782720901,-0.168055565350778,0.052777782159976,-0.00855211354792118,0.0516181141138077,-0.0430659987032413
5,1.02222228662528,-0.163888889701015,0.0486111125881959,-0.0241291765123606,0.070249505341053,-0.0522289797663689
5,1.02222228662528,-0.159722226207217,0.0666666706026059,-0.00488692196086049,0.0455094613134861,-0.0525344125926495
5,1.01388893532575,-0.154166670830166,0.0847222225390337,0.0183259565383196,-0.0201585534960032,-0.0360410511493683
5,1.00972225967599,-0.14583334384257,0.0777777813567098,0.0265726372599602,-0.0461203269660473,-0.0287106670439243
5,1.00972225967599,-0.150000007336368,0.052777782159976,0.0103847095742822,-0.0662788823246956,-0.0103847095742822
5,1.01666671909226,-0.154166670830166,0.03194444645704,-0.0430659987032413,-0.0128281703218818,-0.00152716308366507
5,1.02916674604155,-0.159722226207217,0.0541666679652478,-0.0293215326964855,0.0400116741657257,-0.0045814891345799
5,1.02916674604155,-0.158333334323963,0.0819444448505077,0.0464257597923279,0.0152716310694814,-0.00702495034784079
5,1.0125000434425,-0.14722222356986,0.0777777813567098,0.0626136884093285,-0.0400116741657257,-0.00244346098043024
5,1.01527782720901,-0.151388899219622,0.0458333348996699,-0.0128281703218818,-0.027488935738802,0.00397062394768
5,1.02361117850853,-0.13750000469901,0.0416666683668809,-0.0128281703218818,0.00152716308366507,-0.00152716308366507
5,1.02916674604155,-0.138888896582264,0.055555559848502,0.00671951752156019,0.0180205255746841,-0.0109955742955208
5,1.02083339474202,-0.140277788465518,0.0694444482911319,0.00366519158706069,0.0164933614432812,-0.00305432616733015
5,1.01388893532575,-0.13750000469901,0.0597222233422998,-0.0305432621389627,-0.0161879286170006,-0.00397062394768
5,1.01111115155925,-0.140277788465518,0.0638888929140799,-0.0387899428606033,-0.0421497002243996,0.00977384392172098
5,1.02361117850853,-0.150000007336368,0.0625000010308258,-0.01588249579072,-0.0387899428606033,0.00152716308366507
5,1.02638896227504,-0.144444451959316,0.0569444456537738,0.00366519158706069,0.00916297826915979,0.0033597587607801
5,1.02500007039179,-0.136111112815755,0.0569444456537738,-0.00366519158706069,0.0109955742955208,-0.000305432622553781
5,1.01527782720901,-0.136111112815755,0.0597222233422998,-0.0122173046693206,-0.0180205255746841,0.000610865245107561
5,1.01527782720901,-0.138888896582264,0.0430555572111439,-0.013744467869401,-0.0406225398182869,0.00305432616733015
5,1.02222228662528,-0.144444451959316,0.0625000010308258,-0.027488935738802,-0.0265726372599602,0.00763581553474069
5,1.02638896227504,-0.141666668192807,0.0611111152255539,-0.0027488935738802,-0.00488692196086049,0.01588249579072
5,1.02083339474202,-0.144444451959316,0.0625000010308258,0.00427605677396059,-0.0149661982432008,0.0287106670439243
5,1.01944450285877,-0.14583334384257,0.055555559848502,0.00183259579353034,-0.0311541277915239,0.0167987942695618
5,1.01666671909226,-0.150000007336368,0.0458333348996699,-0.019547687843442,-0.0167987942695618,0.0113010071218014
5,1.01805561097552,-0.154166670830166,0.0722222259796579,-0.0363464802503586,-0.00641408516094089,0.00671951752156019
5,1.01666671909226,-0.14722222356986,0.0750000036681839,-0.0189368221908808,-0.019547687843442,0.00397062394768
5,1.0125000434425,-0.150000007336368,0.0652777787193518,-0.0045814891345799,-0.0381790772080422,0.01588249579072
5,1.02222228662528,-0.151388899219622,0.0486111125881959,-0.0348193198442459,-0.0470366254448891,0.0146607663482428
5,1.02638896227504,-0.156944454596674,0.0583333375370279,-0.0424551330506802,-0.0113010071218014,0.00610865233466029
5,1.02222228662528,-0.163888889701015,0.0597222233422998,-0.0122173046693206,0.00183259579353034,0.00152716308366507
5,1.01666671909226,-0.154166670830166,0.0652777787193518,-0.00366519158706069,-0.0262672062963247,-0.0027488935738802
5,1.01805561097552,-0.156944454596674,0.0513888902767219,0.000916297896765172,-0.0369573459029198,-0.000610865245107561
5,1.02083339474202,-0.150000007336368,0.0486111125881959,0.0113010071218014,-0.0161879286170006,0.0033597587607801
5,1.01805561097552,-0.154166670830166,0.0486111125881959,-0.0210748501121998,-0.00885754637420177,-0.00122173049021512
5,1.02222228662528,-0.150000007336368,0.0569444456537738,-0.0302378293126821,-0.017409659922123,0.00549778714776039
5,1.02222228662528,-0.154166670830166,0.0611111152255539,-0.0122173046693206,-0.013744467869401,-0.0033597587607801
5,1.01805561097552,-0.158333334323963,0.055555559848502,-0.0146607663482428,0.0100792767480016,-0.00549778714776039
5,1.0125000434425,-0.152777778946911,0.0472222237439329,-0.04764748737216,-0.015577063895762,0.0113010071218014
5,1.01944450285877,-0.154166670830166,0.052777782159976,-0.0540615729987621,-0.0268780700862408,0.01588249579072
5,1.02500007039179,-0.154166670830166,0.0541666679652478,-0.0415388382971287,-0.0201585534960032,0.00763581553474069
5,1.02083339474202,-0.148611115453114,0.0541666679652478,-0.0452040284872055,0.00885754637420177,0.00610865233466029
5,1.01666671909226,-0.150000007336368,0.052777782159976,-0.0488692186772823,0.0027488935738802,0.0128281703218818
5,1.01944450285877,-0.156944454596674,0.055555559848502,-0.0247400421649218,-0.0149661982432008,0.0167987942695618
5,1.01944450285877,-0.15555556271342,0.0444444460554069,-0.0357356183230877,-0.0293215326964855,0.0198531206697226
5,1.02500007039179,-0.156944454596674,0.0375000018340919,-0.0415388382971287,-0.0189368221908808,0.0131336031481624
5,1.02222228662528,-0.163888889701015,0.0458333348996699,-0.029626963660121,-0.00427605677396059,0.0192422550171614
5,1.02083339474202,-0.17361112072783,0.0375000018340919,-0.00671951752156019,-0.0219911485910416,0.00397062394768
5,1.01805561097552,-0.16527778158427,0.0458333348996699,-0.00824668072164059,-0.0339030213654041,-0.0106901414692402
5,1.01666671909226,-0.152777778946911,0.0513888902767219,-0.0207694191485643,-0.0277943685650826,-0.0021380283869803
5,1.01666671909226,-0.152777778946911,0.0513888902767219,-0.0113010071218014,-0.0369573459029198,0.00641408516094089
5,1.01527782720901,-0.154166670830166,0.055555559848502,-0.0222965814173222,-0.0659734457731247,0.0265726372599602
5,1.01111115155925,-0.154166670830166,0.0416666683668809,-0.0488692186772823,-0.0726929605007172,0.0180205255746841
5,1.01944450285877,-0.152777778946911,0.03194444645704,-0.0525344125926495,-0.0678060427308083,0.00641408516094089
5,1.02361117850853,-0.161111118090472,0.0361111129898289,-0.0430659987032413,-0.0253509078174829,-0.0021380283869803
5,1.02916674604155,-0.16527778158427,0.0486111125881959,-0.00305432616733015,-0.000916297896765172,-0.000610865245107561
5,1.02638896227504,-0.156944454596674,0.0486111125881959,0.017409659922123,-0.011606439948082,-0.0100792767480016
5,1.01388893532575,-0.152777778946911,0.0444444460554069,0.01191187184304,-0.0403171069920063,0.00305432616733015
5,1.01666671909226,-0.14722222356986,0.030555557612777,-0.0232128798961639,-0.0580321997404099,0.01588249579072
5,1.01388893532575,-0.148611115453114,0.0388888906783549,-0.0448985956609249,-0.0565050356090069,0.0164933614432812
5,1.01666671909226,-0.159722226207217,0.0361111129898289,-0.0503963828086853,-0.0418442711234093,0.0186313893646002
5,1.01944450285877,-0.17361112072783,0.0250000007162294,-0.0262672062963247,-0.0598647929728031,0.0201585534960032
5,1.01944450285877,-0.175000000455119,0.03194444645704,-0.00794124789535999,-0.0635299831628799,0.0161879286170006
5,1.02222228662528,-0.175000000455119,0.0402777795226179,0.011606439948082,-0.058643065392971,0.00641408516094089
5,1.01944450285877,-0.177777784221628,0.03194444645704,0.0345138870179653,-0.05283984541893,0.000610865245107561
5,1.01944450285877,-0.176388892338373,0.0236111118719664,0.021685715764761,-0.0708603709936142,0.000610865245107561
5,1.02083339474202,-0.161111118090472,0.026388891079988,0.00794124789535999,-0.0739146918058395,0.00733038317412138
5,1.02500007039179,-0.158333334323963,0.03194444645704,0.0103847095742822,-0.0552833043038845,0.0125227374956012
5,1.02361117850853,-0.161111118090472,0.030555557612777,0.0109955742955208,-0.0397062413394451,0.011606439948082
5,1.01944450285877,-0.16527778158427,0.029166668768514,0.00397062394768,-0.0400116741657257,0.0222965814173222
5,1.02083339474202,-0.16527778158427,0.0236111118719664,0.0125227374956012,-0.0149661982432008,0.0207694191485643
5,1.02500007039179,-0.16527778158427,0.0416666683668809,0.00824668072164059,-0.00641408516094089,0.00977384392172098
5,1.02361117850853,-0.163888889701015,0.0347222241455659,0.0140499006956816,-0.0149661982432008,0.00763581553474069
5,1.02222228662528,-0.162500009973726,0.0180555564949145,0.0146607663482428,-0.0207694191485643,0.0103847095742822
5,1.02777785415829,-0.161111118090472,0.027777779924251,0.00977384392172098,-0.0122173046693206,0.00427605677396059
5,1.02083339474202,-0.161111118090472,0.03194444645704,0.00519235478714108,-0.00580321997404099,0.00855211354792118
5,1.01944450285877,-0.15555556271342,0.0347222241455659,0.00397062394768,-0.02382374368608,0.0201585534960032
5,1.01944450285877,-0.154166670830166,0.0194444453391775,0.00244346098043024,-0.0552833043038845,0.0161879286170006
5,1.01944450285877,-0.151388899219622,0.0194444453391775,0.00641408516094089,-0.0519235469400883,0.0183259565383196
5,1.02222228662528,-0.158333334323963,0.0194444453391775,-0.00488692196086049,-0.0259617734700441,0.0204639863222837
5,1.02222228662528,-0.158333334323963,0.0152777788063885,-0.0021380283869803,-0.0256563406437635,0.0180205255746841
5,1.01944450285877,-0.161111118090472,0.0194444453391775,-0.0106901414692402,-0.0207694191485643,0.0143553335219622
5,1.01527782720901,-0.158333334323963,0.026388891079988,-0.0113010071218014,-0.0302378293126821,0.0149661982432008
5,1.01805561097552,-0.159722226207217,0.0194444453391775,-0.0143553335219622,-0.0430659987032413,0.019547687843442
5,1.02222228662528,-0.163888889701015,0.0236111118719664,0.000305432622553781,-0.0488692186772823,0.021685715764761
5,1.02222228662528,-0.159722226207217,0.00972222266958873,-0.0045814891345799,-0.0531452745199203,0.0167987942695618
5,1.02222228662528,-0.159722226207217,0.00833333382532574,-0.0244346093386412,-0.0461203269660473,0.0143553335219622
5,1.02222228662528,-0.158333334323963,0.00972222266958873,-0.0180205255746841,-0.0473420582711697,0.0106901414692402
5,1.01944450285877,-0.169444445078067,0.0208333341834404,-0.0189368221908808,-0.0424551330506802,0.0250454749912024
5,1.01944450285877,-0.175000000455119,0.0222222230277034,-0.0253509078174829,-0.0323758572340012,0.0201585534960032
5,1.01944450285877,-0.170833336961321,0.0152777788063885,-0.017409659922123,-0.0503963828086853,0.0305432621389627
5,1.0125000434425,-0.166666673467524,0.0208333341834404,-0.0186313893646002,-0.0751364231109619,0.0363464802503586
5,1.00694447590948,-0.163888889701015,0.0222222230277034,-0.0250454749912024,-0.100792765617371,0.0390953756868839
5,1.00138890837647,-0.152777778946911,0.033333335301303,-0.0448985956609249,-0.156381502747536,0.0629191175103188
5,0.994444448960196,-0.13750000469901,0.0250000007162294,-0.0293215326964855,-0.291993588209152,0.108123145997524
5,0.98888888142718,-0.13750000469901,0.00972222266958873,-0.0864374339580536,-0.424245923757553,0.134695783257484
5,0.99583334084345,-0.161111118090472,0.0111111115138517,-0.12705996632576,-0.497855186462402,0.162490159273148
5,1.00833336779274,-0.179166676104882,0.0194444453391775,-0.131030589342117,-0.572380721569061,0.150883719325066
5,1.02500007039179,-0.184722231481934,0.03194444645704,-0.0827722400426865,-0.655152976512909,0.118507854640484
5,1.03194452980806,-0.179166676104882,0.00972222266958873,0.00580321997404099,-0.772744536399841,0.0641408488154411
5,1.0305556379248,-0.180555567988136,-0.0486111125881959,0.11606439948082,-0.84116142988205,0.0213802829384804
5,1.02222228662528,-0.187500003092477,-0.120833338567854,0.147218525409698,-0.743422985076904,0.0186313893646002
5,1.01944450285877,-0.194444450352783,-0.166666673467524,0.0940732508897781,-0.4544837474823,0.0366519130766392
5,1.0513889189259,-0.20972223675665,-0.216666671860991,-0.0708603709936142,-0.0204639863222837,0.0354301854968071
5,1.08194444310977,-0.206944452990142,-0.16527778158427,-0.182648703455925,0.238542884588242,-0.0445931628346443
5,1.08055555122652,-0.20138889761309,-0.131944449321958,-0.140193566679955,0.323147714138031,-0.0983493030071259
5,1.04444445950963,-0.18333333959868,-0.0847222225390337,0.00610865233466029,0.154548913240433,-0.0736092627048492
5,1.04444445950963,-0.18333333959868,-0.0847222225390337,-0.00427605677396059,0.110566608607769,-0.0623082555830479
5,0.986111194908388,-0.193055558469529,-0.0486111125881959,-0.0598647929728031,0.0555887371301651,-0.0540615729987621
5,0.99583334084345,-0.188888894975731,-0.0416666683668809,-0.01588249579072,0.0204639863222837,-0.0574213340878487
5,0.99583334084345,-0.188888894975731,-0.0416666683668809,0.116980694234371,-0.0653625801205635,-0.0445931628346443
5,0.99583334084345,-0.187500003092477,-0.0583333375370279,0.116675265133381,-0.0638354197144508,-0.0134390350431204
5,1.01944450285877,-0.18333333959868,-0.106944444047242,0.0571159012615681,0.0280998013913631,0.000305432622553781
5,1.0361111082101,-0.172222228844576,-0.111111119697004,0.00397062394768,0.0937678143382072,0.00641408516094089
5,1.03888889197661,-0.166666673467524,-0.0986111170596459,0.00885754637420177,0.0858265683054924,0.0113010071218014
5,1.01944450285877,-0.180555567988136,-0.0694444482911319,0.0430659987032413,0.0232128798961639,0.00763581553474069
5,1.00277780025972,-0.212499996211229,-0.0847222225390337,0.0510072484612465,-0.058643065392971,-0.0100792767480016
5,0.99583334084345,-0.236111109602691,-0.0944444474878658,0.0671951770782471,-0.0870482996106148,-0.029626963660121
5,0.998611124609959,-0.238888893369199,-0.0888888921108138,0.120951317250729,-0.0613919571042061,-0.0809396430850029
5,1.01527782720901,-0.243055569018962,-0.0750000036681839,0.16951510310173,0.0109955742955208,-0.100181899964809
5,1.02638896227504,-0.226388890731841,-0.0569444456537738,0.224798411130905,0.0308486949652433,-0.112093769013882
5,1.02500007039179,-0.186111123365188,-0.0625000010308258,0.173791155219078,0.0021380283869803,-0.104763388633728
5,1.02083339474202,-0.130555557438704,-0.0736111117849297,0.127670839428902,-0.0149661982432008,-0.0574213340878487
5,1.02222228662528,-0.122222230451108,-0.0916666697993398,0.0937678143382072,0.0751364231109619,-0.0339030213654041
5,1.02500007039179,-0.133333341205212,-0.0888888921108138,0.0522289797663689,0.161268427968025,-0.00977384392172098
5,1.02638896227504,-0.18333333959868,-0.0777777813567098,0.0262672062963247,0.197309479117393,0.0100792767480016
5,1.01527782720901,-0.202777789496344,-0.0680555564078778,0.0849102661013603,0.149356558918953,-0.00855211354792118
5,1.00833336779274,-0.224999998848587,-0.0680555564078778,0.0864374339580536,0.110566608607769,-0.0797179117798805
5,1.00555558402623,-0.212499996211229,-0.0513888902767219,0.118507854640484,0.166460782289505,-0.125532805919647
5,1.00277780025972,-0.181944447715425,-0.0111111115138517,0.262061178684235,0.147523954510689,-0.0949895456433296
5,0.997222232726705,-0.14583334384257,-0.00555555575692586,0.326507478952408,-0.0213802829384804,-0.0445931628346443
5,0.98888888142718,-0.140277788465518,-0.0416666683668809,0.197920337319374,-0.228769034147263,-0.0448985956609249
5,0.998611124609959,-0.161111118090472,-0.0958333393711199,0.0302378293126821,-0.242513507604599,-0.0219911485910416
5,1.02222228662528,-0.181944447715425,-0.113888891307548,0.0986547395586967,-0.0894917547702789,-0.00519235478714108
5,1.03194452980806,-0.206944452990142,-0.125000002061652,0.167987942695618,0.0415388382971287,0.0381790772080422
5,1.02222228662528,-0.237500001485945,-0.0972222251763917,0.309403240680695,0.0858265683054924,0.0723875313997269
5,1.02083339474202,-0.256944463539574,-0.029166668768514,0.627358615398407,0.136222943663597,0.0729983970522881
5,1.02500007039179,-0.272222225631511,0.00972222266958873,0.73517632484436,0.176234617829323,-0.0280998013913631
5,1.01805561097552,-0.206944452990142,-0.00972222266958873,0.561996042728424,0.0595593601465225,-0.162184715270996
5,1.00833336779274,-0.0763888894734557,-0.0486111125881959,0.30695977807045,-0.019547687843442,-0.140193566679955
5,1.0125000434425,0.0222222230277034,-0.0652777787193518,0.011606439948082,-0.0531452745199203,-0.0412334054708481
5,1.02222228662528,0.0388888906783549,-0.0777777813567098,-0.267253547906876,-0.0342084541916847,0.0384845100343227
5,1.02500007039179,-0.0236111118719664,-0.0833333367337618,-0.564439475536346,0.0247400421649218,0.0891863256692886
5,1.01944450285877,-0.111111119697004,-0.0819444448505077,-0.701273322105408,0.0473420582711697,0.098960168659687
5,1.02083339474202,-0.162500009973726,-0.0750000036681839,-0.741284966468811,0.0381790772080422,0.112704634666443
5,1.02638896227504,-0.18333333959868,-0.052777782159976,-0.688139677047729,-0.013744467869401,0.0952949747443199
5,1.0333333244436,-0.193055558469529,-0.033333335301303,-0.580016553401947,-0.0143553335219622,0.0739146918058395
5,1.02777785415829,-0.208333344873396,-0.0138888899621255,-0.470366239547729,0.0183259565383196,0.0623082555830479
5,1.01944450285877,-0.231944458264858,-0.0125000003581147,-0.328034639358521,0.00397062394768,0.0525344125926495
5,0.997222232726705,-0.238888893369199,-0.029166668768514,-0.111482910811901,-0.136833816766739,0.0516181141138077
5,0.998611124609959,-0.250000004123303,-0.0458333348996699,0.0357356183230877,-0.200669229030609,0.0601702257990837
5,1.02777785415829,-0.258333331110899,-0.0736111117849297,0.135001212358475,-0.106595985591412,0.0268780700862408
5,1.04861113515939,-0.252777787889811,-0.0750000036681839,0.235488548874855,0.0745255574584007,-0.0213802829384804
5,1.04722224327614,-0.238888893369199,-0.0652777787193518,0.368351757526398,0.210137650370598,-0.0568104684352875
5,1.0125000434425,-0.159722226207217,-0.0513888902767219,0.381790786981583,0.175318330526352,-0.0473420582711697
5,0.99583334084345,-0.118055554801345,-0.0652777787193518,0.280998021364212,0.0882700309157372,-0.0244346093386412
5,0.998611124609959,-0.108333335930496,-0.0750000036681839,0.0855211317539215,0.0351247526705265,-0.0149661982432008
5,1.02500007039179,-0.111111119697004,-0.0569444456537738,-0.00794124789535999,0.0610865242779255,-0.000610865245107561
5,1.0305556379248,-0.112499999424294,-0.0666666706026059,-0.0653625801205635,0.108428582549095,0.00733038317412138
5,1.03888889197661,-0.12916666555545,-0.0638888929140799,-0.138971850275993,0.145996794104576,0.00702495034784079
5,1.02638896227504,-0.166666673467524,-0.033333335301303,-0.159130394458771,0.130419731140137,0.0109955742955208
5,1.01527782720901,-0.176388892338373,-0.0250000007162294,-0.098960168659687,0.0745255574584007,0.0268780700862408
5,1.00138890837647,-0.20138889761309,-0.0222222230277034,-0.0372627787292004,0.0531452745199203,0.0198531206697226
5,1.00277780025972,-0.220833347510754,-0.0166666676506515,0.0235183127224445,0.0513126812875271,0.0149661982432008
5,1.00000001649321,-0.212499996211229,-0.03194444645704,0.0937678143382072,-0.00977384392172098,0.00885754637420177
5,1.00000001649321,-0.212499996211229,-0.03194444645704,0.0833831056952477,-0.0192422550171614,0.00366519158706069
5,1.01527782720901,-0.19166667874224,-0.0472222237439329,0.0794124826788902,0.0366519130766392,-0.00152716308366507
5,1.0333333244436,-0.17361112072783,-0.0361111129898289,0.147829383611679,0.0943786799907684,0.0140499006956816
5,1.02638896227504,-0.170833336961321,-0.0388888906783549,0.149661988019943,0.0800233483314514,0.0293215326964855
5,1.02222228662528,-0.163888889701015,-0.0486111125881959,0.0558941699564457,0.0149661982432008,0.0271835029125214
5,1.00000001649321,-0.166666673467524,-0.0722222259796579,-0.0253509078174829,-0.0503963828086853,0.0293215326964855
5,1.00555558402623,-0.17361112072783,-0.0750000036681839,0.00763581553474069,-0.0262672062963247,0.0250454749912024
5,1.01944450285877,-0.197222234119292,-0.0583333375370279,0.0668897479772568,0.0455094613134861,0.0140499006956816
5,1.0361111082101,-0.206944452990142,-0.0416666683668809,0.0534507073462009,0.135306656360626,-0.0180205255746841
5,1.03888889197661,-0.187500003092477,-0.029166668768514,0.0537561401724815,0.103541657328606,-0.0287106670439243
5,1.02916674604155,-0.151388899219622,-0.00555555575692586,0.0751364231109619,0.00671951752156019,-0.00671951752156019
5,1.00694447590948,-0.118055554801345,-0.00277777787846293,0.0500909499824047,-0.0409279726445675,0.0369573459029198
5,1.00138890837647,-0.112499999424294,-0.0180555564949145,-0.0271835029125214,-0.011606439948082,0.0775798857212067
5,1.00000001649321,-0.134722233088466,-0.0208333341834404,-0.0442877300083637,0.0122173046693206,0.0952949747443199
5,1.01527782720901,-0.14722222356986,-0.0375000018340919,-0.0424551330506802,0.0021380283869803,0.0803287774324417
5,1.02361117850853,-0.156944454596674,-0.0361111129898289,-0.0149661982432008,-0.019547687843442,0.0748309940099716
5,1.02500007039179,-0.176388892338373,-0.033333335301303,-0.04764748737216,-0.0256563406437635,0.0653625801205635
5,1.02916674604155,-0.18333333959868,-0.0416666683668809,-0.0345138870179653,-0.0146607663482428,0.0592539273202419
5,1.02916674604155,-0.187500003092477,-0.0361111129898289,-0.0171042270958424,0.0183259565383196,0.0284052342176437
5,1.02777785415829,-0.198611113846581,-0.0402777795226179,-0.00855211354792118,0.0864374339580536,0.00824668072164059
5,1.02500007039179,-0.200000005729836,-0.0388888906783549,0.0311541277915239,0.156686931848526,0.00122173049021512
5,1.02361117850853,-0.20972223675665,-0.0222222230277034,0.0751364231109619,0.199142068624496,-0.000916297896765172
5,1.01805561097552,-0.208333344873396,-0.0194444453391775,0.0815505087375641,0.157603234052658,-0.0186313893646002
5,1.01666671909226,-0.193055558469529,-0.00555555575692586,0.03176499158144,0.0925460830330849,-0.0259617734700441
5,1.02361117850853,-0.166666673467524,0.00416666691266287,0.0284052342176437,0.123700208961964,-0.021685715764761
5,1.02222228662528,-0.14722222356986,0.0194444453391775,0.0659734457731247,0.0839939713478088,0.00305432616733015
5,0.990277773310434,-0.123611110178398,-0.0166666676506515,-0.0167987942695618,-0.142331600189209,0.102625362575054
5,0.983333411141879,-0.148611115453114,-0.0569444456537738,-0.222660377621651,-0.206777885556221,0.156992360949516
5,1.00555558402623,-0.200000005729836,-0.0583333375370279,-0.226020142436027,-0.143247902393341,0.145996794104576
5,1.01944450285877,-0.229166674498349,-0.0402777795226179,-0.0885754600167274,-0.0467311926186085,0.0879645943641663
5,1.02083339474202,-0.227777782615095,-0.0388888906783549,0.000610865245107561,-0.058643065392971,0.0510072484612465
5,1.02361117850853,-0.230555566381603,-0.052777782159976,-0.0122173046693206,-0.0925460830330849,0.0314595587551594
5,1.02500007039179,-0.236111109602691,-0.0597222233422998,-0.0522289797663689,-0.0723875313997269,0.0183259565383196
5,1.02638896227504,-0.231944458264858,-0.055555559848502,-0.0671951770782471,-0.0351247526705265,-0.0287106670439243
5,1.02916674604155,-0.216666671860991,-0.0513888902767219,-0.0345138870179653,-0.0311541277915239,-0.0345138870179653
5,1.01944450285877,-0.194444450352783,-0.0513888902767219,-0.0219911485910416,0.0103847095742822,-0.0342084541916847
5,1.02361117850853,-0.193055558469529,-0.0458333348996699,-0.0397062413394451,0.0885754600167274,-0.0106901414692402
5,1.02916674604155,-0.193055558469529,-0.03194444645704,0.01588249579072,0.138360977172852,0.00580321997404099
5,1.02361117850853,-0.18333333959868,-0.00555555575692586,0.0665843114256859,0.0595593601465225,-0.011606439948082
5,1.0305556379248,-0.166666673467524,-0.00277777787846293,0.0222965814173222,0.0513126812875271,-0.0351247526705265
5,1.02638896227504,-0.158333334323963,0.00138888893923146,0.00824668072164059,0.0995710343122482,-0.0397062413394451
5,1.0125000434425,-0.14722222356986,-0.00277777787846293,0.0943786799907684,0.0784961804747581,-0.00977384392172098
5,1.00138890837647,-0.144444451959316,-0.0138888899621255,0.108734011650086,-0.0277943685650826,0.0180205255746841
5,1.00277780025972,-0.179166676104882,-0.030555557612777,0.0717766657471657,-0.081855945289135,0.0235183127224445
5,1.0125000434425,-0.213888888094483,-0.0388888906783549,-0.0222965814173222,-0.0427605658769607,-0.0198531206697226
5,1.02222228662528,-0.229166674498349,-0.029166668768514,-0.0314595587551594,-0.00794124789535999,-0.0494800843298435
5,1.02500007039179,-0.223611131277262,-0.0152777788063885,0.0299323964864016,-0.0033597587607801,-0.070249505341053
5,1.02222228662528,-0.216666671860991,-0.00277777787846293,0.118507854640484,-0.01191187184304,-0.0592539273202419
5,1.00972225967599,-0.20972223675665,-0.00277777787846293,0.156992360949516,-0.0558941699564457,-0.0433714315295219
5,1.00555558402623,-0.198611113846581,-0.00833333382532574,0.173485726118088,-0.112704634666443,-0.0482583530247212
5,1.00833336779274,-0.179166676104882,-0.0125000003581147,0.159130394458771,-0.117286130785942,-0.0558941699564457
5,1.01111115155925,-0.161111118090472,-0.0222222230277034,0.130725160241127,-0.134390354156494,-0.0665843114256859
5,1.01111115155925,-0.161111118090472,-0.0222222230277034,0.101403631269932,-0.130114302039146,-0.0497855171561241
5,1.02222228662528,-0.136111112815755,-0.03194444645704,0.064446285367012,-0.124005645513535,-0.0143553335219622
5,1.0361111082101,-0.14722222356986,-0.0513888902767219,-0.0424551330506802,-0.10048733651638,-0.0106901414692402
5,1.03888889197661,-0.175000000455119,-0.0486111125881959,-0.142942473292351,0.0045814891345799,-0.0699440687894821
5,1.03888889197661,-0.175000000455119,-0.0486111125881959,-0.146607652306557,0.0201585534960032,-0.0842994004487991
5,1.03750000009336,-0.180555567988136,-0.0416666683668809,-0.138971850275993,0.00794124789535999,-0.131641462445259
5,1.03750000009336,-0.170833336961321,-0.03194444645704,-0.116980694234371,0.0268780700862408,-0.143858760595322
5,1.0361111082101,-0.162500009973726,-0.0458333348996699,-0.134390354156494,0.0497855171561241,-0.149356558918953
5,1.04444445950963,-0.159722226207217,-0.0500000014324589,-0.178067222237587,0.0937678143382072,-0.152410879731178
5,1.04166667574312,-0.156944454596674,-0.0458333348996699,-0.165239050984383,0.152716308832169,-0.161573857069016
5,1.04444445950963,-0.154166670830166,-0.0361111129898289,-0.0934623852372169,0.196087747812271,-0.120035022497177
5,1.01527782720901,-0.13750000469901,-0.00555555575692586,-0.0580321997404099,0.18539759516716,-0.0616973899304867
5,0.986111194908388,-0.151388899219622,-0.0194444453391775,-0.0577267669141293,0.0607810914516449,-0.0302378293126821
5,0.979166735492117,-0.166666673467524,-0.0222222230277034,-0.0531452745199203,-0.0699440687894821,-0.0305432621389627
5,1.00138890837647,-0.187500003092477,-0.027777779924251,-0.0164933614432812,-0.0775798857212067,-0.0650571510195732
5,1.01666671909226,-0.193055558469529,-0.0222222230277034,0.00824668072164059,-0.0213802829384804,-0.113010071218014
5,1.04583335139288,-0.187500003092477,-0.0138888899621255,0.0888808965682983,0.0210748501121998,-0.138055548071861
5,1.00972225967599,-0.125000002061652,-0.0361111129898289,0.158824965357781,0.0943786799907684,-0.0183259565383196
5,0.994444448960196,-0.104166672436698,-0.0486111125881959,0.0849102661013603,0.096211276948452,0.0705549344420433
5,0.981944519258625,-0.104166672436698,-0.0583333375370279,-0.00763581553474069,0.0424551330506802,0.0965167060494423
5,0.990277773310434,-0.161111118090472,-0.0402777795226179,-0.0607810914516449,-0.03176499158144,0.0280998013913631
5,1.02916674604155,-0.19166667874224,-0.0125000003581147,-0.0149661982432008,0.0305432621389627,-0.0284052342176437
5,1.03888889197661,-0.186111123365188,0.0361111129898289,0.0913243517279625,0.0522289797663689,-0.0339030213654041
5,0.990277773310434,-0.154166670830166,0.0472222237439329,0.197614908218384,-0.0198531206697226,0.0748309940099716
5,0.96666670854283,-0.130555557438704,0.0222222230277034,0.19058994948864,-0.143247902393341,0.1795943826437
5,0.991666665193688,-0.120833338567854,0.0222222230277034,0.0687223374843597,-0.145080491900444,0.160657554864883
5,1.01111115155925,-0.120833338567854,-0.0222222230277034,-0.03176499158144,-0.101709060370922,0.162795588374138
5,1.04027778385987,-0.166666673467524,-0.0152777788063885,-0.0213802829384804,-0.238542884588242,0.0369573459029198
5,1.05972227022542,-0.197222234119292,-0.0236111118719664,0.0131336031481624,-0.137139245867729,-0.0293215326964855
5,1.07638897282447,-0.202777789496344,-0.0819444448505077,0.0482583530247212,0.0620028227567673,-0.0366519130766392
5,1.08472222687628,-0.187500003092477,-0.134722233088466,0.0678060427308083,0.239764615893364,0.00366519158706069
5,1.06250005399193,-0.20138889761309,-0.101388894748172,0.0888808965682983,0.500909507274628,0.0415388382971287
5,1.02500007039179,-0.223611131277262,-0.0458333348996699,0.00244346098043024,0.260228604078293,-0.078801617026329
5,0.958333357243305,-0.144444451959316,-0.0777777813567098,-0.183259576559067,0.146302223205566,-0.0827722400426865
5,0.954166681593543,-0.0777777813567098,-0.0694444482911319,-0.538477718830109,0.0250454749912024,-0.0271835029125214
5,1.00416669214298,-0.0986111170596459,0.0125000003581147,-0.532979905605316,-0.163101017475128,0.037568211555481
5,1.03750000009336,-0.144444451959316,0.0513888902767219,-0.26969701051712,-0.294437050819397,0.0470366254448891
5,1.04166667574312,-0.176388892338373,0.00277777787846293,-0.00519235478714108,-0.175318330526352,0.00733038317412138
5,1.02777785415829,-0.213888888094483,-0.0583333375370279,0.0293215326964855,0.00152716308366507,-0.0122173046693206
5,1.01805561097552,-0.2194444556275,-0.0930555616825939,0.0106901414692402,0.165239050984383,-0.00610865233466029
5,1.02222228662528,-0.222222239394008,-0.0583333375370279,0.0167987942695618,0.204945296049118,-0.00885754637420177
5,1.02222228662528,-0.202777789496344,-0.0236111118719664,0.0711658000946045,0.118813291192055,-0.01588249579072
5,1.01666671909226,-0.19166667874224,-0.00416666691266287,0.118507854640484,0.0329867228865623,-0.0164933614432812
5,1.0125000434425,-0.190277786858986,-0.0250000007162294,0.120035022497177,0.00977384392172098,-0.0277943685650826
5,1.00277780025972,-0.184722231481934,-0.0152777788063885,0.0824668109416962,-0.0161879286170006,-0.015577063895762
5,1.00416669214298,-0.168055565350778,-0.0388888906783549,0.0430659987032413,-0.0568104684352875,0.01588249579072
5,1.02361117850853,-0.159722226207217,-0.033333335301303,0.0335975885391235,-0.0931569486856461,0.0177150927484035
5,1.03888889197661,-0.140277788465518,-0.030555557612777,-0.00427605677396059,-0.0647517144680023,-0.00641408516094089
5,1.04583335139288,-0.140277788465518,-0.03194444645704,-0.0479529201984406,0.0271835029125214,-0.00702495034784079
5,1.02777785415829,-0.14722222356986,-0.0180555564949145,-0.0403171069920063,0.0574213340878487,-0.00794124789535999
5,1.0125000434425,-0.154166670830166,-0.0194444453391775,-0.0635299831628799,0.0418442711234093,0.00549778714776039
5,1.00694447590948,-0.163888889701015,-0.0138888899621255,-0.0907134860754013,0.0229074470698834,0.00610865233466029
5,1.01805561097552,-0.177777784221628,-0.00277777787846293,-0.0113010071218014,0.0265726372599602,0.00152716308366507
5,1.02083339474202,-0.179166676104882,-0.00555555575692586,0.0497855171561241,0.0415388382971287,-0.00427605677396059
5,1.01666671909226,-0.169444445078067,-0.0194444453391775,0.0372627787292004,0.0241291765123606,-0.00122173049021512
5,1.01527782720901,-0.156944454596674,-0.0347222241455659,0.00580321997404099,-0.0186313893646002,0.0290160998702049
5,1.01666671909226,-0.158333334323963,-0.029166668768514,-0.011606439948082,-0.000610865245107561,0.0311541277915239
5,1.02638896227504,-0.16527778158427,-0.033333335301303,-0.0171042270958424,0.0366519130766392,0.0229074470698834
5,1.02222228662528,-0.166666673467524,-0.0347222241455659,-0.0244346093386412,0.0452040284872055,0.0213802829384804
5,1.01944450285877,-0.163888889701015,-0.0250000007162294,-0.0171042270958424,0.0113010071218014,0.0198531206697226
5,1.01944450285877,-0.16527778158427,-0.0152777788063885,-0.00183259579353034,-0.0021380283869803,0.0164933614432812
5,1.01944450285877,-0.166666673467524,-0.0152777788063885,0.013744467869401,-0.00946841109544039,0.02382374368608
5,1.01527782720901,-0.17361112072783,-0.00833333382532574,0.0305432621389627,-0.000610865245107561,0.0134390350431204
5,1.01666671909226,-0.162500009973726,-0.00972222266958873,0.0400116741657257,0.00733038317412138,0.0161879286170006
5,1.02222228662528,-0.156944454596674,-0.0138888899621255,0.0369573459029198,0.0027488935738802,0.00519235478714108
5,1.02222228662528,-0.15555556271342,-0.00555555575692586,0.0204639863222837,-0.0222965814173222,0.011606439948082
5,1.02222228662528,-0.15555556271342,-0.00555555575692586,0.000610865245107561,-0.0507018156349659,0.0149661982432008
5,1.02916674604155,-0.161111118090472,-0.0236111118719664,0.0021380283869803,-0.00824668072164059,0.00305432616733015
5,1.02916674604155,-0.166666673467524,-0.00972222266958873,0.0241291765123606,0.0302378293126821,-0.00824668072164059
5,1.02916674604155,-0.166666673467524,-0.00972222266958873,0.0311541277915239,0.0161879286170006,-0.0128281703218818
5,1.01944450285877,-0.162500009973726,0.00138888893923146,0.0143553335219622,-0.029626963660121,-0.0171042270958424
5,1.01527782720901,-0.13750000469901,-0.0236111118719664,-0.0045814891345799,-0.0781907513737679,0.0045814891345799
5,1.01527782720901,-0.13750000469901,-0.0236111118719664,-0.0458148941397667,-0.0910189226269722,0.00763581553474069
5,1.01944450285877,-0.156944454596674,-0.029166668768514,-0.070249505341053,-0.0583376325666905,0.0109955742955208
5,1.02500007039179,-0.172222228844576,-0.0375000018340919,-0.0235183127224445,-0.0149661982432008,0.000610865245107561
5,1.0305556379248,-0.180555567988136,-0.030555557612777,0.0183259565383196,0.0241291765123606,-0.0152716310694814
5,1.02222228662528,-0.18333333959868,-0.027777779924251,0.0241291765123606,0.0271835029125214,-0.0226020142436027
5,1.02083339474202,-0.176388892338373,-0.026388891079988,0.0262672062963247,0.0021380283869803,-0.02382374368608
5,1.02083339474202,-0.158333334323963,-0.0236111118719664,0.027488935738802,0.0100792767480016,-0.0287106670439243
5,1.02222228662528,-0.158333334323963,-0.0236111118719664,0.0348193198442459,0.00702495034784079,-0.0152716310694814
5,1.02361117850853,-0.152777778946911,-0.0236111118719664,0.021685715764761,-0.000305432622553781,-0.00946841109544039
5,1.02222228662528,-0.163888889701015,-0.027777779924251,0.0262672062963247,0.00641408516094089,-0.0180205255746841
5,1.02222228662528,-0.161111118090472,-0.0180555564949145,0.0394008085131645,0.015577063895762,-0.0256563406437635
5,1.02916674604155,-0.161111118090472,-0.0152777788063885,0.0470366254448891,0.019547687843442,-0.0418442711234093
5,1.02222228662528,-0.156944454596674,-0.0180555564949145,0.0332921557128429,-0.00794124789535999,-0.0345138870179653
5,1.0125000434425,-0.151388899219622,-0.00555555575692586,0.0293215326964855,-0.0693332031369209,-0.0186313893646002
5,1.0125000434425,-0.152777778946911,-0.00972222266958873,0.0598647929728031,-0.115453533828259,-0.0109955742955208
5,1.01944450285877,-0.15555556271342,-0.0152777788063885,0.0675006061792374,-0.0842994004487991,-0.00885754637420177
5,1.02777785415829,-0.163888889701015,-0.0458333348996699,0.0232128798961639,-0.0219911485910416,-0.00855211354792118
5,1.02916674604155,-0.163888889701015,-0.0444444460554069,0.00794124789535999,0.0247400421649218,-0.00305432616733015
5,1.02638896227504,-0.166666673467524,-0.03194444645704,0.0339030213654041,0.0357356183230877,-0.00946841109544039
5,1.02222228662528,-0.16527778158427,-0.029166668768514,0.0458148941397667,0.0302378293126821,-0.00641408516094089
5,1.01666671909226,-0.168055565350778,-0.0222222230277034,0.0455094613134861,0.0339030213654041,-0.00916297826915979
5,1.01666671909226,-0.156944454596674,-0.0166666676506515,0.0219911485910416,0.00916297826915979,-0.0229074470698834
5,1.02083339474202,-0.14722222356986,-0.0152777788063885,0.0103847095742822,-0.0384845100343227,-0.0204639863222837
5,1.02500007039179,-0.14583334384257,-0.0125000003581147,-0.00702495034784079,-0.0561996027827263,-0.0140499006956816
5,1.02500007039179,-0.156944454596674,-0.0152777788063885,-0.00397062394768,-0.0345138870179653,-0.000916297896765172
5,1.02916674604155,-0.158333334323963,-0.0250000007162294,0.0109955742955208,0.0335975885391235,-0.000305432622553781
5,1.02222228662528,-0.166666673467524,-0.030555557612777,0.00244346098043024,0.0409279726445675,0.00122173049021512
5,1.0125000434425,-0.168055565350778,-0.0194444453391775,-0.00580321997404099,0.00702495034784079,0.00733038317412138
5,1.00694447590948,-0.172222228844576,-0.00555555575692586,-0.00122173049021512,-0.0519235469400883,0.00152716308366507
5,1.01527782720901,-0.166666673467524,-0.00416666691266287,0.0549778714776039,-0.0671951770782471,0.0027488935738802
5,1.01944450285877,-0.162500009973726,-0.0236111118719664,0.0626136884093285,-0.0409279726445675,0.00794124789535999
5,1.02083339474202,-0.15555556271342,-0.0402777795226179,0.0360410511493683,-0.0250454749912024,0.0323758572340012
5,1.01527782720901,-0.15555556271342,-0.0430555572111439,0.00427605677396059,-0.0140499006956816,0.04764748737216
5,1.01527782720901,-0.154166670830166,-0.03194444645704,0.00671951752156019,0.00916297826915979,0.0571159012615681
5,1.01805561097552,-0.163888889701015,-0.0250000007162294,0.0106901414692402,0.0146607663482428,0.0693332031369209
5,1.01527782720901,-0.18333333959868,-0.0222222230277034,0.0021380283869803,0.0122173046693206,0.0558941699564457
5,1.01527782720901,-0.184722231481934,-0.0166666676506515,0.0455094613134861,-0.0186313893646002,0.0378736443817616
5,1.02361117850853,-0.176388892338373,-0.0250000007162294,0.0726929605007172,-0.0574213340878487,0.0452040284872055
5,1.0361111082101,-0.177777784221628,-0.026388891079988,0.0678060427308083,-0.0268780700862408,0.0403171069920063
5,1.03472221632685,-0.170833336961321,-0.03194444645704,0.0290160998702049,0.0164933614432812,0.000305432622553781
5,1.02500007039179,-0.158333334323963,-0.0388888906783549,-0.019547687843442,0.0204639863222837,-0.0045814891345799
5,1.01805561097552,-0.151388899219622,-0.033333335301303,-0.0381790772080422,0.0131336031481624,0.0277943685650826
5,1.01527782720901,-0.156944454596674,-0.029166668768514,-0.0409279726445675,0.0320704244077206,0.0323758572340012
5,1.00972225967599,-0.168055565350778,-0.0347222241455659,-0.0543670058250427,0.0241291765123606,0.0320704244077206
5,1.00555558402623,-0.179166676104882,-0.0208333341834404,-0.076052725315094,-0.0152716310694814,0.0271835029125214
5,1.00972225967599,-0.18333333959868,-0.0125000003581147,0.00152716308366507,-0.0308486949652433,0.0183259565383196
5,1.01944450285877,-0.187500003092477,-0.0208333341834404,0.0491746515035629,-0.0207694191485643,0.0140499006956816
5,1.02638896227504,-0.190277786858986,-0.0222222230277034,0.0748309940099716,-0.0201585534960032,-0.000610865245107561
5,1.02916674604155,-0.180555567988136,-0.03194444645704,0.0815505087375641,-0.0222965814173222,-0.00733038317412138
5,1.03194452980806,-0.186111123365188,-0.027777779924251,0.0675006061792374,-0.00855211354792118,-0.0268780700862408
5,1.03194452980806,-0.186111123365188,-0.027777779924251,0.0565050356090069,0.00824668072164059,-0.0265726372599602
5,1.02638896227504,-0.169444445078067,-0.0347222241455659,0.0491746515035629,0.0555887371301651,-0.0256563406437635
5,1.01388893532575,-0.163888889701015,-0.03194444645704,0.017409659922123,0.081855945289135,-0.00733038317412138
5,1.00833336779274,-0.15555556271342,-0.027777779924251,-0.0369573459029198,0.0745255574584007,0.0021380283869803
5,1.00833336779274,-0.15555556271342,-0.027777779924251,-0.0687223374843597,0.0638354197144508,0.0146607663482428
5,1.0125000434425,-0.161111118090472,-0.00277777787846293,-0.0494800843298435,0.0357356183230877,0.0189368221908808
5,1.0125000434425,-0.161111118090472,-0.00277777787846293,-0.0161879286170006,0.0140499006956816,0.02382374368608
5,1.01944450285877,-0.166666673467524,-0.00694444498106275,-0.00733038317412138,0.0146607663482428,0.0171042270958424
5,1.01805561097552,-0.17361112072783,-0.0138888899621255,-0.0198531206697226,0.0335975885391235,0.0241291765123606
5,1.01666671909226,-0.169444445078067,-0.0222222230277034,-0.013744467869401,0.0265726372599602,0.0351247526705265
5,1.01388893532575,-0.172222228844576,-0.03194444645704,-0.0232128798961639,0.00580321997404099,0.00824668072164059
5,1.01944450285877,-0.17361112072783,-0.033333335301303,-0.0247400421649218,-0.0293215326964855,0.00763581553474069
5,1.01388893532575,-0.166666673467524,-0.0208333341834404,-0.0461203269660473,-0.0794124826788902,0.0305432621389627
5,1.01805561097552,-0.169444445078067,-0.033333335301303,-0.0479529201984406,-0.0931569486856461,0.0497855171561241
5,1.01944450285877,-0.179166676104882,-0.0361111129898289,-0.0369573459029198,-0.0113010071218014,0.0711658000946045
5,1.02361117850853,-0.194444450352783,-0.0388888906783549,-0.0387899428606033,0.0507018156349659,0.0632245540618896
5,1.02083339474202,-0.197222234119292,-0.0250000007162294,-0.00763581553474069,0.0323758572340012,0.0546724386513233
5,1.0125000434425,-0.18333333959868,-0.00972222266958873,0.0415388382971287,-0.0452040284872055,0.0445931628346443
5,1.01805561097552,-0.177777784221628,-0.00694444498106275,0.0302378293126821,-0.0574213340878487,0.0131336031481624
5,1.02222228662528,-0.179166676104882,-0.0222222230277034,0.0128281703218818,-0.0406225398182869,-0.00397062394768
5,1.0305556379248,-0.181944447715425,-0.0236111118719664,0.0384845100343227,-0.0262672062963247,0.00488692196086049
5,1.0305556379248,-0.18333333959868,-0.0236111118719664,0.0485637858510017,0.00580321997404099,0.0128281703218818
5,1.02083339474202,-0.179166676104882,-0.033333335301303,0.01588249579072,0.0421497002243996,0.0131336031481624
5,1.01527782720901,-0.172222228844576,-0.0388888906783549,-0.029626963660121,0.0513126812875271,0.0100792767480016
5,1.01388893532575,-0.17361112072783,-0.03194444645704,-0.0406225398182869,0.0561996027827263,0.01588249579072
5,1.00972225967599,-0.193055558469529,-0.00555555575692586,-0.00519235478714108,0.00610865233466029,-0.00366519158706069
5,1.00972225967599,-0.193055558469529,-0.00555555575692586,0.019547687843442,-0.0335975885391235,0.000916297896765172
5,1.00833336779274,-0.193055558469529,-0.00277777787846293,0.0164933614432812,-0.0543670058250427,0.00397062394768
5,1.0125000434425,-0.180555567988136,-0.00555555575692586,0.0253509078174829,-0.0552833043038845,0.00671951752156019
5,1.02222228662528,-0.181944447715425,-0.0138888899621255,0.01191187184304,-0.0345138870179653,0.00855211354792118
5,1.02361117850853,-0.170833336961321,-0.0194444453391775,0.00824668072164059,-0.0222965814173222,0.0113010071218014
5,1.01944450285877,-0.175000000455119,-0.0194444453391775,0.0186313893646002,-0.0354301854968071,0.0128281703218818
5,1.01805561097552,-0.176388892338373,-0.0222222230277034,0.0271835029125214,-0.0488692186772823,0.0232128798961639
5,1.01527782720901,-0.181944447715425,-0.026388891079988,0.0372627787292004,-0.0516181141138077,0.02382374368608
5,1.01944450285877,-0.184722231481934,-0.026388891079988,0.0409279726445675,-0.0400116741657257,0.017409659922123
5,1.01944450285877,-0.19166667874224,-0.0250000007162294,0.0522289797663689,-0.0146607663482428,0.0161879286170006
5,1.01944450285877,-0.18333333959868,-0.026388891079988,0.0537561401724815,-0.00519235478714108,0.015577063895762
5,1.01666671909226,-0.180555567988136,-0.029166668768514,0.0531452745199203,-0.0164933614432812,0.00824668072164059
5,1.02222228662528,-0.17361112072783,-0.0250000007162294,0.076052725315094,-0.0122173046693206,0.01191187184304
5,1.02083339474202,-0.170833336961321,-0.0222222230277034,0.0830776765942574,-0.00794124789535999,0.00702495034784079
5,1.02083339474202,-0.161111118090472,-0.0361111129898289,0.0479529201984406,0.00549778714776039,0.0134390350431204
5,1.02083339474202,-0.172222228844576,-0.033333335301303,0.029626963660121,0.000610865245107561,0.0113010071218014
5,1.02222228662528,-0.177777784221628,-0.0194444453391775,0.0171042270958424,0.0027488935738802,-0.00488692196086049
5,1.02500007039179,-0.177777784221628,-0.0180555564949145,0.0311541277915239,0.0253509078174829,-0.0207694191485643
5,1.02361117850853,-0.170833336961321,-0.0222222230277034,0.0326812900602817,0.0326812900602817,-0.0323758572340012
5,1.01805561097552,-0.17361112072783,-0.0152777788063885,0.02382374368608,0.00488692196086049,-0.0171042270958424
5,1.01666671909226,-0.163888889701015,-0.0166666676506515,-0.00946841109544039,-0.0167987942695618,-0.0244346093386412
5,1.02500007039179,-0.163888889701015,-0.033333335301303,-0.0335975885391235,-0.00977384392172098,-0.0235183127224445
5,1.02361117850853,-0.176388892338373,-0.0361111129898289,-0.0131336031481624,0.00610865233466029,-0.0192422550171614
5,1.02361117850853,-0.179166676104882,-0.033333335301303,0.000305432622553781,-0.0027488935738802,-0.0128281703218818
5,1.01666671909226,-0.176388892338373,-0.026388891079988,-0.00794124789535999,-0.0149661982432008,-0.0161879286170006
5,1.01944450285877,-0.177777784221628,-0.033333335301303,-0.0164933614432812,0.00183259579353034,-0.0045814891345799
5,1.02361117850853,-0.176388892338373,-0.033333335301303,-0.00885754637420177,0.0253509078174829,-0.00885754637420177
5,1.01944450285877,-0.177777784221628,-0.0361111129898289,-0.00885754637420177,0.0143553335219622,-0.0161879286170006
5,1.00972225967599,-0.170833336961321,-0.026388891079988,-0.000610865245107561,-0.027488935738802,-0.0045814891345799
5,1.02222228662528,-0.166666673467524,-0.029166668768514,-0.00977384392172098,-0.0452040284872055,0.00183259579353034
5,1.01805561097552,-0.176388892338373,-0.0361111129898289,-0.0222965814173222,-0.0305432621389627,0.0146607663482428
5,1.01666671909226,-0.181944447715425,-0.0472222237439329,-0.0189368221908808,-0.011606439948082,0.0183259565383196
5,1.0125000434425,-0.180555567988136,-0.0361111129898289,-0.00763581553474069,-0.0397062413394451,0.019547687843442
5,1.01388893532575,-0.181944447715425,-0.0361111129898289,-0.00366519158706069,-0.076052725315094,0.0140499006956816
5,1.01944450285877,-0.187500003092477,-0.0388888906783549,-0.0329867228865623,-0.0720821022987366,0.00244346098043024
5,1.01944450285877,-0.190277786858986,-0.0472222237439329,-0.0305432621389627,-0.0464257597923279,-0.0021380283869803
5,1.01805561097552,-0.180555567988136,-0.0416666683668809,-0.0027488935738802,-0.0164933614432812,-0.00946841109544039
5,1.01388893532575,-0.17361112072783,-0.0430555572111439,0.0167987942695618,-0.0381790772080422,-0.00519235478714108
5,1.01527782720901,-0.177777784221628,-0.0416666683668809,-0.00244346098043024,-0.0473420582711697,-0.0109955742955208
5,1.02222228662528,-0.18333333959868,-0.0472222237439329,-0.00397062394768,-0.02382374368608,-0.017409659922123
5,1.02361117850853,-0.180555567988136,-0.0416666683668809,0.0305432621389627,-0.00733038317412138,-0.0265726372599602
5,1.02222228662528,-0.177777784221628,-0.033333335301303,0.0507018156349659,-0.00671951752156019,-0.0256563406437635
5,1.02222228662528,-0.162500009973726,-0.0472222237439329,0.0381790772080422,-0.0284052342176437,-0.0140499006956816
5,1.01944450285877,-0.16527778158427,-0.0486111125881959,0.0219911485910416,-0.0390953756868839,-0.0183259565383196
5,1.02222228662528,-0.176388892338373,-0.0416666683668809,0.00733038317412138,-0.0378736443817616,-0.0323758572340012
5,1.02083339474202,-0.177777784221628,-0.0430555572111439,0.0299323964864016,-0.0259617734700441,-0.02382374368608
5,1.02222228662528,-0.180555567988136,-0.0402777795226179,0.0427605658769607,-0.0134390350431204,-0.0143553335219622
5,1.02222228662528,-0.179166676104882,-0.0402777795226179,0.0497855171561241,-0.00519235478714108,-0.0241291765123606
5,1.01944450285877,-0.176388892338373,-0.0361111129898289,0.0403171069920063,-0.0256563406437635,-0.013744467869401
5,1.01944450285877,-0.175000000455119,-0.0347222241455659,0.0415388382971287,-0.0455094613134861,0.0027488935738802
5,1.01944450285877,-0.180555567988136,-0.0347222241455659,0.0400116741657257,-0.0571159012615681,-0.00794124789535999
5,1.02083339474202,-0.181944447715425,-0.0541666679652478,0.0348193198442459,-0.00794124789535999,-0.0213802829384804
5,1.01666671909226,-0.177777784221628,-0.0500000014324589,0.0421497002243996,0.0177150927484035,-0.0241291765123606
5,1.01666671909226,-0.176388892338373,-0.0500000014324589,0.0467311926186085,0.0164933614432812,-0.011606439948082
5,1.02916674604155,-0.180555567988136,-0.0361111129898289,0.0507018156349659,0.0253509078174829,-0.0320704244077206
5,1.02500007039179,-0.17361112072783,-0.0347222241455659,0.0592539273202419,0.0271835029125214,-0.0439822971820831
5,1.02083339474202,-0.166666673467524,-0.033333335301303,0.0604756586253643,0.00794124789535999,-0.0439822971820831
5,1.01805561097552,-0.166666673467524,-0.0361111129898289,0.0635299831628799,0.00183259579353034,-0.0488692186772823
5,1.01666671909226,-0.166666673467524,-0.0486111125881959,0.0620028227567673,0.03176499158144,-0.0503963828086853
5,1.01944450285877,-0.170833336961321,-0.0416666683668809,0.0592539273202419,0.0430659987032413,-0.0464257597923279
5,1.01666671909226,-0.162500009973726,-0.0388888906783549,0.0693332031369209,0.0250454749912024,-0.058643065392971
5,1.02083339474202,-0.159722226207217,-0.0388888906783549,0.0595593601465225,-0.021685715764761,-0.0613919571042061
5,1.01527782720901,-0.151388899219622,-0.0444444460554069,0.0339030213654041,-0.0247400421649218,-0.0571159012615681
5,1.01944450285877,-0.156944454596674,-0.0486111125881959,0.0222965814173222,-0.00946841109544039,-0.0442877300083637
5,1.02083339474202,-0.156944454596674,-0.029166668768514,0.03176499158144,-0.0021380283869803,-0.0421497002243996
5,1.02222228662528,-0.158333334323963,-0.0416666683668809,0.0277943685650826,0.0177150927484035,-0.0387899428606033
5,1.01944450285877,-0.162500009973726,-0.0347222241455659,0.0235183127224445,0.0192422550171614,-0.0348193198442459
5,1.01527782720901,-0.161111118090472,-0.0375000018340919,0.02382374368608,0.0164933614432812,-0.0287106670439243
5,1.01388893532575,-0.166666673467524,-0.0361111129898289,0.0235183127224445,0.00519235478714108,-0.0213802829384804
5,1.01111115155925,-0.168055565350778,-0.029166668768514,0.0433714315295219,-0.0143553335219622,-0.0164933614432812
5,1.01111115155925,-0.168055565350778,-0.029166668768514,0.0394008085131645,-0.00855211354792118,-0.0171042270958424
5,1.02083339474202,-0.161111118090472,-0.0458333348996699,0.0284052342176437,0.0235183127224445,-0.0180205255746841
5,1.01666671909226,-0.158333334323963,-0.0416666683668809,0.00824668072164059,0.0192422550171614,-0.0164933614432812
5,1.01666671909226,-0.158333334323963,-0.0416666683668809,0.00671951752156019,0.0134390350431204,-0.011606439948082
5,1.01527782720901,-0.156944454596674,-0.0416666683668809,0.00824668072164059,0.0152716310694814,-0.0180205255746841
5,1.01388893532575,-0.15555556271342,-0.0388888906783549,-0.0027488935738802,0.00427605677396059,-0.0103847095742822
5,1.01388893532575,-0.15555556271342,-0.0388888906783549,-0.01191187184304,-0.011606439948082,-0.00794124789535999
5,1.01944450285877,-0.154166670830166,-0.03194444645704,-0.0113010071218014,-0.00763581553474069,-0.00183259579353034
5,1.01944450285877,-0.162500009973726,-0.029166668768514,0.00183259579353034,0.00183259579353034,0.0027488935738802
5,1.01944450285877,-0.162500009973726,-0.029166668768514,-0.00610865233466029,-0.013744467869401,0.0149661982432008
5,1.01805561097552,-0.163888889701015,-0.0250000007162294,-0.0192422550171614,-0.00885754637420177,0.0201585534960032
5,1.02222228662528,-0.163888889701015,-0.029166668768514,0.00397062394768,-0.00610865233466029,0.0232128798961639
5,1.02222228662528,-0.163888889701015,-0.029166668768514,0.0244346093386412,0.00977384392172098,0.013744467869401
5,1.02083339474202,-0.159722226207217,-0.0486111125881959,-0.00305432616733015,-0.00244346098043024,0.0235183127224445
5,1.01527782720901,-0.159722226207217,-0.0513888902767219,-0.0256563406437635,-0.0262672062963247,0.0342084541916847
5,1.01527782720901,-0.159722226207217,-0.0513888902767219,-0.0256563406437635,-0.0387899428606033,0.0332921557128429
5,1.02222228662528,-0.170833336961321,-0.0416666683668809,-0.0192422550171614,-0.00305432616733015,0.0210748501121998
5,1.02083339474202,-0.16527778158427,-0.03194444645704,-0.00305432616733015,0.00946841109544039,0.0247400421649218
5,1.01805561097552,-0.166666673467524,-0.0402777795226179,0.00549778714776039,-0.000916297896765172,0.02382374368608
5,1.01944450285877,-0.166666673467524,-0.0458333348996699,-0.0171042270958424,-0.0229074470698834,0.0400116741657257
5,1.02500007039179,-0.176388892338373,-0.0444444460554069,-0.0213802829384804,-0.0299323964864016,0.0311541277915239
5,1.02500007039179,-0.190277786858986,-0.0458333348996699,-0.000305432622553781,-0.0125227374956012,0.0186313893646002
5,1.01666671909226,-0.188888894975731,-0.0569444456537738,0.021685715764761,0.0189368221908808,0.00824668072164059
5,1.01527782720901,-0.187500003092477,-0.0458333348996699,0.0222965814173222,0.02382374368608,0.000610865245107561
5,1.01527782720901,-0.187500003092477,-0.0458333348996699,0.0552833043038845,0.00763581553474069,-0.00183259579353034
5,1.02083339474202,-0.17361112072783,-0.026388891079988,0.0992656052112579,-0.0167987942695618,-0.0033597587607801
5,1.02222228662528,-0.170833336961321,-0.029166668768514,0.114231802523136,-0.0409279726445675,0.00183259579353034
5,1.02222228662528,-0.170833336961321,-0.029166668768514,0.104763388633728,-0.021685715764761,0.000916297896765172
5,1.02222228662528,-0.16527778158427,-0.0361111129898289,0.101403631269932,-0.00824668072164059,-0.00763581553474069
5,1.01805561097552,-0.163888889701015,-0.0375000018340919,0.0855211317539215,-0.00397062394768,-0.0109955742955208
5,1.01805561097552,-0.163888889701015,-0.0375000018340919,0.0754418596625328,-0.0378736443817616,-0.0106901414692402
5,1.02222228662528,-0.163888889701015,-0.0444444460554069,0.0708603709936142,-0.0494800843298435,-0.0103847095742822
5,1.02222228662528,-0.16527778158427,-0.0416666683668809,0.0696386396884918,-0.0259617734700441,-0.0103847095742822
5,1.02222228662528,-0.16527778158427,-0.0458333348996699,0.0574213340878487,0.0164933614432812,-0.017409659922123
5,1.02500007039179,-0.156944454596674,-0.0361111129898289,0.037568211555481,0.021685715764761,-0.00824668072164059
5,1.02083339474202,-0.162500009973726,-0.026388891079988,0.0360410511493683,0.000610865245107561,-0.0027488935738802
5,1.01944450285877,-0.166666673467524,-0.029166668768514,0.0458148941397667,-0.017409659922123,0.0045814891345799
5,1.01944450285877,-0.166666673467524,-0.029166668768514,0.0571159012615681,-0.0103847095742822,0.00397062394768
5,1.01944450285877,-0.172222228844576,-0.0500000014324589,0.0525344125926495,-0.00855211354792118,0.01191187184304
5,1.02777785415829,-0.163888889701015,-0.0458333348996699,0.0522289797663689,-0.0241291765123606,0.0134390350431204
5,1.02777785415829,-0.163888889701015,-0.0458333348996699,0.0543670058250427,-0.017409659922123,0.021685715764761
5,1.02500007039179,-0.16527778158427,-0.0416666683668809,0.0540615729987621,0.0277943685650826,0.015577063895762
5,1.02222228662528,-0.16527778158427,-0.0416666683668809,0.0229074470698834,0.0433714315295219,0.0131336031481624
5,1.0125000434425,-0.163888889701015,-0.0458333348996699,-0.000305432622553781,0.011606439948082,0.017409659922123
5,1.00833336779274,-0.166666673467524,-0.033333335301303,0.011606439948082,-0.0427605658769607,0.015577063895762
5,1.01527782720901,-0.161111118090472,-0.027777779924251,0.0335975885391235,-0.0430659987032413,0.0131336031481624
5,1.02500007039179,-0.163888889701015,-0.0361111129898289,0.0113010071218014,-0.0100792767480016,0.00885754637420177
5,1.02500007039179,-0.159722226207217,-0.0458333348996699,-0.02382374368608,0.0250454749912024,0.00641408516094089
5,1.01944450285877,-0.158333334323963,-0.0458333348996699,-0.0335975885391235,0.0146607663482428,0.0106901414692402
5,1.02083339474202,-0.161111118090472,-0.0388888906783549,-0.0287106670439243,-0.00305432616733015,0.00763581553474069
5,1.02222228662528,-0.168055565350778,-0.0361111129898289,-0.0244346093386412,-0.015577063895762,0.0171042270958424
5,1.01388893532575,-0.180555567988136,-0.0458333348996699,-0.0152716310694814,-0.0305432621389627,0.0122173046693206
5,1.01527782720901,-0.18333333959868,-0.0416666683668809,-0.0201585534960032,-0.0183259565383196,-0.00519235478714108
5,1.02083339474202,-0.168055565350778,-0.0458333348996699,-0.00763581553474069,-0.0027488935738802,0.00366519158706069
5,1.02222228662528,-0.16527778158427,-0.0486111125881959,0.00427605677396059,-0.00824668072164059,0.00366519158706069
5,1.02500007039179,-0.163888889701015,-0.0430555572111439,0.00733038317412138,0.0106901414692402,0.00580321997404099
5,1.02500007039179,-0.170833336961321,-0.0388888906783549,-0.00977384392172098,0.0171042270958424,0.00763581553474069
5,1.02222228662528,-0.170833336961321,-0.0361111129898289,-0.00733038317412138,0.017409659922123,0.00366519158706069
5,1.02222228662528,-0.17361112072783,-0.030555557612777,0.01191187184304,-0.00183259579353034,0.0100792767480016
5,1.02222228662528,-0.169444445078067,-0.0361111129898289,0.0103847095742822,0.0186313893646002,0.00794124789535999
5,1.02222228662528,-0.172222228844576,-0.0430555572111439,0.0033597587607801,0.0342084541916847,0.00366519158706069
5,1.01944450285877,-0.170833336961321,-0.055555559848502,-0.0109955742955208,0.0433714315295219,-0.00580321997404099
5,1.01666671909226,-0.163888889701015,-0.0375000018340919,-0.00885754637420177,0.0177150927484035,-0.000916297896765172
5,1.01944450285877,-0.163888889701015,-0.03194444645704,-0.00366519158706069,-0.0106901414692402,0.00152716308366507
5,1.02083339474202,-0.16527778158427,-0.0402777795226179,0.00549778714776039,-0.029626963660121,0.00122173049021512
5,1.01944450285877,-0.161111118090472,-0.0430555572111439,0.00397062394768,-0.00519235478714108,-0.00641408516094089
5,1.01944450285877,-0.162500009973726,-0.0513888902767219,-0.0149661982432008,0.00794124789535999,-0.0033597587607801
5,1.01666671909226,-0.166666673467524,-0.0458333348996699,-0.017409659922123,0.00885754637420177,-0.00671951752156019
5,1.02222228662528,-0.166666673467524,-0.0416666683668809,-0.0033597587607801,-0.0113010071218014,-0.00580321997404099
5,1.02083339474202,-0.169444445078067,-0.0347222241455659,0.00519235478714108,-0.0222965814173222,-0.00488692196086049
5,1.02222228662528,-0.16527778158427,-0.0500000014324589,-0.00366519158706069,-0.00763581553474069,0.0033597587607801
5,1.01666671909226,-0.166666673467524,-0.0416666683668809,-0.0192422550171614,0.00549778714776039,0.00183259579353034
5,1.01944450285877,-0.168055565350778,-0.0430555572111439,-0.0180205255746841,0.00946841109544039,-0.00183259579353034
5,1.01944450285877,-0.166666673467524,-0.0361111129898289,-0.0122173046693206,0.0021380283869803,-0.00183259579353034
5,1.02361117850853,-0.168055565350778,-0.0416666683668809,-0.00397062394768,0.00488692196086049,0.0027488935738802
5,1.01944450285877,-0.170833336961321,-0.055555559848502,-0.0161879286170006,0.00244346098043024,0.00763581553474069
5,1.01944450285877,-0.166666673467524,-0.033333335301303,-0.0210748501121998,0.0033597587607801,0.0100792767480016
5,1.02222228662528,-0.166666673467524,-0.0375000018340919,-0.0161879286170006,0.000610865245107561,0.00488692196086049
5,1.02083339474202,-0.169444445078067,-0.0444444460554069,-0.0146607663482428,0.00305432616733015,0.00122173049021512
5,1.01666671909226,-0.166666673467524,-0.0458333348996699,-0.027488935738802,0.00702495034784079,0.00610865233466029
5,1.01805561097552,-0.166666673467524,-0.0402777795226179,-0.0268780700862408,-0.0128281703218818,0.0033597587607801
5,1.02222228662528,-0.17361112072783,-0.0444444460554069,-0.0152716310694814,-0.0247400421649218,0.00824668072164059
5,1.02361117850853,-0.168055565350778,-0.0444444460554069,-0.0027488935738802,-0.029626963660121,-0.000916297896765172
5,1.01944450285877,-0.17361112072783,-0.0416666683668809,-0.00916297826915979,-0.0253509078174829,-0.00305432616733015
5,1.01944450285877,-0.169444445078067,-0.0458333348996699,-0.00763581553474069,-0.0268780700862408,-0.00641408516094089
5,1.01944450285877,-0.169444445078067,-0.0472222237439329,0.00916297826915979,-0.0381790772080422,0.00244346098043024
5,1.02222228662528,-0.166666673467524,-0.0347222241455659,0.0250454749912024,-0.0607810914516449,0.000610865245107561
5,1.02222228662528,-0.170833336961321,-0.0472222237439329,0.0232128798961639,-0.0656680166721344,0.0140499006956816
5,1.02916674604155,-0.170833336961321,-0.0500000014324589,0.013744467869401,-0.0522289797663689,0.00763581553474069
5,1.02916674604155,-0.170833336961321,-0.0458333348996699,-0.0045814891345799,-0.011606439948082,0.00549778714776039
5,1.02500007039179,-0.176388892338373,-0.0361111129898289,-0.00397062394768,0.0232128798961639,0.000610865245107561
5,1.01944450285877,-0.17361112072783,-0.0416666683668809,0.0177150927484035,0.00183259579353034,-0.00488692196086049
5,1.01805561097552,-0.170833336961321,-0.0347222241455659,0.0436768643558025,-0.0424551330506802,-0.00702495034784079
5,1.02916674604155,-0.179166676104882,-0.0513888902767219,0.0482583530247212,-0.0403171069920063,-0.0146607663482428
5,1.03194452980806,-0.17361112072783,-0.055555559848502,0.0201585534960032,-0.000305432622553781,-0.00824668072164059
5,1.02777785415829,-0.170833336961321,-0.055555559848502,0.01588249579072,0.0201585534960032,-0.0235183127224445
5,1.02083339474202,-0.172222228844576,-0.0416666683668809,0.0360410511493683,0.0106901414692402,-0.02382374368608
5,1.02361117850853,-0.172222228844576,-0.0416666683668809,0.0589484944939613,0.013744467869401,-0.0360410511493683
5,1.01666671909226,-0.162500009973726,-0.0388888906783549,0.0510072484612465,0.0262672062963247,-0.0384845100343227
5,1.01388893532575,-0.156944454596674,-0.0375000018340919,0.0427605658769607,0.0262672062963247,-0.0397062413394451
5,1.01111115155925,-0.156944454596674,-0.0375000018340919,0.0348193198442459,-0.0558941699564457,-0.0229074470698834
5,1.01527782720901,-0.163888889701015,-0.0500000014324589,0.0201585534960032,-0.0913243517279625,-0.00488692196086049
5,1.01666671909226,-0.166666673467524,-0.0513888902767219,0.013744467869401,-0.0546724386513233,-0.0106901414692402
5,1.02500007039179,-0.170833336961321,-0.052777782159976,-0.00488692196086049,-0.0201585534960032,-0.0180205255746841
5,1.02500007039179,-0.158333334323963,-0.055555559848502,-0.0326812900602817,0.0103847095742822,-0.0180205255746841
5,1.02500007039179,-0.151388899219622,-0.0458333348996699,-0.0226020142436027,0.01588249579072,-0.0235183127224445
5,1.01527782720901,-0.152777778946911,-0.0472222237439329,-0.0314595587551594,-0.0164933614432812,-0.0027488935738802
5,1.01527782720901,-0.156944454596674,-0.0486111125881959,-0.0510072484612465,-0.0696386396884918,0.00610865233466029
5,1.01944450285877,-0.172222228844576,-0.0638888929140799,-0.0262672062963247,-0.0488692186772823,0.00794124789535999
5,1.01944450285877,-0.179166676104882,-0.0652777787193518,-0.0045814891345799,0.00305432616733015,0.00488692196086049
5,1.02083339474202,-0.176388892338373,-0.055555559848502,-0.00733038317412138,0.0354301854968071,0.0027488935738802
5,1.01666671909226,-0.168055565350778,-0.0486111125881959,-0.00397062394768,0.0265726372599602,0.000305432622553781
5,1.01666671909226,-0.168055565350778,-0.0486111125881959,-0.00794124789535999,-0.000610865245107561,0.00610865233466029
5,1.02222228662528,-0.176388892338373,-0.055555559848502,-0.00519235478714108,-0.013744467869401,0.0143553335219622
5,1.01944450285877,-0.176388892338373,-0.0541666679652478,0.0113010071218014,0.019547687843442,0.0149661982432008
5,1.01944450285877,-0.176388892338373,-0.0541666679652478,0.0167987942695618,0.0491746515035629,0.015577063895762
5,1.01944450285877,-0.166666673467524,-0.055555559848502,0.00244346098043024,0.0439822971820831,-0.00610865233466029
5,1.01805561097552,-0.161111118090472,-0.0569444456537738,-0.00244346098043024,0.027488935738802,0.00244346098043024
5,1.01805561097552,-0.161111118090472,-0.0569444456537738,0.00305432616733015,0.0143553335219622,0.0149661982432008
5,1.02222228662528,-0.169444445078067,-0.0416666683668809,0.0177150927484035,0.0360410511493683,0.00946841109544039
5,1.02083339474202,-0.17361112072783,-0.0388888906783549,0.00397062394768,0.0659734457731247,0.0113010071218014
5,1.02083339474202,-0.17361112072783,-0.0388888906783549,-0.00519235478714108,0.0601702257990837,0.00946841109544039
5,1.0125000434425,-0.177777784221628,-0.0583333375370279,-0.0171042270958424,0.0235183127224445,0.00519235478714108
5,1.01944450285877,-0.15555556271342,-0.0486111125881959,-0.0262672062963247,0.0143553335219622,0.0021380283869803
5,1.01944450285877,-0.15555556271342,-0.0486111125881959,0.0045814891345799,0.0226020142436027,0.0033597587607801
5,1.02916674604155,-0.158333334323963,-0.0388888906783549,0.00488692196086049,0.0262672062963247,0.0134390350431204
5,1.02777785415829,-0.159722226207217,-0.0486111125881959,-0.00946841109544039,-0.0189368221908808,0.019547687843442
5,1.01527782720901,-0.156944454596674,-0.0611111152255539,-0.0198531206697226,-0.0320704244077206,0.0235183127224445
5,1.01805561097552,-0.172222228844576,-0.0416666683668809,-0.01191187184304,-0.00733038317412138,0.013744467869401
5,1.02083339474202,-0.175000000455119,-0.0500000014324589,-0.02382374368608,0.0311541277915239,0.0171042270958424
5,1.02083339474202,-0.172222228844576,-0.052777782159976,-0.0186313893646002,0.0467311926186085,0.01191187184304
5,1.02083339474202,-0.169444445078067,-0.0500000014324589,-0.0152716310694814,0.0400116741657257,0.02382374368608
5,1.02222228662528,-0.169444445078067,-0.0500000014324589,-0.0207694191485643,0.01588249579072,0.0167987942695618
5,1.02222228662528,-0.170833336961321,-0.0486111125881959,-0.0207694191485643,0.0192422550171614,0.00946841109544039
5,1.02222228662528,-0.17361112072783,-0.0430555572111439,-0.0140499006956816,0.0400116741657257,0.0106901414692402
5,1.02777785415829,-0.179166676104882,-0.0458333348996699,-0.0021380283869803,0.0482583530247212,-0.00305432616733015
5,1.02361117850853,-0.170833336961321,-0.0486111125881959,-0.00763581553474069,0.0519235469400883,-0.000305432622553781
5,1.01527782720901,-0.168055565350778,-0.0416666683668809,-0.0284052342176437,0.0607810914516449,-0.00244346098043024
