Activity,acc_x,acc_y,acc_z,gyro_x,gyro_y,gyro_z
0,0.272222225631511,0.0152777788063885,0.959722249126559,-0.257785141468048,0.0635299831628799,-0.0384845100343227
0,0.275000009398019,0.0138888899621255,0.926388941176177,-0.302683740854263,0.127976268529892,0.0345138870179653
0,0.301388906555989,-0.03194444645704,1.00000001649321,-0.195171445608139,0.781296670436859,0.0604756586253643
0,0.301388906555989,-0.03194444645704,1.00000001649321,-0.195171445608139,0.781296670436859,0.0604756586253643
0,0.301388906555989,-0.03194444645704,1.00000001649321,-0.195171445608139,0.781296670436859,0.0604756586253643
0,0.301388906555989,-0.03194444645704,1.00000001649321,-0.377820163965225,1.06290555000305,-0.0131336031481624
0,0.152777778946911,-0.0125000003581147,1.01111115155925,-0.780380368232727,0.929126024246216,-0.247400417923927
0,0.176388892338373,-0.03194444645704,1.00138890837647,-0.851546168327332,0.993877768516541,-0.509461641311646
0,0.202777789496344,-0.0722222259796579,0.94305554652751,-0.685390830039978,0.744339287281036,-0.240986332297325
0,0.162500009973726,-0.03194444645704,0.904166671044111,-0.631329238414764,-1.29075825214386,-0.273973047733307
0,0.0666666706026059,-0.0430555572111439,0.92083337364316,-0.766025006771088,-1.72935950756073,-0.425467640161514
0,0.0680555564078778,-0.00694444498106275,1.00972225967599,-0.750447928905487,-0.568715572357178,-0.958752989768982
0,0.172222228844576,-0.0597222233422998,1.01666671909226,-0.898277342319489,0.500909507274628,-1.03022420406342
0,0.286111120152123,-0.0944444474878658,0.986111194908388,-0.620944499969482,1.1734721660614,-0.6722571849823
0,0.286111120152123,-0.136111112815755,0.952777789710289,-0.447458803653717,1.41262590885162,-0.388815730810165
0,0.250000004123303,-0.130555557438704,0.962500032893068,-0.31703907251358,0.882394850254059,-0.452651143074036
0,0.20972223675665,-0.14722222356986,0.986111194908388,-0.133474051952362,0.757778346538544,-0.609948933124542
0,0.195833342236038,-0.125000002061652,0.976388951725609,-0.0995710343122482,0.468228220939636,-0.630718350410461
0,0.265277790527169,-0.111111119697004,0.93750007624221,0.0861319974064827,-0.168293371796608,-0.398589581251144
0,0.411111122213775,-0.0680555564078778,0.915277806110144,0.405003666877747,0.178067222237587,0.01191187184304
0,0.408333338447267,-0.0569444456537738,0.923611157409668,0.436157792806625,0.520762622356415,0.149051114916802
0,0.327777779402031,-0.055555559848502,0.969444492309338,0.118813291192055,0.244956970214844,0.164628177881241
0,0.265277790527169,-0.0791666671619817,1.00000001649321,-0.0109955742955208,0.147523954510689,0.102014496922493
0,0.272222225631511,-0.113888891307548,0.994444448960196,0.0616973899304867,-0.0766635909676552,0.144775062799454
0,0.304166666010569,-0.125000002061652,0.991666665193688,0.226325571537018,-0.172569438815117,0.178678080439568
0,0.311111125426839,-0.123611110178398,0.983333411141879,0.31245756149292,-0.233655959367752,0.239153742790222
0,0.256944463539574,-0.105555564319952,0.983333411141879,0.17989981174469,-0.26419922709465,0.277332812547684
0,0.194444450352783,-0.0902777839940679,0.983333411141879,0.0439822971820831,-0.348193198442459,0.12705996632576
0,0.190277786858986,-0.0958333393711199,0.993055557076942,0.138971850275993,-0.157908663153648,-0.01191187184304
0,0.220833347510754,-0.116666675074056,1.00555558402623,0.263588339090347,0.10048733651638,-0.0152716310694814
0,0.272222225631511,-0.122222230451108,1.02083339474202,0.178678080439568,0.432492583990097,0.0442877300083637
0,0.270833333748257,-0.102777780553444,1.0125000434425,0.0763581544160843,0.556192815303802,0.154243469238281
0,0.220833347510754,-0.0916666697993398,0.976388951725609,-0.027488935738802,0.149051114916802,0.308486938476563
0,0.176388892338373,-0.0944444474878658,0.941666654644256,0.101403631269932,-0.459065228700638,0.341473668813705
0,0.13750000469901,-0.0944444474878658,0.95000000594378,0.267864406108856,-0.293215304613113,0.266642689704895
0,0.169444445078067,-0.0805555590452358,0.954166681593543,0.409890592098236,-0.0937678143382072,0.113010071218014
0,0.187500003092477,-0.0791666671619817,0.947222222177272,0.423940479755402,-0.0809396430850029,0.0109955742955208
0,0.166666673467524,-0.0847222225390337,0.952777789710289,0.502436637878418,0.222965821623802,0.134390354156494
0,0.13750000469901,-0.0791666671619817,0.95000000594378,0.295658767223358,0.000916297896765172,0.212581098079681
0,0.0777777813567098,-0.0625000010308258,0.952777789710289,-0.0342084541916847,-0.698219001293182,0.106290549039841
0,0.0625000010308258,-0.055555559848502,0.933333400592447,-0.427605658769607,-1.89001703262329,0.12705996632576
0,0.181944447715425,-0.0430555572111439,0.927777833059431,-0.547946095466614,-1.91322994232178,-0.10598511993885
0,0.273611117514765,-0.052777782159976,0.906944454810619,-0.278554558753967,-0.988685369491577,-0.0632245540618896
0,0.330555563168539,-0.03194444645704,0.89166674134254,-0.146302223205566,-0.238848313689232,0.132863193750381
0,0.404166687109433,-0.00277777787846293,0.863888903677457,-0.272751331329346,-0.406225383281708,0.489913940429688
0,0.4194444735133,0.0361111129898289,0.838888947026599,-0.497855186462402,0.0387899428606033,1.19240891933441
0,0.413888905980283,0.0347222241455659,0.894444525109048,-0.51740288734436,1.20187735557556,1.68629348278046
0,0.344444457689151,0.03194444645704,0.888888957576031,-0.824668109416962,1.62612330913544,2.32312059402466
0,0.301388906555989,0.00555555575692586,0.884722281926269,-1.1878274679184,1.96057200431824,2.64351940155029
0,0.24583335278547,-0.163888889701015,0.863888903677457,-1.18996548652649,3.25316286087036,3.07937169075012
0,0.055555559848502,-0.279166685047782,0.738888925927735,-1.46393859386444,4.37807130813599,3.92175483703613
0,-0.0416666683668809,-0.236111109602691,0.694444482911319,-2.12031316757202,3.38602614402771,3.82645988464356
0,-0.0902777839940679,-0.318055560531181,0.725000007095193,-2.85304617881775,1.1878274679184,3.35609364509583
0,-0.0680555564078778,-0.441666695021508,0.754166688019672,-3.04730129241943,0.542142927646637,3.08731293678284
0,-0.372222246730376,-0.708333353120002,0.85138887672817,-1.73485732078552,-0.541226625442505,2.0790798664093
0,-0.372222246730376,-0.708333353120002,0.85138887672817,-0.0629191175103188,-4.28155469894409,1.76265168190002
0,-0.126388893944906,-0.490277813687686,1.07916665934326,1.47310149669647,-5.23175525665283,0.755334854125977
0,-0.134722233088466,-0.627777818386695,1.10416671324184,0.785878121852875,-2.14749670028686,-0.553749322891235
0,0.0388888906783549,-0.666666693870094,1.20972230187372,0.277943700551987,-3.8780779838562,-1.38330435752869
0,0.0388888906783549,-0.666666693870094,1.20972230187372,-0.312152147293091,-6.12697839736938,-2.60167503356934
0,0.351388892793493,-0.591666678045946,1.16111118320754,-1.44744515419006,-6.56955051422119,-3.32891011238098
0,0.49444444071359,-0.563888889004722,1.07222229717471,-1.06718158721924,-5.4672441482544,-3.20398831367493
0,0.573611132187501,-0.651388931778157,0.913888914226889,0.313068449497223,-3.99566960334778,-2.46606302261352
0,0.683333347845286,-0.58333337537028,0.723611115211939,0.662177920341492,-4.03934621810913,-1.65605568885803
0,0.806944482335612,-0.440277803138253,0.636111121062362,0.25870144367218,-4.52437353134155,-0.929126024246216
0,0.77638890952788,-0.426388884305712,0.637500012945616,0.0488692186772823,-5.43608999252319,-0.772439122200012
0,0.865277795560711,-0.333333346935047,0.538888932353864,-0.293826192617416,-6.81450700759888,-1.32160699367523
0,0.95000000594378,-0.215277779977737,0.354166676560001,-0.612392425537109,-8.34441947937012,-2.02807259559631
0,0.911111130460381,-0.170833336961321,0.258333331110899,0.319787949323654,-7.10314130783081,-2.65756916999817
0,0.697222266677827,-0.162500009973726,0.294444447139719,0.632550954818726,-4.50085496902466,-2.57601881027222
0,0.773611125761372,-0.158333334323963,0.0791666671619817,0.36529740691185,-5.05674266815186,-2.27302956581116
0,0.968055600426084,-0.14583334384257,0.0777777813567098,0.440739274024963,-4.06927871704102,-1.21470558643341
0,0.956944465360051,-0.118055554801345,0.0902777839940679,0.325285732746124,-3.3524284362793,0.150272846221924
0,0.879166714393253,-0.0847222225390337,0.0902777839940679,-0.294437050819397,-4.62211179733276,0.569937288761139
0,0.744444493460751,0.0541666679652478,-0.00972222266958873,-1.2012665271759,-3.25530099868774,0.366824567317963
0,0.866666687443965,0.0916666697993398,-0.108333335930496,-1.60535383224487,-0.8662069439888,-0.261450320482254
0,0.830555595727074,0.0375000018340919,-0.204166669223633,-1.38086092472076,-1.80113613605499,-0.00610865233466029
0,0.862500011794203,-0.0222222230277034,-0.212499996211229,-0.700357019901276,-3.54454565048218,0.244651526212692
0,0.95000000594378,-0.0194444453391775,-0.186111123365188,-0.0833831056952477,-3.03172421455383,0.945008516311646
0,1.14583337249175,0.0347222241455659,-0.243055569018962,-0.303600013256073,-2.32709121704102,1.28006815910339
0,1.17638889667562,0.0236111118719664,-0.318055560531181,-0.608421802520752,-1.31977438926697,1.42514860630035
0,1.1291666698927,0.0416666683668809,-0.366666679197359,-1.40101945400238,-1.43308985233307,1.51036429405212
0,0.887500065692777,0.0222222230277034,-0.487500029921177,-1.55159771442413,-2.9813277721405,1.58947134017944
0,0.877777822509998,-0.0125000003581147,-0.570833348420992,-1.26815629005432,-2.57052087783814,1.58550071716309
0,0.923611157409668,0.029166668768514,-0.575000024070755,-0.993266880512238,-0.669508337974548,1.79319489002228
0,0.887500065692777,-0.0777777813567098,-0.562499997121468,-0.576351344585419,1.0134254693985,1.22173047065735
0,0.841666730793107,-0.0944444474878658,-0.579166699720517,0.0879645943641663,1.31427657604218,0.419969856739044
0,0.87500003874349,-0.0722222259796579,-0.681944455962032,0.579711139202118,0.861014544963837,-0.198836639523506
0,0.879166714393253,-0.151388899219622,-0.6125000076709,0.796873688697815,0.46547931432724,-0.409890592098236
0,0.890277849459286,-0.159722226207217,-0.650000039894903,0.480750948190689,-0.716850340366364,-0.355829000473023
0,0.858333336144441,-0.20972223675665,-0.530555581054339,0.711963415145874,1.3200798034668,0.234266817569733
0,0.841666730793107,-0.259722222994153,-0.469444484062732,0.364686548709869,1.46210598945618,0.849713563919067
0,0.740277817810989,-0.300000014672736,-0.447222262554524,0.52228981256485,1.56961822509766,0.702495038509369
0,0.791666671619817,-0.388888900705567,-0.370833354847121,0.781907498836517,2.18170523643494,0.244651526212692
0,0.916666697993398,-0.252777787889811,-0.437500019371745,0.806036710739136,2.02807259559631,0.57757306098938
0,0.936111184358955,-0.0972222251763917,-0.529166689171085,0.260534018278122,0.932485818862915,0.474336862564087
0,0.916666697993398,-0.2194444556275,-0.390277792588821,-0.0149661982432008,1.68659889698029,0.673784375190735
0,0.743055601577497,-0.259722222994153,-0.297222230906227,-0.421191573143005,1.61482226848602,0.826195240020752
0,1.12777777800944,-0.206944452990142,-0.422222257279808,-1.03083515167236,0.169820532202721,-1.09833574295044
0,1.23611115040783,-0.363888895430851,-0.509722251429385,-0.218078896403313,0.459370672702789,-0.839939713478088
0,0.969444492309338,-0.243055569018962,-0.447222262554524,0.523206055164337,2.02440738677979,-0.481056392192841
0,0.861111119910949,-0.216666671860991,-0.348611133338914,0.461508691310883,2.06044840812683,-0.695470094680786
0,0.85138887672817,-0.156944454596674,-0.409722230330521,0.487470477819443,1.85825204849243,-0.999070107936859
0,1.12777777800944,-0.158333334323963,-0.361111135976272,-0.568715572357178,0.927293419837952,-0.909883797168732
0,1.13472223742571,-0.158333334323963,-0.311111125426839,0.0131336031481624,0.938289046287537,-0.497244298458099
0,1.03472221632685,-0.126388893944906,-0.241666677135707,-0.058643065392971,0.741284966468811,-0.109955742955208
0,0.805555590452358,-0.237500001485945,-0.158333334323963,-0.0739146918058395,0.754724025726318,0.00763581553474069
0,0.86805557932722,-0.268055574293678,-0.0513888902767219,0.0323758572340012,0.933096647262573,-0.166155353188515
0,1.01527782720901,-0.158333334323963,-0.159722226207217,0.311846703290939,0.408668845891953,-1.50059044361115
0,1.19305559927467,-0.0402777795226179,-0.280555576931036,0.118813291192055,0.660650789737701,-0.312763005495071
0,0.973611167959101,-0.0944444474878658,-0.200000005729836,0.206777885556221,0.822835505008698,0.36987891793251
0,0.959722249126559,-0.159722226207217,0.00972222266958873,0.0913243517279625,0.847575545310974,0.249233022332191
0,1.0361111082101,-0.250000004123303,-0.00138888893923146,-0.674395203590393,-0.114842668175697,-0.508545339107513
0,0.930555616825939,-0.118055554801345,-0.0583333375370279,0.248316720128059,0.0635299831628799,0.787710726261139
0,1.18194446420864,-0.166666673467524,-0.184722231481934,0.415693789720535,-0.0458148941397667,0.298102229833603
0,1.10972228077486,-0.0930555616825939,-0.180555567988136,0.196393176913261,-0.0852157026529312,0.439822971820831
0,0.895833319744586,-0.104166672436698,-0.141666668192807,0.203418120741844,0.190895393490791,0.726318776607513
0,0.956944465360051,-0.141666668192807,-0.120833338567854,0.147523954510689,-0.0244346093386412,0.943786799907684
0,1.21250008564023,-0.273611117514765,-0.179166676104882,0.383623361587524,0.159741267561913,0.171347707509995
0,1.21250008564023,-0.273611117514765,-0.179166676104882,0.04764748737216,0.437990367412567,0.0433714315295219
0,1.01666671909226,-0.236111109602691,-0.111111119697004,-0.472504258155823,1.34879040718079,-0.142637029290199
0,0.965277816659576,-0.180555567988136,-0.0152777788063885,0.0351247526705265,-0.198531210422516,0.104152522981167
0,0.965277816659576,-0.180555567988136,-0.0152777788063885,-0.0500909499824047,-0.18539759516716,-0.0256563406437635
0,1.00277780025972,-0.236111109602691,-0.0833333367337618,0.0146607663482428,-0.268780708312988,-0.0140499006956816
0,1.01805561097552,-0.216666671860991,-0.1194444466846,-0.0448985956609249,0.0027488935738802,-0.0433714315295219
0,1.01805561097552,-0.216666671860991,-0.1194444466846,0.0412334054708481,-0.133168622851372,-0.0265726372599602
0,1.00694447590948,-0.208333344873396,-0.0819444448505077,0.0265726372599602,-0.0638354197144508,-0.0763581544160843
0,1.00833336779274,-0.198611113846581,-0.106944444047242,-0.00763581553474069,0.100792765617371,-0.0922406539320946
0,1.00833336779274,-0.198611113846581,-0.106944444047242,-0.30146199464798,0.675616979598999,-0.18539759516716
0,0.96666670854283,-0.20138889761309,-0.156944454596674,-0.0916297882795334,0.393091797828674,-0.199447497725487
0,0.98888888142718,-0.202777789496344,-0.0361111129898289,-0.0360410511493683,0.273362189531326,-0.213497400283814
0,0.98888888142718,-0.202777789496344,-0.0361111129898289,-0.0503963828086853,0.0632245540618896,-0.586430609226227
0,0.977777843608863,-0.193055558469529,-0.0458333348996699,-0.130725160241127,0.161268427968025,-0.679282128810883
0,1.0333333244436,-0.18333333959868,-0.0958333393711199,-0.145996794104576,0.285274058580399,-0.605978310108185
0,1.00416669214298,-0.197222234119292,-0.108333335930496,-0.318566232919693,0.511294186115265,-0.675311505794525
0,0.965277816659576,-0.170833336961321,-0.0944444474878658,-0.132557764649391,0.550389587879181,-0.648433446884155
0,1.03194452980806,-0.12777778582816,-0.055555559848502,0.0189368221908808,0.458148926496506,-0.400727599859238
0,1.04861113515939,-0.101388894748172,-0.0416666683668809,-0.0247400421649218,0.272140473127365,-0.334143280982971
0,1.02222228662528,-0.113888891307548,-0.0208333341834404,0.0284052342176437,0.265115529298782,-0.465784758329391
0,0.984722303025134,-0.102777780553444,-0.00972222266958873,-0.0198531206697226,0.116675265133381,-0.372322380542755
0,1.00555558402623,-0.0875000002275597,-0.0194444453391775,-0.0635299831628799,0.200058370828629,-0.386983126401901
0,1.00138890837647,-0.12916666555545,-0.033333335301303,0.0513126812875271,0.250760197639465,-0.540615737438202
0,0.975000059842355,-0.0625000010308258,0.0166666676506515,0.127365410327911,0.155465200543404,-0.554665625095367
0,0.923611157409668,-0.0625000010308258,0.0208333341834404,-0.0241291765123606,-0.209221348166466,-0.234877690672875
0,1.09861114570882,-0.0819444448505077,-0.0694444482911319,-0.284052342176437,0.015577063895762,-0.569020986557007
0,1.06388894587519,-0.033333335301303,-0.027777779924251,-0.177150920033455,0.220522359013557,-0.298713117837906
0,1.06527783775844,-0.055555559848502,-0.0430555572111439,-0.03176499158144,0.481056392192841,-0.17409659922123
0,0.872222254976982,-0.0597222233422998,-0.00833333382532574,0.171958565711975,0.56169056892395,0.328034639358521
0,0.795833347269579,-0.033333335301303,0.0694444482911319,0.299018532037735,0.336586743593216,0.672868072986603
0,0.795833347269579,-0.033333335301303,0.0694444482911319,0.124921940267086,0.138666406273842,0.474947720766068
0,1.01666671909226,-0.0472222237439329,0.033333335301303,0.139888137578964,-0.0598647929728031,0.733038306236267
0,1.07916665934326,-0.0430555572111439,0.00416666691266287,0.0830776765942574,0.058643065392971,0.637437880039215
0,1.04444445950963,-0.0972222251763917,0.00138888893923146,0.118202425539494,0.179288953542709,0.583070874214172
0,1.00972225967599,-0.116666675074056,0.0194444453391775,0.225409269332886,0.383623361587524,0.537866830825806
0,1.02916674604155,-0.120833338567854,0.0194444453391775,0.230907067656517,0.518624603748322,0.399200439453125
0,1.07638897282447,-0.141666668192807,-0.00138888893923146,0.155159771442413,0.524122357368469,0.246178686618805
0,1.02083339474202,-0.134722233088466,0.0361111129898289,0.015577063895762,0.62002819776535,0.127365410327911
0,1.11388895642462,-0.150000007336368,0.0513888902767219,0.0378736443817616,0.521373510360718,0.0219911485910416
0,1.11666674019113,-0.15555556271342,0.0722222259796579,0.0287106670439243,0.397673279047012,-0.0751364231109619
0,1.09444447005906,-0.123611110178398,0.0486111125881959,0.0409279726445675,0.441044718027115,-0.0491746515035629
0,1.02500007039179,-0.108333335930496,0.0958333393711199,0.0452040284872055,0.318871647119522,0.000610865245107561
0,1.05694448645892,-0.126388893944906,0.0722222259796579,-0.00916297826915979,0.304210901260376,-0.0198531206697226
0,1.0125000434425,-0.12777778582816,0.101388894748172,-0.0320704244077206,0.374154955148697,0.0497855171561241
0,0.993055557076942,-0.161111118090472,0.108333335930496,0.0681114718317986,0.267864406108856,0.0665843114256859
0,1.01111115155925,-0.13750000469901,0.113888891307548,0.0479529201984406,0.270918726921081,0.017409659922123
0,1.0333333244436,-0.120833338567854,0.113888891307548,0.0458148941397667,0.219300627708435,-0.0189368221908808
0,1.02777785415829,-0.14722222356986,0.111111119697004,0.0720821022987366,0.217773467302322,-0.0442877300083637
0,1.03472221632685,-0.162500009973726,0.10972222781375,0.0681114718317986,0.198225766420364,-0.0546724386513233
0,1.0125000434425,-0.14583334384257,0.122222230451108,0.0766635909676552,0.106290549039841,-0.0412334054708481
0,0.997222232726705,-0.125000002061652,0.13750000469901,0.142637029290199,-0.160046696662903,0.0607810914516449
0,1.02222228662528,-0.122222230451108,0.126388893944906,0.0610865242779255,-0.209526777267456,0.0421497002243996
0,1.04305556762637,-0.136111112815755,0.108333335930496,0.0262672062963247,-0.0167987942695618,-0.0409279726445675
0,1.02916674604155,-0.118055554801345,0.0958333393711199,0.0598647929728031,0.11087204515934,-0.08460483700037
0,1.03194452980806,-0.111111119697004,0.101388894748172,-0.0198531206697226,0.27458393573761,0.00580321997404099
0,1.00277780025972,-0.113888891307548,0.141666668192807,0.027488935738802,0.205861583352089,0.0623082555830479
0,1.00277780025972,-0.113888891307548,0.141666668192807,0.0360410511493683,0.0277943685650826,-0.0320704244077206
0,0.99583334084345,-0.140277788465518,0.14583334384257,-0.0128281703218818,-0.0409279726445675,-0.0812450796365738
0,1.02222228662528,-0.13750000469901,0.118055554801345,-0.0806342139840126,-0.117591559886932,-0.113010071218014
0,1.01111115155925,-0.118055554801345,0.120833338567854,-0.0739146918058395,-0.0910189226269722,-0.0711658000946045
0,1.00000001649321,-0.102777780553444,0.125000002061652,-0.00855211354792118,-0.0314595587551594,-0.000916297896765172
0,1.02916674604155,-0.12777778582816,0.106944444047242,-0.00794124789535999,-0.00427605677396059,0.00305432616733015
0,1.0305556379248,-0.126388893944906,0.0986111170596459,-0.087659165263176,-0.0222965814173222,-0.00702495034784079
0,1.02500007039179,-0.116666675074056,0.131944449321958,-0.0256563406437635,-0.161879286170006,-0.0293215326964855
0,1.0125000434425,-0.108333335930496,0.151388899219622,-0.0980438739061356,-0.397062420845032,-0.0467311926186085
0,1.0125000434425,-0.108333335930496,0.151388899219622,-0.0980438739061356,-0.397062420845032,-0.0467311926186085
0,1.07500008094122,-0.159722226207217,0.154166670830166,-0.132557764649391,-0.795651972293854,-0.100181899964809
0,1.07083340529146,-0.104166672436698,0.138888896582264,-0.0723875313997269,-0.806036710739136,-0.0384845100343227
0,1.09444447005906,-0.0791666671619817,-0.243055569018962,0.373238652944565,1.94255149364471,0.119424156844616
0,1.02361117850853,-0.115277783190802,-0.0416666683668809,0.126143679022789,1.19637954235077,0.270307868719101
0,1.00000001649321,-0.0750000036681839,-0.104166672436698,-0.272445887327194,0.598342478275299,0.0125227374956012
0,0.904166671044111,-0.150000007336368,0.262500006760661,-0.0736092627048492,-0.160352125763893,0.0177150927484035
0,1.05833337834217,-0.150000007336368,0.125000002061652,-0.0366519130766392,0.0424551330506802,-0.0809396430850029
0,1.0513889189259,-0.150000007336368,0.15555556271342,-0.01588249579072,-0.134084925055504,0.0128281703218818
0,0.956944465360051,-0.125000002061652,0.177777784221628,0.0180205255746841,-0.0125227374956012,0.0113010071218014
0,1.02083339474202,-0.144444451959316,0.113888891307548,-0.00794124789535999,0.0143553335219622,0.00305432616733015
0,1.02916674604155,-0.138888896582264,0.13750000469901,-0.00152716308366507,-0.0027488935738802,-0.0213802829384804
0,1.01944450285877,-0.130555557438704,0.141666668192807,0.0494800843298435,0.0717766657471657,0.00244346098043024
0,1.0125000434425,-0.131944449321958,0.13750000469901,0.0616973899304867,0.000305432622553781,-0.0198531206697226
0,1.02361117850853,-0.106944444047242,0.116666675074056,0.0974330082535744,-0.0183259565383196,0.037568211555481
0,0.993055557076942,-0.12777778582816,0.115277783190802,-0.102930791676045,-0.0128281703218818,0.0152716310694814
0,0.99583334084345,-0.130555557438704,0.144444451959316,-0.00702495034784079,-0.0335975885391235,-0.000305432622553781
0,1.01944450285877,-0.131944449321958,0.138888896582264,0.0256563406437635,0.0122173046693206,0.0103847095742822
0,1.02500007039179,-0.126388893944906,0.125000002061652,0.00977384392172098,0.0448985956609249,-0.00885754637420177
0,1.01944450285877,-0.116666675074056,0.180555567988136,0.0339030213654041,0.0161879286170006,-0.0424551330506802
0,0.997222232726705,-0.100000002864918,0.10972222781375,-0.112093769013882,-0.0229074470698834,0.00519235478714108
0,1.00833336779274,-0.116666675074056,0.130555557438704,-0.08460483700037,0.0800233483314514,-0.0106901414692402
0,1.00416669214298,-0.12777778582816,0.143055560076062,-0.0378736443817616,0.00244346098043024,0.0268780700862408
0,0.99583334084345,-0.166666673467524,0.162500009973726,0.11636982858181,0.166155353188515,-0.0565050356090069
0,1.00694447590948,-0.133333341205212,0.140277788465518,-0.0461203269660473,0.0577267669141293,-0.0167987942695618
0,0.980555627375371,-0.113888891307548,0.150000007336368,-0.108428582549095,-0.111482910811901,0.0186313893646002
0,1.0333333244436,-0.1194444466846,0.120833338567854,-0.0650571510195732,0.157603234052658,0.00916297826915979
0,1.00138890837647,-0.156944454596674,0.140277788465518,0.00488692196086049,0.0638354197144508,0.0161879286170006
0,1.00972225967599,-0.112499999424294,0.143055560076062,0.0620028227567673,0.090408056974411,-0.0021380283869803
0,1.01944450285877,-0.113888891307548,0.131944449321958,-0.00549778714776039,0.115148097276688,-0.0314595587551594
0,1.02638896227504,-0.120833338567854,0.126388893944906,-0.146913096308708,0.186313897371292,-0.0757472887635231
0,1.02638896227504,-0.120833338567854,0.126388893944906,-0.103847093880177,0.228158175945282,-0.0711658000946045
0,1.04027778385987,-0.154166670830166,0.14722222356986,0.0268780700862408,0.157908663153648,-0.00152716308366507
0,0.948611114060526,-0.134722233088466,0.166666673467524,0.102625362575054,-0.157603234052658,0.0485637858510017
0,0.948611114060526,-0.134722233088466,0.166666673467524,0.104457959532738,-0.154854342341423,0.00671951752156019
0,1.01805561097552,-0.151388899219622,0.0972222251763917,0.0293215326964855,-0.0204639863222837,-0.0601702257990837
0,1.0333333244436,-0.116666675074056,0.115277783190802,0.0861319974064827,-0.0974330082535744,0.0497855171561241
0,1.01527782720901,-0.112499999424294,0.150000007336368,0.00885754637420177,-0.15851953625679,0.103541657328606
0,0.973611167959101,-0.108333335930496,0.170833336961321,0.120340451598167,-0.318566232919693,0.130725160241127
0,1.03194452980806,-0.12777778582816,0.184722231481934,0.278554558753967,-0.34880405664444,0.0400116741657257
0,1.04583335139288,-0.1194444466846,0.115277783190802,0.286495804786682,-0.347887754440308,0.0164933614432812
0,1.06666672964169,-0.0888888921108138,0.143055560076062,0.101098194718361,-0.521678924560547,0.0650571510195732
0,1.0361111082101,-0.0847222225390337,0.156944454596674,-0.107512280344963,-0.635910749435425,0.154548913240433
0,1.04305556762637,-0.118055554801345,0.0708333340964038,-0.164628177881241,-0.4914411008358,0.137750118970871
0,1.02916674604155,-0.14583334384257,0.0638888929140799,-0.0635299831628799,-0.201585531234741,0.0595593601465225
0,0.983333411141879,-0.163888889701015,0.0666666706026059,0.0149661982432008,-0.173791155219078,0.000305432622553781
0,0.990277773310434,-0.144444451959316,0.105555564319952,0.0244346093386412,-0.335670441389084,-0.0580321997404099
0,1.04861113515939,-0.154166670830166,0.0638888929140799,0.070249505341053,-0.194560587406159,-0.115758962929249
0,1.01944450285877,-0.134722233088466,0.0513888902767219,0.0394008085131645,-0.166766211390495,-0.0555887371301651
0,0.976388951725609,-0.123611110178398,0.123611110178398,0.200058370828629,-0.394313514232635,0.113315500319004
0,1.00277780025972,-0.112499999424294,0.0750000036681839,0.223271250724793,-0.384845107793808,0.118507854640484
0,1.02916674604155,-0.134722233088466,0.0250000007162294,0.151189148426056,-0.204334422945976,0.0189368221908808
0,1.05833337834217,-0.13750000469901,0.00416666691266287,-0.0241291765123606,-0.0387899428606033,-0.0766635909676552
0,1.04166667574312,-0.122222230451108,0.0250000007162294,-0.0152716310694814,0.0537561401724815,0.00152716308366507
5,1.02083339474202,-0.120833338567854,0.0652777787193518,0.087659165263176,0.0561996027827263,0.0671951770782471
5,1.01527782720901,-0.10972222781375,0.055555559848502,0.0482583530247212,0.0314595587551594,0.0561996027827263
5,1.00972225967599,-0.126388893944906,0.0458333348996699,0.0146607663482428,0.125838235020638,-0.0604756586253643
5,1.04583335139288,-0.134722233088466,-0.00694444498106275,-0.0592539273202419,0.244040668010712,-0.100792765617371
5,1.07500008094122,-0.140277788465518,0.0222222230277034,-0.0766635909676552,0.964250802993774,-0.116675265133381
5,0.983333411141879,-0.120833338567854,0.123611110178398,-0.120340451598167,0.569020986557007,-0.00794124789535999
5,0.991666665193688,-0.125000002061652,0.0847222225390337,-0.1795943826437,0.48685958981514,-0.0751364231109619
5,0.998611124609959,-0.113888891307548,0.181944447715425,-0.129503428936005,0.0149661982432008,-0.0284052342176437
5,1.07222229717471,-0.120833338567854,0.0902777839940679,-0.0552833043038845,0.309708684682846,-0.0027488935738802
5,1.05277781080915,-0.17361112072783,0.106944444047242,-0.0919352173805237,0.480140089988708,-0.00977384392172098
5,0.986111194908388,-0.163888889701015,0.170833336961321,0.170736834406853,0.232128798961639,-0.0226020142436027
5,0.954166681593543,-0.118055554801345,0.140277788465518,0.078801617026329,0.115148097276688,-0.0293215326964855
5,0.973611167959101,-0.125000002061652,0.120833338567854,-0.0207694191485643,-0.16890424489975,0.000610865245107561
5,1.00138890837647,-0.166666673467524,0.122222230451108,0.0494800843298435,-0.207083314657211,-0.0363464802503586
5,1.00138890837647,-0.138888896582264,0.118055554801345,0.0986547395586967,-0.111788339912891,-0.103541657328606
5,1.01527782720901,-0.108333335930496,0.123611110178398,0.0842994004487991,-0.0348193198442459,0.0134390350431204
5,1.04444445950963,-0.111111119697004,0.150000007336368,0.101709060370922,0.0531452745199203,0.0983493030071259
5,1.05555559457566,-0.131944449321958,0.144444451959316,0.064446285367012,0.0384845100343227,0.0400116741657257
5,1.05555559457566,-0.131944449321958,0.144444451959316,0.0778853222727776,0.00733038317412138,-0.000916297896765172
5,1.02361117850853,-0.122222230451108,0.0763888894734557,-0.142942473292351,0.0650571510195732,-0.00671951752156019
5,1.02361117850853,-0.112499999424294,0.113888891307548,-0.148134827613831,0.406225383281708,0.0763581544160843
5,1.02361117850853,-0.112499999424294,0.113888891307548,0.103541657328606,-0.0507018156349659,0.0436768643558025
5,1.00000001649321,-0.134722233088466,0.12916666555545,0.00305432616733015,0.0125227374956012,-0.00427605677396059
5,0.997222232726705,-0.052777782159976,0.0625000010308258,0.0729983970522881,0.0601702257990837,0.0103847095742822
5,0.997222232726705,-0.052777782159976,0.0625000010308258,0.0134390350431204,0.0433714315295219,-0.0412334054708481
5,1.00555558402623,-0.130555557438704,0.120833338567854,0.0265726372599602,-0.00977384392172098,-0.0161879286170006
5,1.0125000434425,-0.125000002061652,0.125000002061652,0.0277943685650826,0.00305432616733015,-0.0021380283869803
5,1.0125000434425,-0.125000002061652,0.125000002061652,0.0106901414692402,0.00152716308366507,0.00580321997404099
5,1.01805561097552,-0.120833338567854,0.125000002061652,-0.00702495034784079,0.000610865245107561,-0.00488692196086049
5,1.00972225967599,-0.1194444466846,0.12916666555545,-0.0143553335219622,-0.0027488935738802,0.00305432616733015
5,1.00972225967599,-0.1194444466846,0.12916666555545,-0.0125227374956012,0.00122173049021512,0.00580321997404099
5,1.01388893532575,-0.134722233088466,0.12777778582816,-0.00855211354792118,0.00488692196086049,-0.00244346098043024
5,1.01527782720901,-0.140277788465518,0.12916666555545,-0.00855211354792118,0.00702495034784079,0.00305432616733015
5,1.01527782720901,-0.13750000469901,0.120833338567854,-0.0109955742955208,0.00549778714776039,-0.000610865245107561
5,1.01527782720901,-0.134722233088466,0.120833338567854,-0.00763581553474069,-0.000610865245107561,-0.000305432622553781
5,1.01388893532575,-0.133333341205212,0.122222230451108,-0.00855211354792118,-0.00488692196086049,0.00580321997404099
5,1.01805561097552,-0.14583334384257,0.122222230451108,0.0027488935738802,-0.0021380283869803,0.00885754637420177
5,1.01666671909226,-0.141666668192807,0.125000002061652,0.013744467869401,-0.00152716308366507,-0.00549778714776039
5,1.01111115155925,-0.134722233088466,0.130555557438704,0.0277943685650826,-0.00610865233466029,0.0045814891345799
5,1.0125000434425,-0.134722233088466,0.134722233088466,0.0152716310694814,-0.00519235478714108,0.0027488935738802
5,1.01666671909226,-0.126388893944906,0.12777778582816,0.0143553335219622,-0.000305432622553781,0.00488692196086049
5,1.0125000434425,-0.126388893944906,0.12916666555545,0.0109955742955208,-0.00305432616733015,0.00855211354792118
5,1.0125000434425,-0.12916666555545,0.12916666555545,-0.00305432616733015,-0.000916297896765172,0.00977384392172098
5,1.01805561097552,-0.12777778582816,0.126388893944906,-0.0027488935738802,-0.00702495034784079,0.0045814891345799
5,1.01666671909226,-0.123611110178398,0.125000002061652,0.00122173049021512,0.00397062394768,0.0100792767480016
5,1.01666671909226,-0.125000002061652,0.125000002061652,-0.000610865245107561,-0.00183259579353034,0.00794124789535999
5,1.01527782720901,-0.12777778582816,0.122222230451108,0.00702495034784079,-0.0033597587607801,0.0106901414692402
5,1.01944450285877,-0.122222230451108,0.1194444466846,0.00641408516094089,0.00916297826915979,-0.00244346098043024
5,1.01527782720901,-0.133333341205212,0.122222230451108,0.0109955742955208,-0.00122173049021512,0.00152716308366507
5,1.01527782720901,-0.133333341205212,0.122222230451108,0.0128281703218818,-0.01191187184304,0.00549778714776039
5,1.01527782720901,-0.12916666555545,0.134722233088466,0.0128281703218818,-0.000305432622553781,-0.00244346098043024
5,1.01805561097552,-0.12916666555545,0.122222230451108,0.00946841109544039,-0.00549778714776039,0.00671951752156019
5,1.01805561097552,-0.12916666555545,0.122222230451108,0.00671951752156019,-0.0033597587607801,0.00427605677396059
5,1.01527782720901,-0.133333341205212,0.125000002061652,0.00824668072164059,-0.00427605677396059,0.00305432616733015
5,1.01666671909226,-0.131944449321958,0.130555557438704,0.00885754637420177,-0.00244346098043024,0.00366519158706069
5,1.01666671909226,-0.131944449321958,0.130555557438704,0.00702495034784079,-0.00244346098043024,0.00885754637420177
5,1.01527782720901,-0.134722233088466,0.130555557438704,0.00641408516094089,-0.0113010071218014,0.00427605677396059
5,1.0125000434425,-0.12777778582816,0.12777778582816,0.00916297826915979,-0.00671951752156019,0.0045814891345799
5,1.0125000434425,-0.12777778582816,0.130555557438704,0.00641408516094089,-0.00885754637420177,0.00366519158706069
5,1.01527782720901,-0.12777778582816,0.130555557438704,0.00733038317412138,-0.011606439948082,0.00183259579353034
5,1.01527782720901,-0.130555557438704,0.126388893944906,0.00488692196086049,-0.00397062394768,0.00305432616733015
5,1.01388893532575,-0.130555557438704,0.126388893944906,0.00733038317412138,-0.00488692196086049,0.00824668072164059
5,1.01111115155925,-0.130555557438704,0.133333341205212,0.00977384392172098,-0.00916297826915979,-0.00305432616733015
5,1.01805561097552,-0.131944449321958,0.125000002061652,0.0033597587607801,-0.00488692196086049,-0.00183259579353034
5,1.01805561097552,-0.130555557438704,0.122222230451108,0.00549778714776039,-0.00671951752156019,-0.00580321997404099
5,1.01527782720901,-0.12777778582816,0.123611110178398,0.00610865233466029,-0.00824668072164059,0.000916297896765172
5,1.01527782720901,-0.130555557438704,0.125000002061652,-0.00855211354792118,-0.00549778714776039,0.00305432616733015
5,1.01527782720901,-0.125000002061652,0.134722233088466,-0.00733038317412138,-0.00702495034784079,-0.000610865245107561
5,1.01388893532575,-0.130555557438704,0.12777778582816,-0.013744467869401,0.00122173049021512,0.00885754637420177
5,1.0125000434425,-0.130555557438704,0.120833338567854,-0.00397062394768,-0.000610865245107561,0.00733038317412138
5,1.01666671909226,-0.133333341205212,0.120833338567854,-0.00519235478714108,-0.00580321997404099,0.00183259579353034
5,1.01805561097552,-0.138888896582264,0.120833338567854,-0.00855211354792118,-0.00641408516094089,0.00610865233466029
5,1.01805561097552,-0.133333341205212,0.123611110178398,-0.00733038317412138,-0.00763581553474069,0.00427605677396059
5,1.0125000434425,-0.131944449321958,0.1194444466846,-0.00977384392172098,-0.00763581553474069,-0.0033597587607801
5,1.0125000434425,-0.130555557438704,0.12777778582816,-0.01191187184304,-0.00855211354792118,-0.00549778714776039
5,1.01666671909226,-0.130555557438704,0.126388893944906,-0.0180205255746841,-0.00183259579353034,-0.00702495034784079
5,1.02083339474202,-0.130555557438704,0.130555557438704,-0.02382374368608,-0.0021380283869803,0.00549778714776039
5,1.01944450285877,-0.134722233088466,0.120833338567854,-0.0183259565383196,-0.00152716308366507,-0.00122173049021512
5,1.0125000434425,-0.140277788465518,0.123611110178398,-0.0140499006956816,-0.00885754637420177,0.00488692196086049
5,1.0125000434425,-0.14583334384257,0.133333341205212,-0.00183259579353034,-0.00702495034784079,-0.00152716308366507
5,1.01666671909226,-0.14722222356986,0.130555557438704,0.01588249579072,0.00580321997404099,0.00671951752156019
5,1.01666671909226,-0.144444451959316,0.134722233088466,0.0259617734700441,-0.000916297896765172,0.00610865233466029
5,1.01805561097552,-0.141666668192807,0.123611110178398,0.03176499158144,0.000610865245107561,0.00855211354792118
5,1.01527782720901,-0.136111112815755,0.125000002061652,0.0265726372599602,-0.00794124789535999,-0.00733038317412138
5,1.01527782720901,-0.136111112815755,0.125000002061652,0.0265726372599602,0.00549778714776039,0.00671951752156019
5,1.01805561097552,-0.136111112815755,0.125000002061652,0.0265726372599602,0.0167987942695618,0.000305432622553781
5,1.02083339474202,-0.131944449321958,0.116666675074056,0.0219911485910416,0.0247400421649218,-0.00549778714776039
5,1.02083339474202,-0.131944449321958,0.116666675074056,0.0171042270958424,0.0198531206697226,-0.00549778714776039
5,1.02083339474202,-0.12777778582816,0.116666675074056,0.0100792767480016,0.0140499006956816,-0.00366519158706069
5,1.01111115155925,-0.1194444466846,0.125000002061652,0.0122173046693206,0.0122173046693206,-0.0128281703218818
5,1.00833336779274,-0.1194444466846,0.133333341205212,-0.000610865245107561,0.00366519158706069,0.00122173049021512
5,1.02222228662528,-0.12777778582816,0.122222230451108,0.00397062394768,0.00916297826915979,0.00366519158706069
5,1.02222228662528,-0.12777778582816,0.122222230451108,0.011606439948082,0.011606439948082,-0.00916297826915979
5,1.01944450285877,-0.131944449321958,0.116666675074056,0.017409659922123,0.0134390350431204,-0.00305432616733015
5,1.01527782720901,-0.133333341205212,0.125000002061652,0.01191187184304,0.00916297826915979,-0.00122173049021512
5,1.01388893532575,-0.120833338567854,0.12916666555545,0.00824668072164059,0.00671951752156019,-0.0106901414692402
5,1.0125000434425,-0.116666675074056,0.125000002061652,-0.00305432616733015,0.00305432616733015,-0.00366519158706069
5,1.01666671909226,-0.118055554801345,0.125000002061652,-0.00305432616733015,0.00519235478714108,-0.0128281703218818
5,1.01527782720901,-0.118055554801345,0.12777778582816,-0.0235183127224445,0.00855211354792118,-0.0122173046693206
5,1.01944450285877,-0.115277783190802,0.118055554801345,-0.0403171069920063,0.00733038317412138,-0.019547687843442
5,1.01805561097552,-0.104166672436698,0.134722233088466,-0.0650571510195732,-0.00366519158706069,-0.0314595587551594
5,1.01805561097552,-0.106944444047242,0.125000002061652,-0.0940732508897781,0.00244346098043024,-0.0351247526705265
5,1.0125000434425,-0.104166672436698,0.118055554801345,-0.11117747426033,0.00916297826915979,-0.0192422550171614
5,1.01388893532575,-0.113888891307548,0.130555557438704,-0.110261179506779,-0.0021380283869803,-0.0268780700862408
5,1.0125000434425,-0.118055554801345,0.131944449321958,-0.104457959532738,-0.00305432616733015,-0.0229074470698834
5,1.01527782720901,-0.12777778582816,0.122222230451108,-0.0977384373545647,-0.00641408516094089,-0.0189368221908808
5,1.0125000434425,-0.133333341205212,0.116666675074056,-0.0937678143382072,0.00549778714776039,-0.0326812900602817
5,1.01666671909226,-0.140277788465518,0.12777778582816,-0.0971275717020035,0.000610865245107561,-0.0326812900602817
5,1.01527782720901,-0.136111112815755,0.12777778582816,-0.0748309940099716,0.0125227374956012,-0.0372627787292004
5,1.0125000434425,-0.13750000469901,0.130555557438704,-0.0769690200686455,0.00122173049021512,-0.037568211555481
5,1.0125000434425,-0.12777778582816,0.125000002061652,-0.0656680166721344,0.000610865245107561,-0.0320704244077206
5,1.01944450285877,-0.120833338567854,0.126388893944906,-0.0662788823246956,0.00977384392172098,-0.0326812900602817
5,1.0125000434425,-0.126388893944906,0.13750000469901,-0.070249505341053,0.00641408516094089,-0.0198531206697226
5,1.01111115155925,-0.133333341205212,0.1194444466846,-0.0662788823246956,-0.0021380283869803,-0.0186313893646002
5,1.01666671909226,-0.130555557438704,0.116666675074056,-0.0604756586253643,-0.0033597587607801,-0.0109955742955208
5,1.02083339474202,-0.12777778582816,0.125000002061652,-0.0629191175103188,-0.00183259579353034,-0.0113010071218014
5,1.01944450285877,-0.125000002061652,0.122222230451108,-0.0604756586253643,0.000916297896765172,-0.0033597587607801
5,1.01527782720901,-0.12777778582816,0.12777778582816,-0.0531452745199203,0.00244346098043024,-0.00366519158706069
5,1.01666671909226,-0.131944449321958,0.1194444466846,-0.0537561401724815,0.00580321997404099,-0.01191187184304
5,1.01527782720901,-0.131944449321958,0.126388893944906,-0.0378736443817616,-0.00122173049021512,-0.0207694191485643
5,1.0125000434425,-0.131944449321958,0.120833338567854,-0.0332921557128429,0.00824668072164059,-0.0134390350431204
5,1.0125000434425,-0.134722233088466,0.120833338567854,-0.0311541277915239,-0.00549778714776039,-0.0027488935738802
5,1.0125000434425,-0.134722233088466,0.122222230451108,-0.0262672062963247,0.0033597587607801,-0.00671951752156019
5,1.01527782720901,-0.133333341205212,0.12777778582816,-0.0103847095742822,0.00122173049021512,0.00794124789535999
5,1.01527782720901,-0.136111112815755,0.120833338567854,0.00305432616733015,-0.00366519158706069,0.0131336031481624
5,1.01805561097552,-0.134722233088466,0.120833338567854,0.0164933614432812,0.00152716308366507,0.0177150927484035
5,1.01111115155925,-0.130555557438704,0.125000002061652,0.0189368221908808,-0.00397062394768,0.01588249579072
5,1.0125000434425,-0.12916666555545,0.115277783190802,0.0244346093386412,0.0021380283869803,0.00519235478714108
5,1.01666671909226,-0.133333341205212,0.120833338567854,0.0339030213654041,-0.0045814891345799,0.01191187184304
5,1.01944450285877,-0.134722233088466,0.12777778582816,0.0458148941397667,0.000916297896765172,0.013744467869401
5,1.01527782720901,-0.12777778582816,0.134722233088466,0.0415388382971287,-0.00733038317412138,0.00519235478714108
5,1.01944450285877,-0.118055554801345,0.12777778582816,0.0351247526705265,0.00549778714776039,0.0213802829384804
5,1.01805561097552,-0.122222230451108,0.118055554801345,0.0265726372599602,-0.00610865233466029,0.00671951752156019
5,1.01527782720901,-0.125000002061652,0.122222230451108,0.0250454749912024,-0.00702495034784079,0.00946841109544039
5,1.0125000434425,-0.12777778582816,0.123611110178398,0.0262672062963247,-0.00488692196086049,0.00152716308366507
5,1.01805561097552,-0.134722233088466,0.131944449321958,0.0256563406437635,0.00152716308366507,0.00916297826915979
5,1.01527782720901,-0.134722233088466,0.116666675074056,0.0314595587551594,0.00549778714776039,0.0045814891345799
5,1.0125000434425,-0.12916666555545,0.113888891307548,0.0329867228865623,0.00794124789535999,0.00702495034784079
5,1.01527782720901,-0.125000002061652,0.113888891307548,0.0247400421649218,0.00946841109544039,0.0045814891345799
5,1.0125000434425,-0.123611110178398,0.113888891307548,0.0207694191485643,0.00824668072164059,0.00702495034784079
5,1.01805561097552,-0.120833338567854,0.122222230451108,0.021685715764761,0.0103847095742822,-0.00244346098043024
5,1.01666671909226,-0.125000002061652,0.120833338567854,0.0207694191485643,0.00794124789535999,-0.00244346098043024
5,1.01527782720901,-0.118055554801345,0.123611110178398,0.0177150927484035,0.00122173049021512,-0.00183259579353034
5,1.01666671909226,-0.111111119697004,0.12777778582816,0.0027488935738802,-0.00152716308366507,-0.00946841109544039
5,1.01666671909226,-0.111111119697004,0.126388893944906,-0.00733038317412138,0.00641408516094089,-0.00855211354792118
5,1.01666671909226,-0.118055554801345,0.126388893944906,-0.013744467869401,0.00641408516094089,-0.00519235478714108
5,1.01805561097552,-0.118055554801345,0.12777778582816,-0.019547687843442,0.00977384392172098,0.00152716308366507
5,1.02222228662528,-0.112499999424294,0.125000002061652,-0.021685715764761,0.000610865245107561,-0.00733038317412138
5,1.01805561097552,-0.123611110178398,0.122222230451108,-0.0183259565383196,0.0045814891345799,0.00488692196086049
5,1.01666671909226,-0.133333341205212,0.116666675074056,-0.017409659922123,0.0106901414692402,0.00244346098043024
5,1.01111115155925,-0.131944449321958,0.138888896582264,-0.0113010071218014,0.00671951752156019,-0.0021380283869803
5,1.01388893532575,-0.130555557438704,0.133333341205212,0.000305432622553781,0.00763581553474069,-0.00580321997404099
5,1.01388893532575,-0.123611110178398,0.118055554801345,0.00183259579353034,0.00580321997404099,-0.0021380283869803
5,1.01805561097552,-0.126388893944906,0.118055554801345,0.0128281703218818,0.00519235478714108,-0.0045814891345799
5,1.01527782720901,-0.125000002061652,0.130555557438704,0.0106901414692402,0.00183259579353034,0.00183259579353034
5,1.01527782720901,-0.120833338567854,0.12777778582816,0.00519235478714108,0.000610865245107561,0.00397062394768
5,1.01527782720901,-0.120833338567854,0.12777778582816,0.00671951752156019,-0.000610865245107561,0.0109955742955208
5,1.01388893532575,-0.126388893944906,0.12916666555545,-0.0021380283869803,-0.0021380283869803,0.00610865233466029
5,1.01388893532575,-0.126388893944906,0.12916666555545,-0.0027488935738802,-0.0033597587607801,0.0134390350431204
5,1.01527782720901,-0.123611110178398,0.120833338567854,-0.00610865233466029,-0.00152716308366507,0.0131336031481624
5,1.01527782720901,-0.131944449321958,0.12777778582816,-0.00244346098043024,0.00122173049021512,0.0045814891345799
5,1.01527782720901,-0.131944449321958,0.12777778582816,0.0183259565383196,-0.000610865245107561,0.00488692196086049
5,1.01388893532575,-0.133333341205212,0.131944449321958,0.0253509078174829,-0.00610865233466029,0.00305432616733015
5,1.01388893532575,-0.133333341205212,0.131944449321958,0.0326812900602817,0.00946841109544039,0.00183259579353034
5,1.02083339474202,-0.123611110178398,0.131944449321958,0.0284052342176437,0.0045814891345799,0.00733038317412138
5,1.01527782720901,-0.125000002061652,0.131944449321958,0.0235183127224445,0.0033597587607801,0.01191187184304
5,1.01666671909226,-0.12916666555545,0.125000002061652,0.0287106670439243,-0.00152716308366507,0.0146607663482428
5,1.01388893532575,-0.12777778582816,0.125000002061652,0.0235183127224445,-0.00488692196086049,0.00733038317412138
5,1.02222228662528,-0.130555557438704,0.123611110178398,0.0204639863222837,0.0149661982432008,0.00733038317412138
5,1.02361117850853,-0.12777778582816,0.12777778582816,0.0229074470698834,0.00794124789535999,-0.00152716308366507
5,1.02222228662528,-0.130555557438704,0.113888891307548,0.01191187184304,0.00671951752156019,0.000916297896765172
5,1.0125000434425,-0.130555557438704,0.118055554801345,0.0189368221908808,0.00702495034784079,-0.00152716308366507
5,1.00833336779274,-0.12916666555545,0.123611110178398,0.017409659922123,0.00610865233466029,-0.0027488935738802
5,1.0125000434425,-0.130555557438704,0.12916666555545,0.019547687843442,0.00366519158706069,0.00366519158706069
5,1.01944450285877,-0.125000002061652,0.131944449321958,0.0210748501121998,-0.000305432622553781,-0.00671951752156019
5,1.01527782720901,-0.12777778582816,0.122222230451108,0.0241291765123606,0.00183259579353034,0.000610865245107561
5,1.01388893532575,-0.12777778582816,0.125000002061652,0.0201585534960032,-0.00671951752156019,0.00641408516094089
5,1.01527782720901,-0.12777778582816,0.123611110178398,0.0149661982432008,-0.00488692196086049,-0.0027488935738802
5,1.01388893532575,-0.125000002061652,0.116666675074056,0.0183259565383196,-0.00152716308366507,-0.000916297896765172
5,1.01111115155925,-0.123611110178398,0.120833338567854,0.0177150927484035,-0.00244346098043024,0.0103847095742822
5,1.01527782720901,-0.122222230451108,0.125000002061652,0.0109955742955208,0.00152716308366507,0.00244346098043024
5,1.01527782720901,-0.1194444466846,0.123611110178398,-0.000610865245107561,-0.00397062394768,0.00305432616733015
5,1.0125000434425,-0.125000002061652,0.12777778582816,-0.00733038317412138,-0.00855211354792118,0.00305432616733015
5,1.01944450285877,-0.120833338567854,0.12777778582816,-0.00946841109544039,0.00549778714776039,-0.00427605677396059
5,1.01527782720901,-0.12777778582816,0.12777778582816,-0.0186313893646002,0.0045814891345799,-0.00794124789535999
5,1.01944450285877,-0.12777778582816,0.118055554801345,-0.0183259565383196,0.00366519158706069,-0.0143553335219622
5,1.01805561097552,-0.130555557438704,0.130555557438704,-0.0183259565383196,0.000610865245107561,-0.00794124789535999
5,1.00972225967599,-0.12777778582816,0.12777778582816,-0.00733038317412138,0.00305432616733015,-0.00855211354792118
5,1.01111115155925,-0.130555557438704,0.133333341205212,-0.00916297826915979,-0.0045814891345799,-0.00794124789535999
5,1.01388893532575,-0.125000002061652,0.123611110178398,-0.0109955742955208,-0.00733038317412138,-0.00183259579353034
5,1.01527782720901,-0.125000002061652,0.12916666555545,-0.0106901414692402,-0.00702495034784079,0.0045814891345799
5,1.01944450285877,-0.126388893944906,0.131944449321958,-0.0192422550171614,-0.0033597587607801,0.00855211354792118
5,1.01944450285877,-0.12916666555545,0.122222230451108,-0.0106901414692402,-0.00519235478714108,0.00855211354792118
5,1.01805561097552,-0.130555557438704,0.118055554801345,-0.00916297826915979,-0.00488692196086049,0.0131336031481624
5,1.01527782720901,-0.12777778582816,0.12777778582816,-0.013744467869401,-0.000610865245107561,0.00641408516094089
5,1.01527782720901,-0.125000002061652,0.125000002061652,-0.0122173046693206,-0.000916297896765172,0.00824668072164059
5,1.00833336779274,-0.123611110178398,0.12777778582816,-0.00671951752156019,-0.0131336031481624,0.00977384392172098
5,1.00833336779274,-0.123611110178398,0.12777778582816,-0.00427605677396059,-0.0106901414692402,0.00427605677396059
5,1.01388893532575,-0.120833338567854,0.126388893944906,0.000610865245107561,-0.00488692196086049,-0.00305432616733015
5,1.0125000434425,-0.123611110178398,0.122222230451108,-0.0021380283869803,-0.00610865233466029,0.00427605677396059
5,1.01944450285877,-0.120833338567854,0.130555557438704,-0.0177150927484035,-0.000916297896765172,0.00397062394768
5,1.01388893532575,-0.118055554801345,0.125000002061652,-0.0210748501121998,-0.0021380283869803,0.0027488935738802
5,1.01527782720901,-0.118055554801345,0.125000002061652,-0.0204639863222837,-0.00946841109544039,0.00855211354792118
5,1.01527782720901,-0.118055554801345,0.125000002061652,-0.0180205255746841,-0.00885754637420177,0.01191187184304
5,1.01944450285877,-0.120833338567854,0.123611110178398,-0.0152716310694814,-0.0143553335219622,0.0171042270958424
5,1.01527782720901,-0.130555557438704,0.123611110178398,-0.0161879286170006,-0.011606439948082,0.0171042270958424
5,1.01666671909226,-0.12777778582816,0.131944449321958,-0.0244346093386412,-0.00641408516094089,0.00488692196086049
5,1.01527782720901,-0.130555557438704,0.125000002061652,-0.00794124789535999,-0.0131336031481624,0.0045814891345799
5,1.01944450285877,-0.125000002061652,0.125000002061652,-0.00702495034784079,-0.017409659922123,0.0045814891345799
5,1.02083339474202,-0.125000002061652,0.122222230451108,-0.015577063895762,-0.0045814891345799,-0.00305432616733015
5,1.01944450285877,-0.125000002061652,0.120833338567854,-0.0152716310694814,-0.00305432616733015,-0.00580321997404099
5,1.0125000434425,-0.115277783190802,0.12916666555545,-0.0171042270958424,0.00397062394768,-0.00855211354792118
5,1.01527782720901,-0.1194444466846,0.133333341205212,-0.0122173046693206,-0.000916297896765172,-0.00916297826915979
5,1.01527782720901,-0.12777778582816,0.126388893944906,-0.0171042270958424,-0.00671951752156019,-0.00794124789535999
5,1.01527782720901,-0.12777778582816,0.126388893944906,-0.00519235478714108,0.00427605677396059,-0.00122173049021512
5,1.01666671909226,-0.12916666555545,0.123611110178398,-0.00641408516094089,-0.000610865245107561,-0.0100792767480016
5,1.0125000434425,-0.134722233088466,0.120833338567854,-0.000610865245107561,0.0021380283869803,-0.00946841109544039
5,1.0125000434425,-0.134722233088466,0.120833338567854,0.0140499006956816,0.00519235478714108,-0.00885754637420177
5,1.01666671909226,-0.133333341205212,0.111111119697004,0.021685715764761,-0.0045814891345799,-0.00244346098043024
5,1.01666671909226,-0.12777778582816,0.130555557438704,0.0222965814173222,0.0027488935738802,-0.00671951752156019
5,1.01666671909226,-0.12777778582816,0.130555557438704,0.021685715764761,0.00183259579353034,0.00244346098043024
5,1.01805561097552,-0.12916666555545,0.122222230451108,0.00977384392172098,0.00427605677396059,-0.00488692196086049
5,1.01527782720901,-0.125000002061652,0.12916666555545,0.0100792767480016,-0.0021380283869803,-0.0100792767480016
5,1.01527782720901,-0.125000002061652,0.12916666555545,0.00977384392172098,-0.00366519158706069,0.000610865245107561
5,1.01527782720901,-0.125000002061652,0.120833338567854,0.0167987942695618,-0.00671951752156019,0.0027488935738802
5,1.01666671909226,-0.12777778582816,0.123611110178398,0.0131336031481624,-0.00702495034784079,-0.000916297896765172
5,1.01666671909226,-0.12777778582816,0.123611110178398,0.0021380283869803,-0.00610865233466029,0.00122173049021512
5,1.01805561097552,-0.130555557438704,0.134722233088466,-0.000610865245107561,-0.00519235478714108,0.00763581553474069
5,1.01805561097552,-0.125000002061652,0.123611110178398,-0.00305432616733015,-0.00580321997404099,0.0021380283869803
5,1.01666671909226,-0.125000002061652,0.130555557438704,0.00488692196086049,-0.00794124789535999,0.00824668072164059
5,1.01527782720901,-0.12777778582816,0.116666675074056,0.00671951752156019,0.00305432616733015,-0.00671951752156019
5,1.01944450285877,-0.12777778582816,0.113888891307548,0.015577063895762,0.00183259579353034,0.00519235478714108
5,1.01805561097552,-0.12916666555545,0.120833338567854,0.0143553335219622,-0.00366519158706069,0.00152716308366507
5,1.01666671909226,-0.126388893944906,0.115277783190802,0.0189368221908808,0.00397062394768,-0.00519235478714108
5,1.01527782720901,-0.125000002061652,0.123611110178398,0.013744467869401,0.0021380283869803,-0.0021380283869803
5,1.0125000434425,-0.130555557438704,0.12916666555545,0.00763581553474069,0.00244346098043024,0.0027488935738802
5,1.01666671909226,-0.134722233088466,0.118055554801345,0.0146607663482428,0.00549778714776039,-0.0027488935738802
5,1.01944450285877,-0.130555557438704,0.122222230451108,0.0161879286170006,0.00885754637420177,-0.00305432616733015
5,1.01666671909226,-0.133333341205212,0.12777778582816,0.017409659922123,0.00305432616733015,-0.00946841109544039
5,1.01388893532575,-0.125000002061652,0.134722233088466,0.0143553335219622,0.00916297826915979,-0.013744467869401
5,1.01527782720901,-0.118055554801345,0.125000002061652,0.00397062394768,0.00824668072164059,-0.0100792767480016
5,1.01944450285877,-0.126388893944906,0.120833338567854,0.00671951752156019,0.00152716308366507,-0.00549778714776039
5,1.01805561097552,-0.12777778582816,0.115277783190802,0.00610865233466029,0.00397062394768,-0.000916297896765172
5,1.01944450285877,-0.130555557438704,0.120833338567854,0.00763581553474069,0.000916297896765172,-0.0027488935738802
5,1.01388893532575,-0.12916666555545,0.116666675074056,0.00885754637420177,0.0143553335219622,-0.00671951752156019
5,1.01527782720901,-0.125000002061652,0.125000002061652,0.0164933614432812,0.0125227374956012,-0.00794124789535999
5,1.01527782720901,-0.126388893944906,0.120833338567854,0.0161879286170006,0.0152716310694814,-0.015577063895762
5,1.01805561097552,-0.12777778582816,0.12777778582816,0.0183259565383196,0.00794124789535999,-0.0171042270958424
5,1.01805561097552,-0.126388893944906,0.125000002061652,0.0213802829384804,0.00977384392172098,-0.00855211354792118
5,1.01805561097552,-0.126388893944906,0.125000002061652,0.0219911485910416,0.00794124789535999,-0.00946841109544039
5,1.01388893532575,-0.123611110178398,0.122222230451108,0.0100792767480016,0.0128281703218818,-0.00763581553474069
5,1.01805561097552,-0.122222230451108,0.130555557438704,0.00733038317412138,0.0113010071218014,-0.00885754637420177
5,1.01805561097552,-0.122222230451108,0.130555557438704,-0.000916297896765172,0.0109955742955208,-0.00610865233466029
5,1.01527782720901,-0.125000002061652,0.118055554801345,0.011606439948082,0.00824668072164059,-0.0113010071218014
5,1.01944450285877,-0.126388893944906,0.125000002061652,0.00549778714776039,0.0128281703218818,-0.00152716308366507
5,1.01944450285877,-0.126388893944906,0.125000002061652,0.0125227374956012,0.00855211354792118,-0.0131336031481624
5,1.01944450285877,-0.12916666555545,0.120833338567854,0.0021380283869803,0.00824668072164059,-0.00580321997404099
5,1.01805561097552,-0.123611110178398,0.113888891307548,0.00580321997404099,0.0186313893646002,-0.00610865233466029
5,1.01805561097552,-0.123611110178398,0.113888891307548,0.00427605677396059,0.0131336031481624,-0.00702495034784079
5,1.01388893532575,-0.126388893944906,0.125000002061652,0.0131336031481624,0.0152716310694814,-0.00855211354792118
5,1.01388893532575,-0.12777778582816,0.12777778582816,0.00885754637420177,0.0113010071218014,-0.00763581553474069
5,1.01388893532575,-0.12777778582816,0.12777778582816,0.0045814891345799,0.0103847095742822,-0.0033597587607801
5,1.01944450285877,-0.12777778582816,0.131944449321958,-0.00366519158706069,0.00702495034784079,-0.00885754637420177
5,1.01388893532575,-0.118055554801345,0.126388893944906,0.0021380283869803,0.0134390350431204,-0.00763581553474069
5,1.02083339474202,-0.118055554801345,0.120833338567854,-0.00671951752156019,0.0128281703218818,-0.00763581553474069
5,1.01805561097552,-0.115277783190802,0.120833338567854,-0.0033597587607801,0.0146607663482428,-0.01191187184304
5,1.01527782720901,-0.116666675074056,0.120833338567854,-0.00702495034784079,0.00733038317412138,-0.00702495034784079
5,1.0125000434425,-0.116666675074056,0.122222230451108,-0.0045814891345799,-0.000916297896765172,0.0021380283869803
5,1.0125000434425,-0.118055554801345,0.120833338567854,-0.00549778714776039,-0.000610865245107561,-0.000916297896765172
5,1.01527782720901,-0.122222230451108,0.118055554801345,-0.000916297896765172,0.00122173049021512,-0.00152716308366507
5,1.01527782720901,-0.122222230451108,0.118055554801345,0.0027488935738802,0.00580321997404099,0.000610865245107561
5,1.01388893532575,-0.108333335930496,0.134722233088466,0.00610865233466029,-0.00152716308366507,0.00824668072164059
5,1.01527782720901,-0.113888891307548,0.12777778582816,0.00641408516094089,-0.00152716308366507,0.0177150927484035
5,1.01527782720901,-0.118055554801345,0.126388893944906,0.00916297826915979,0.000916297896765172,0.00519235478714108
5,1.0125000434425,-0.111111119697004,0.12777778582816,0.00885754637420177,0.00733038317412138,-0.0027488935738802
5,1.01527782720901,-0.111111119697004,0.138888896582264,0.00488692196086049,-0.00641408516094089,-0.00183259579353034
5,1.0125000434425,-0.118055554801345,0.12777778582816,0.00397062394768,-0.0033597587607801,-0.00519235478714108
5,1.00972225967599,-0.118055554801345,0.136111112815755,0.00244346098043024,-0.00794124789535999,-0.01588249579072
5,1.01527782720901,-0.120833338567854,0.130555557438704,-0.0045814891345799,0.0027488935738802,-0.0106901414692402
5,1.01666671909226,-0.123611110178398,0.125000002061652,-0.0152716310694814,0.00549778714776039,-0.017409659922123
5,1.00972225967599,-0.123611110178398,0.136111112815755,-0.0033597587607801,0.00763581553474069,-0.00183259579353034
5,1.00694447590948,-0.126388893944906,0.141666668192807,-0.00244346098043024,-0.00366519158706069,-0.00397062394768
5,1.00833336779274,-0.123611110178398,0.134722233088466,0.00397062394768,-0.01588249579072,-0.00152716308366507
5,1.00833336779274,-0.123611110178398,0.134722233088466,0.0171042270958424,-0.0167987942695618,0.0027488935738802
5,1.01944450285877,-0.120833338567854,0.12777778582816,0.0201585534960032,-0.0122173046693206,0.013744467869401
5,1.01944450285877,-0.113888891307548,0.126388893944906,0.00733038317412138,-0.0033597587607801,0.00946841109544039
5,1.01944450285877,-0.113888891307548,0.126388893944906,0.0045814891345799,-0.00519235478714108,0.00244346098043024
5,1.01666671909226,-0.115277783190802,0.130555557438704,-0.000305432622553781,-0.00916297826915979,-0.0027488935738802
5,1.01805561097552,-0.112499999424294,0.125000002061652,-0.00977384392172098,-0.000610865245107561,-0.000916297896765172
5,1.01944450285877,-0.116666675074056,0.116666675074056,-0.01191187184304,0.00183259579353034,0.0021380283869803
5,1.01527782720901,-0.130555557438704,0.123611110178398,0.00397062394768,-0.00702495034784079,-0.0021380283869803
5,1.02222228662528,-0.126388893944906,0.125000002061652,0.015577063895762,-0.00641408516094089,-0.00824668072164059
5,1.01805561097552,-0.125000002061652,0.134722233088466,0.0210748501121998,0.0045814891345799,-0.00580321997404099
5,0.998611124609959,-0.125000002061652,0.130555557438704,0.0244346093386412,-0.00397062394768,0.00580321997404099
5,1.0125000434425,-0.113888891307548,0.140277788465518,0.0259617734700441,-0.0146607663482428,-0.00549778714776039
5,1.01805561097552,-0.118055554801345,0.120833338567854,0.0122173046693206,-0.0122173046693206,0.00946841109544039
5,1.01944450285877,-0.115277783190802,0.125000002061652,0.00885754637420177,-0.00794124789535999,0.00702495034784079
5,1.02083339474202,-0.120833338567854,0.123611110178398,0.00824668072164059,-0.00671951752156019,0.00366519158706069
5,1.02222228662528,-0.116666675074056,0.133333341205212,0.013744467869401,-0.0171042270958424,0.000305432622553781
5,1.01944450285877,-0.118055554801345,0.130555557438704,0.0109955742955208,-0.00366519158706069,-0.00244346098043024
5,1.01527782720901,-0.120833338567854,0.120833338567854,0.00794124789535999,-0.00580321997404099,0.000916297896765172
5,1.00972225967599,-0.123611110178398,0.123611110178398,0.0131336031481624,-0.0045814891345799,0.00427605677396059
5,1.01527782720901,-0.123611110178398,0.12777778582816,0.0186313893646002,-0.0109955742955208,-0.00580321997404099
5,1.01527782720901,-0.118055554801345,0.123611110178398,0.0161879286170006,-0.0100792767480016,-0.00122173049021512
5,1.01666671909226,-0.118055554801345,0.12777778582816,0.00488692196086049,-0.000305432622553781,0.000610865245107561
5,1.01666671909226,-0.1194444466846,0.125000002061652,0.00885754637420177,0.00885754637420177,-0.00549778714776039
5,1.01388893532575,-0.125000002061652,0.120833338567854,0.00549778714776039,-0.00427605677396059,-0.00610865233466029
5,1.0125000434425,-0.116666675074056,0.123611110178398,-0.00702495034784079,0.00519235478714108,-0.00488692196086049
5,1.01527782720901,-0.120833338567854,0.134722233088466,-0.0122173046693206,0.00702495034784079,-0.00702495034784079
5,1.0125000434425,-0.123611110178398,0.126388893944906,-0.0161879286170006,0.0131336031481624,-0.00946841109544039
5,1.01527782720901,-0.12777778582816,0.12777778582816,-0.0177150927484035,0.00671951752156019,0.00122173049021512
5,1.01944450285877,-0.12777778582816,0.123611110178398,-0.00427605677396059,0.00366519158706069,-0.00366519158706069
5,1.01805561097552,-0.126388893944906,0.111111119697004,0.00916297826915979,0.00183259579353034,-0.00946841109544039
5,1.01666671909226,-0.125000002061652,0.122222230451108,0.013744467869401,-0.00244346098043024,0.000610865245107561
5,1.01805561097552,-0.118055554801345,0.116666675074056,0.0247400421649218,-0.00397062394768,-0.00702495034784079
5,1.01666671909226,-0.118055554801345,0.118055554801345,0.0177150927484035,-0.000916297896765172,0.0021380283869803
5,1.01666671909226,-0.118055554801345,0.118055554801345,0.0152716310694814,0.0021380283869803,0.00641408516094089
5,1.02083339474202,-0.125000002061652,0.111111119697004,0.00977384392172098,0.00916297826915979,-0.00183259579353034
5,1.02222228662528,-0.130555557438704,0.122222230451108,0.00977384392172098,0.0183259565383196,-0.00488692196086049
5,1.02222228662528,-0.130555557438704,0.122222230451108,0.011606439948082,0.0232128798961639,-0.00305432616733015
5,1.01944450285877,-0.12777778582816,0.133333341205212,0.0177150927484035,0.0201585534960032,-0.00183259579353034
5,1.01527782720901,-0.125000002061652,0.126388893944906,0.0229074470698834,0.0109955742955208,0.0021380283869803
5,1.0125000434425,-0.123611110178398,0.123611110178398,0.0167987942695618,0.0113010071218014,0.0134390350431204
5,1.01805561097552,-0.1194444466846,0.120833338567854,0.0149661982432008,0.0207694191485643,0.00885754637420177
5,1.01805561097552,-0.1194444466846,0.120833338567854,0.00366519158706069,0.0213802829384804,0.0134390350431204
5,1.01666671909226,-0.115277783190802,0.125000002061652,0.00610865233466029,0.0146607663482428,0.00763581553474069
5,1.01527782720901,-0.1194444466846,0.125000002061652,0.00794124789535999,0.00885754637420177,0.000916297896765172
5,1.01388893532575,-0.123611110178398,0.120833338567854,0.0149661982432008,0.0103847095742822,-0.00122173049021512
5,1.01944450285877,-0.116666675074056,0.1194444466846,0.00397062394768,0.0161879286170006,0.00183259579353034
5,1.01805561097552,-0.116666675074056,0.123611110178398,0.0045814891345799,0.00824668072164059,-0.00152716308366507
5,1.01388893532575,-0.118055554801345,0.125000002061652,-0.00519235478714108,0.0033597587607801,0.0021380283869803
5,1.01527782720901,-0.120833338567854,0.12777778582816,0.0143553335219622,-0.00305432616733015,0.00855211354792118
5,1.01527782720901,-0.125000002061652,0.126388893944906,0.019547687843442,0.00580321997404099,0.00733038317412138
5,1.01666671909226,-0.120833338567854,0.134722233088466,0.0250454749912024,0.00519235478714108,0.00488692196086049
5,1.01388893532575,-0.122222230451108,0.125000002061652,0.0247400421649218,0.00855211354792118,0.0131336031481624
5,1.01666671909226,-0.125000002061652,0.125000002061652,0.0247400421649218,-0.00122173049021512,-0.00305432616733015
5,1.01805561097552,-0.118055554801345,0.118055554801345,0.0186313893646002,-0.00366519158706069,0.00152716308366507
5,1.01666671909226,-0.111111119697004,0.12916666555545,0.011606439948082,-0.00671951752156019,0.00427605677396059
5,1.01527782720901,-0.106944444047242,0.123611110178398,-0.00122173049021512,-0.00122173049021512,0.00427605677396059
5,1.01666671909226,-0.108333335930496,0.136111112815755,-0.00794124789535999,0.011606439948082,-0.00244346098043024
5,1.01388893532575,-0.113888891307548,0.131944449321958,-0.0033597587607801,0.00946841109544039,-0.00916297826915979
5,1.01666671909226,-0.112499999424294,0.138888896582264,-0.00671951752156019,0.00946841109544039,-0.000305432622553781
5,1.01666671909226,-0.118055554801345,0.133333341205212,0.00305432616733015,0.00610865233466029,-0.00580321997404099
5,1.01388893532575,-0.1194444466846,0.134722233088466,0.0192422550171614,-0.000916297896765172,-0.0106901414692402
5,1.01527782720901,-0.113888891307548,0.136111112815755,0.0305432621389627,-0.00366519158706069,-0.00427605677396059
5,1.01111115155925,-0.116666675074056,0.13750000469901,0.0302378293126821,-0.000305432622553781,0.0033597587607801
5,1.01666671909226,-0.115277783190802,0.13750000469901,0.0180205255746841,0.0027488935738802,-0.00916297826915979
5,1.01527782720901,-0.111111119697004,0.134722233088466,0.000610865245107561,0.00397062394768,0.00397062394768
5,1.01527782720901,-0.108333335930496,0.118055554801345,0.00122173049021512,-0.000916297896765172,0.00366519158706069
5,1.01527782720901,-0.104166672436698,0.12777778582816,-0.00824668072164059,0.00488692196086049,0.000305432622553781
5,1.0125000434425,-0.112499999424294,0.123611110178398,-0.0204639863222837,-0.000916297896765172,-0.00183259579353034
5,1.01527782720901,-0.108333335930496,0.130555557438704,-0.0329867228865623,0.00152716308366507,0.00152716308366507
5,1.01805561097552,-0.115277783190802,0.122222230451108,-0.029626963660121,-0.00610865233466029,-0.00122173049021512
5,1.02222228662528,-0.122222230451108,0.118055554801345,-0.0302378293126821,-0.0033597587607801,0.00977384392172098
5,1.01666671909226,-0.12777778582816,0.122222230451108,-0.0167987942695618,-0.0021380283869803,0.015577063895762
5,1.01527782720901,-0.130555557438704,0.12777778582816,-0.00488692196086049,-0.00244346098043024,0.0186313893646002
5,1.01527782720901,-0.130555557438704,0.12777778582816,0.00580321997404099,0.000305432622553781,0.015577063895762
5,1.01527782720901,-0.130555557438704,0.122222230451108,0.0207694191485643,-0.000305432622553781,0.0177150927484035
5,1.01666671909226,-0.130555557438704,0.126388893944906,0.0326812900602817,0.00122173049021512,0.0180205255746841
5,1.01527782720901,-0.125000002061652,0.12777778582816,0.0335975885391235,-0.00794124789535999,0.0219911485910416
5,1.01666671909226,-0.1194444466846,0.12777778582816,0.0226020142436027,-0.0103847095742822,0.0302378293126821
5,1.01666671909226,-0.1194444466846,0.125000002061652,0.0103847095742822,-0.0128281703218818,0.0277943685650826
5,1.01805561097552,-0.120833338567854,0.118055554801345,-0.00366519158706069,-0.00763581553474069,0.0323758572340012
5,1.01944450285877,-0.12777778582816,0.113888891307548,0.0027488935738802,0.00824668072164059,0.0332921557128429
5,1.01111115155925,-0.138888896582264,0.125000002061652,0.0125227374956012,-0.00488692196086049,0.0345138870179653
5,1.01388893532575,-0.134722233088466,0.120833338567854,0.0186313893646002,-0.00244346098043024,0.0412334054708481
5,1.01388893532575,-0.123611110178398,0.112499999424294,0.0348193198442459,-0.0122173046693206,0.0473420582711697
5,1.01944450285877,-0.12777778582816,0.123611110178398,0.0348193198442459,-0.017409659922123,0.0415388382971287
5,1.01527782720901,-0.131944449321958,0.125000002061652,0.0519235469400883,-0.0302378293126821,0.0311541277915239
5,1.01805561097552,-0.134722233088466,0.120833338567854,0.0638354197144508,-0.0329867228865623,0.0192422550171614
5,1.02222228662528,-0.130555557438704,0.125000002061652,0.0675006061792374,-0.0213802829384804,0.00855211354792118
5,1.02222228662528,-0.122222230451108,0.130555557438704,0.0354301854968071,0.000305432622553781,-0.0113010071218014
5,1.02083339474202,-0.12777778582816,0.120833338567854,0.0134390350431204,0.0198531206697226,-0.0277943685650826
5,1.00833336779274,-0.125000002061652,0.131944449321958,0.00794124789535999,0.0406225398182869,-0.0387899428606033
5,1.0125000434425,-0.116666675074056,0.125000002061652,-0.0021380283869803,0.0415388382971287,-0.0397062413394451
5,1.01805561097552,-0.106944444047242,0.12916666555545,0.000916297896765172,0.0433714315295219,-0.0507018156349659
5,1.01527782720901,-0.108333335930496,0.143055560076062,-0.00763581553474069,0.01588249579072,-0.0320704244077206
5,1.01527782720901,-0.1194444466846,0.130555557438704,-0.00366519158706069,-0.0033597587607801,-0.013744467869401
5,1.01527782720901,-0.1194444466846,0.130555557438704,0.0146607663482428,-0.0125227374956012,0.00549778714776039
5,1.0125000434425,-0.130555557438704,0.141666668192807,0.0308486949652433,-0.0134390350431204,0.017409659922123
5,1.00972225967599,-0.118055554801345,0.140277788465518,0.0412334054708481,-0.00824668072164059,0.0290160998702049
5,1.01111115155925,-0.102777780553444,0.140277788465518,0.0314595587551594,-0.00549778714776039,0.0452040284872055
5,1.00972225967599,-0.101388894748172,0.133333341205212,0.00580321997404099,-0.00946841109544039,0.0522289797663689
5,1.01111115155925,-0.0986111170596459,0.12916666555545,-0.0100792767480016,-0.00733038317412138,0.0461203269660473
5,1.01527782720901,-0.108333335930496,0.136111112815755,-0.0268780700862408,-0.0226020142436027,0.0400116741657257
5,1.01805561097552,-0.105555564319952,0.126388893944906,-0.0400116741657257,-0.0207694191485643,0.029626963660121
5,1.01805561097552,-0.105555564319952,0.126388893944906,-0.058643065392971,-0.0149661982432008,0.0265726372599602
5,1.01388893532575,-0.113888891307548,0.125000002061652,-0.0665843114256859,-0.0146607663482428,0.0305432621389627
5,1.01111115155925,-0.134722233088466,0.125000002061652,-0.0549778714776039,-0.01191187184304,0.0241291765123606
5,1.01111115155925,-0.134722233088466,0.125000002061652,-0.0394008085131645,-0.0109955742955208,0.0247400421649218
5,1.01527782720901,-0.134722233088466,0.120833338567854,-0.0131336031481624,-0.0177150927484035,0.0311541277915239
5,1.02222228662528,-0.134722233088466,0.112499999424294,-0.000305432622553781,-0.0177150927484035,0.0320704244077206
5,1.02222228662528,-0.134722233088466,0.112499999424294,-0.00244346098043024,-0.0177150927484035,0.0290160998702049
5,1.02083339474202,-0.13750000469901,0.120833338567854,-0.00824668072164059,-0.00977384392172098,0.0253509078174829
5,1.01527782720901,-0.134722233088466,0.113888891307548,-0.0149661982432008,-0.0134390350431204,0.0259617734700441
5,1.01527782720901,-0.134722233088466,0.113888891307548,-0.0180205255746841,-0.019547687843442,0.0287106670439243
5,1.01527782720901,-0.134722233088466,0.115277783190802,-0.0134390350431204,-0.0183259565383196,0.027488935738802
5,1.01527782720901,-0.150000007336368,0.104166672436698,-0.0161879286170006,-0.0164933614432812,0.0247400421649218
5,1.01527782720901,-0.150000007336368,0.104166672436698,-0.000305432622553781,-0.017409659922123,0.0320704244077206
5,1.01805561097552,-0.161111118090472,0.10972222781375,0.0180205255746841,-0.0186313893646002,0.0348193198442459
5,1.01527782720901,-0.166666673467524,0.112499999424294,0.0470366254448891,-0.0247400421649218,0.0335975885391235
5,1.01944450285877,-0.172222228844576,0.10972222781375,0.0757472887635231,-0.0183259565383196,0.0265726372599602
5,1.01944450285877,-0.163888889701015,0.111111119697004,0.0949895456433296,-0.0143553335219622,0.0287106670439243
5,1.02083339474202,-0.154166670830166,0.111111119697004,0.098960168659687,-0.00580321997404099,0.0351247526705265
5,1.02361117850853,-0.150000007336368,0.104166672436698,0.0781907513737679,0.000916297896765172,0.017409659922123
5,1.02222228662528,-0.136111112815755,0.108333335930496,0.0485637858510017,0.000610865245107561,0.00671951752156019
5,1.01805561097552,-0.120833338567854,0.111111119697004,0.00794124789535999,0.00641408516094089,0.00305432616733015
5,1.00972225967599,-0.115277783190802,0.113888891307548,-0.0290160998702049,0.00671951752156019,-0.00122173049021512
5,1.00972225967599,-0.115277783190802,0.122222230451108,-0.0387899428606033,-0.00702495034784079,-0.00244346098043024
5,1.0125000434425,-0.126388893944906,0.136111112815755,-0.0210748501121998,-0.00733038317412138,0.00610865233466029
5,1.01805561097552,-0.130555557438704,0.136111112815755,-0.0122173046693206,-0.00855211354792118,0.00549778714776039
5,1.01527782720901,-0.13750000469901,0.122222230451108,0.00580321997404099,0.00152716308366507,0.0033597587607801
5,1.01944450285877,-0.144444451959316,0.126388893944906,0.0277943685650826,0.0100792767480016,0.0045814891345799
5,1.01527782720901,-0.150000007336368,0.134722233088466,0.0491746515035629,-0.000610865245107561,0.000916297896765172
5,1.00694447590948,-0.150000007336368,0.12777778582816,0.0650571510195732,-0.00641408516094089,-0.00641408516094089
5,1.00833336779274,-0.144444451959316,0.12777778582816,0.070249505341053,-0.01191187184304,-0.0027488935738802
5,1.01527782720901,-0.134722233088466,0.130555557438704,0.0510072484612465,0.000305432622553781,0.00946841109544039
5,1.01944450285877,-0.12777778582816,0.120833338567854,0.0400116741657257,0.00580321997404099,0.000610865245107561
5,1.01805561097552,-0.12777778582816,0.113888891307548,0.0253509078174829,-0.00244346098043024,0.00152716308366507
5,1.01527782720901,-0.12916666555545,0.12916666555545,-0.00122173049021512,0.000610865245107561,0.00397062394768
5,1.00833336779274,-0.130555557438704,0.108333335930496,-0.000610865245107561,0.000610865245107561,0.00244346098043024
5,1.01388893532575,-0.130555557438704,0.113888891307548,-0.00671951752156019,-0.00152716308366507,-0.00183259579353034
5,1.01388893532575,-0.133333341205212,0.118055554801345,-0.00671951752156019,-0.00488692196086049,0.00641408516094089
5,1.01805561097552,-0.133333341205212,0.1194444466846,-0.0164933614432812,-0.00305432616733015,0.00855211354792118
5,1.01527782720901,-0.138888896582264,0.113888891307548,-0.0204639863222837,-0.0103847095742822,0.00763581553474069
5,1.01666671909226,-0.14583334384257,0.116666675074056,-0.0268780700862408,-0.0033597587607801,0.00366519158706069
5,1.01388893532575,-0.14583334384257,0.10972222781375,-0.013744467869401,-0.00702495034784079,0.00733038317412138
5,1.01527782720901,-0.14583334384257,0.115277783190802,-0.00122173049021512,-0.0027488935738802,0.00702495034784079
5,1.01388893532575,-0.150000007336368,0.111111119697004,-0.0027488935738802,-0.011606439948082,0.00244346098043024
5,1.01388893532575,-0.148611115453114,0.104166672436698,-0.00305432616733015,-0.00549778714776039,0.00397062394768
5,1.01111115155925,-0.13750000469901,0.10972222781375,0.0021380283869803,-0.00244346098043024,-0.00397062394768
5,1.01527782720901,-0.140277788465518,0.111111119697004,-0.000916297896765172,-0.0033597587607801,0.000916297896765172
5,1.01527782720901,-0.13750000469901,0.126388893944906,0.00549778714776039,-0.00977384392172098,0.00824668072164059
5,1.01527782720901,-0.140277788465518,0.120833338567854,0.00671951752156019,-0.000305432622553781,0.000305432622553781
5,1.01388893532575,-0.141666668192807,0.122222230451108,0.00702495034784079,0.00397062394768,0.00488692196086049
5,1.01527782720901,-0.138888896582264,0.125000002061652,0.00916297826915979,-0.000305432622553781,-0.00305432616733015
5,1.01111115155925,-0.138888896582264,0.120833338567854,0.0134390350431204,-0.00855211354792118,0.00733038317412138
5,1.01388893532575,-0.140277788465518,0.130555557438704,0.015577063895762,-0.000916297896765172,0.0021380283869803
5,1.01666671909226,-0.138888896582264,0.12777778582816,0.0235183127224445,-0.00427605677396059,0.00549778714776039
5,1.01666671909226,-0.140277788465518,0.113888891307548,0.0164933614432812,-0.000305432622553781,-0.00122173049021512
5,1.01388893532575,-0.136111112815755,0.120833338567854,0.015577063895762,0.000305432622553781,-0.00580321997404099
5,1.01527782720901,-0.134722233088466,0.118055554801345,0.00794124789535999,-0.00855211354792118,-0.00916297826915979
5,1.01527782720901,-0.130555557438704,0.1194444466846,0.0131336031481624,0.00152716308366507,-0.00366519158706069
5,1.01527782720901,-0.134722233088466,0.113888891307548,0.00305432616733015,0.000305432622553781,0.00519235478714108
5,1.01527782720901,-0.141666668192807,0.118055554801345,0.00427605677396059,0.011606439948082,-0.0027488935738802
5,1.02222228662528,-0.141666668192807,0.111111119697004,0.00244346098043024,0.0045814891345799,-0.00397062394768
5,1.01944450285877,-0.141666668192807,0.111111119697004,-0.00152716308366507,0.00610865233466029,-0.00763581553474069
5,1.01527782720901,-0.133333341205212,0.120833338567854,0.00427605677396059,0.0033597587607801,-0.00855211354792118
5,1.01388893532575,-0.131944449321958,0.111111119697004,0.0027488935738802,0.00427605677396059,-0.00152716308366507
5,1.01666671909226,-0.141666668192807,0.116666675074056,0.0180205255746841,0.00855211354792118,-0.00488692196086049
5,1.01805561097552,-0.144444451959316,0.120833338567854,0.0207694191485643,0.00824668072164059,-0.00427605677396059
5,1.01666671909226,-0.144444451959316,0.118055554801345,0.0290160998702049,0.00641408516094089,0.000305432622553781
5,1.01527782720901,-0.134722233088466,0.111111119697004,0.0229074470698834,0.00305432616733015,-0.00549778714776039
5,1.01805561097552,-0.130555557438704,0.123611110178398,0.0140499006956816,0.00702495034784079,-0.00580321997404099
5,1.01527782720901,-0.134722233088466,0.12777778582816,0.00763581553474069,0.00519235478714108,-0.00702495034784079
5,1.01527782720901,-0.138888896582264,0.120833338567854,0.00580321997404099,0.0027488935738802,0.000916297896765172
5,1.01527782720901,-0.138888896582264,0.120833338567854,0.0109955742955208,-0.000610865245107561,-0.00152716308366507
5,1.01944450285877,-0.134722233088466,0.112499999424294,0.011606439948082,0.0021380283869803,-0.00977384392172098
5,1.0125000434425,-0.134722233088466,0.113888891307548,-0.00397062394768,0.00519235478714108,-0.00519235478714108
5,1.0125000434425,-0.134722233088466,0.113888891307548,0.00397062394768,0.00244346098043024,-0.00702495034784079
5,1.01527782720901,-0.144444451959316,0.12777778582816,0.01191187184304,-0.0027488935738802,-0.00855211354792118
5,1.01666671909226,-0.141666668192807,0.120833338567854,0.0204639863222837,0.0021380283869803,-0.00397062394768
5,1.01666671909226,-0.141666668192807,0.120833338567854,0.0152716310694814,0.00152716308366507,-0.00977384392172098
5,1.02083339474202,-0.134722233088466,0.116666675074056,0.00549778714776039,0.0171042270958424,-0.00824668072164059
5,1.00972225967599,-0.133333341205212,0.116666675074056,-0.00610865233466029,0.00397062394768,-0.0033597587607801
5,1.01527782720901,-0.134722233088466,0.111111119697004,0.0021380283869803,0.00244346098043024,-0.01588249579072
5,1.01527782720901,-0.133333341205212,0.1194444466846,0.00946841109544039,0.00885754637420177,-0.00702495034784079
5,1.01805561097552,-0.13750000469901,0.118055554801345,0.00610865233466029,0.0100792767480016,-0.00488692196086049
5,1.01388893532575,-0.136111112815755,0.116666675074056,0.0125227374956012,0.00885754637420177,-0.00977384392172098
5,1.01666671909226,-0.130555557438704,0.118055554801345,-0.000610865245107561,0.00702495034784079,-0.00855211354792118
5,1.01944450285877,-0.12777778582816,0.116666675074056,-0.0027488935738802,0.00641408516094089,-0.00610865233466029
5,1.01527782720901,-0.133333341205212,0.1194444466846,0.0045814891345799,-0.0045814891345799,0.00366519158706069
5,1.0125000434425,-0.131944449321958,0.125000002061652,0.00488692196086049,-0.00397062394768,0.00855211354792118
5,1.01666671909226,-0.140277788465518,0.122222230451108,0.00763581553474069,-0.00305432616733015,0.00641408516094089
5,1.01944450285877,-0.140277788465518,0.111111119697004,0.00488692196086049,0.00641408516094089,-0.0027488935738802
5,1.01944450285877,-0.136111112815755,0.113888891307548,0.0045814891345799,0.0027488935738802,-0.0113010071218014
5,1.01527782720901,-0.130555557438704,0.113888891307548,-0.000305432622553781,0.000305432622553781,-0.011606439948082
5,1.01527782720901,-0.126388893944906,0.116666675074056,0.000305432622553781,-0.00183259579353034,-0.00824668072164059
5,1.01805561097552,-0.138888896582264,0.118055554801345,0.00152716308366507,0.000916297896765172,-0.0125227374956012
5,1.01527782720901,-0.13750000469901,0.113888891307548,0.00366519158706069,0.0027488935738802,-0.00549778714776039
5,1.01805561097552,-0.13750000469901,0.112499999424294,-0.00519235478714108,0.0134390350431204,-0.0113010071218014
5,1.01666671909226,-0.13750000469901,0.102777780553444,0.00244346098043024,0.0125227374956012,-0.000305432622553781
5,1.01805561097552,-0.141666668192807,0.111111119697004,0.0113010071218014,0.0143553335219622,0.00122173049021512
5,1.01944450285877,-0.144444451959316,0.113888891307548,0.0372627787292004,0.0109955742955208,-0.00946841109544039
5,1.01944450285877,-0.144444451959316,0.104166672436698,0.0503963828086853,0.0149661982432008,-0.0131336031481624
5,1.01527782720901,-0.140277788465518,0.106944444047242,0.0485637858510017,0.00794124789535999,-0.0152716310694814
5,1.01527782720901,-0.126388893944906,0.116666675074056,0.0299323964864016,0.0103847095742822,-0.0152716310694814
5,1.0125000434425,-0.122222230451108,0.115277783190802,0.0152716310694814,0.01191187184304,-0.0140499006956816
5,1.0125000434425,-0.120833338567854,0.115277783190802,-0.0113010071218014,0.0131336031481624,-0.0122173046693206
5,1.01666671909226,-0.116666675074056,0.122222230451108,-0.0339030213654041,0.0109955742955208,-0.0164933614432812
5,1.01666671909226,-0.120833338567854,0.120833338567854,-0.0409279726445675,0.011606439948082,-0.0198531206697226
5,1.02083339474202,-0.125000002061652,0.12777778582816,-0.0452040284872055,0.00671951752156019,-0.01191187184304
5,1.01944450285877,-0.138888896582264,0.125000002061652,-0.0326812900602817,0.021685715764761,-0.0146607663482428
5,1.01527782720901,-0.143055560076062,0.133333341205212,-0.01588249579072,0.0186313893646002,-0.00610865233466029
5,1.01527782720901,-0.14583334384257,0.123611110178398,-0.000305432622553781,0.00244346098043024,-0.00855211354792118
5,1.01527782720901,-0.140277788465518,0.120833338567854,0.0241291765123606,0.00916297826915979,-0.0149661982432008
5,1.01944450285877,-0.134722233088466,0.112499999424294,0.0326812900602817,0.00763581553474069,-0.0109955742955208
5,1.01527782720901,-0.130555557438704,0.120833338567854,0.0397062413394451,0.0027488935738802,-0.00244346098043024
5,1.01527782720901,-0.126388893944906,0.120833338567854,0.0345138870179653,0.00855211354792118,-0.00916297826915979
5,1.0125000434425,-0.125000002061652,0.118055554801345,0.0323758572340012,0.00305432616733015,-0.0021380283869803
5,1.01388893532575,-0.118055554801345,0.12777778582816,0.0201585534960032,0.00580321997404099,-0.0103847095742822
5,1.01666671909226,-0.1194444466846,0.125000002061652,0.0143553335219622,0.000610865245107561,-0.0122173046693206
5,1.01805561097552,-0.122222230451108,0.130555557438704,-0.00366519158706069,0.00122173049021512,0.00641408516094089
5,1.01527782720901,-0.118055554801345,0.133333341205212,-0.00183259579353034,-0.00427605677396059,0.00183259579353034
5,1.01944450285877,-0.12777778582816,0.133333341205212,-0.00122173049021512,0.00885754637420177,-0.00397062394768
5,1.01388893532575,-0.12916666555545,0.126388893944906,-0.00610865233466029,0.01588249579072,-0.00244346098043024
5,1.01666671909226,-0.13750000469901,0.118055554801345,0.00855211354792118,0.00671951752156019,0.0021380283869803
5,1.01388893532575,-0.126388893944906,0.120833338567854,0.00671951752156019,0.0021380283869803,0.00427605677396059
5,1.01527782720901,-0.122222230451108,0.130555557438704,0.0131336031481624,0.00122173049021512,0.00855211354792118
5,1.01666671909226,-0.12916666555545,0.12777778582816,0.00824668072164059,-0.000305432622553781,-0.000305432622553781
5,1.0125000434425,-0.131944449321958,0.12777778582816,0.00519235478714108,0.000610865245107561,0.00366519158706069
5,1.01111115155925,-0.130555557438704,0.125000002061652,0.0167987942695618,-0.0100792767480016,-0.0027488935738802
5,1.0125000434425,-0.125000002061652,0.126388893944906,0.0106901414692402,-0.00519235478714108,0.000305432622553781
5,1.01527782720901,-0.120833338567854,0.123611110178398,-0.000305432622553781,0.00397062394768,0.00183259579353034
5,1.01527782720901,-0.1194444466846,0.12777778582816,-0.00916297826915979,0.00549778714776039,0.00733038317412138
5,1.01527782720901,-0.125000002061652,0.12777778582816,-0.0033597587607801,0.00763581553474069,0.00610865233466029
5,1.01388893532575,-0.126388893944906,0.126388893944906,-0.00610865233466029,0.00702495034784079,0.00488692196086049
5,1.01388893532575,-0.12916666555545,0.12777778582816,0.0021380283869803,0.00488692196086049,-0.00610865233466029
5,1.01805561097552,-0.12777778582816,0.130555557438704,-0.000305432622553781,-0.00397062394768,-0.00244346098043024
5,1.01805561097552,-0.12777778582816,0.130555557438704,0.00671951752156019,-0.000610865245107561,0.00488692196086049
5,1.01527782720901,-0.125000002061652,0.126388893944906,0.00885754637420177,0.000610865245107561,-0.00549778714776039
5,1.01527782720901,-0.125000002061652,0.126388893944906,0.0167987942695618,-0.00152716308366507,0.00305432616733015
5,1.01666671909226,-0.125000002061652,0.118055554801345,0.0192422550171614,0.000610865245107561,-0.000305432622553781
5,1.01527782720901,-0.125000002061652,0.122222230451108,0.00916297826915979,0.000916297896765172,0.000916297896765172
5,1.01527782720901,-0.126388893944906,0.125000002061652,0.00671951752156019,-0.000610865245107561,-0.0021380283869803
5,1.01805561097552,-0.12777778582816,0.122222230451108,0.0131336031481624,-0.00152716308366507,-0.00610865233466029
5,1.01666671909226,-0.126388893944906,0.118055554801345,0.00916297826915979,0.000305432622553781,0.000305432622553781
5,1.01527782720901,-0.130555557438704,0.134722233088466,0.00855211354792118,-0.00244346098043024,0.00244346098043024
5,1.00972225967599,-0.12777778582816,0.12777778582816,0.0167987942695618,-0.00702495034784079,-0.00397062394768
5,1.0125000434425,-0.1194444466846,0.125000002061652,0.0103847095742822,-0.0027488935738802,-0.0045814891345799
5,1.01527782720901,-0.126388893944906,0.122222230451108,0.00244346098043024,-0.00397062394768,-0.00580321997404099
5,1.01527782720901,-0.123611110178398,0.116666675074056,0.00366519158706069,0.00183259579353034,-0.00427605677396059
5,1.01666671909226,-0.120833338567854,0.111111119697004,-0.00183259579353034,0.00671951752156019,-0.00610865233466029
5,1.01527782720901,-0.122222230451108,0.115277783190802,0.00152716308366507,0.00427605677396059,-0.00946841109544039
5,1.01944450285877,-0.126388893944906,0.118055554801345,0.00549778714776039,0.00610865233466029,-0.00977384392172098
5,1.0125000434425,-0.125000002061652,0.120833338567854,0.00610865233466029,0.00671951752156019,-0.0021380283869803
5,1.0125000434425,-0.12777778582816,0.120833338567854,0.00946841109544039,-0.00580321997404099,-0.000610865245107561
5,1.00972225967599,-0.123611110178398,0.122222230451108,0.00488692196086049,0.00122173049021512,0.00610865233466029
5,1.00972225967599,-0.122222230451108,0.118055554801345,0.000610865245107561,0.00488692196086049,0.000610865245107561
5,1.01388893532575,-0.120833338567854,0.120833338567854,-0.00824668072164059,0.00427605677396059,-0.00763581553474069
5,1.01527782720901,-0.122222230451108,0.130555557438704,-0.011606439948082,-0.00427605677396059,0.00152716308366507
5,1.01527782720901,-0.125000002061652,0.125000002061652,-0.0164933614432812,0.0027488935738802,-0.0021380283869803
5,1.01388893532575,-0.120833338567854,0.12777778582816,-0.0161879286170006,-0.0021380283869803,-0.00244346098043024
5,1.0125000434425,-0.120833338567854,0.12777778582816,-0.0125227374956012,0.0045814891345799,0.00763581553474069
5,1.01944450285877,-0.12916666555545,0.122222230451108,-0.00916297826915979,0.00946841109544039,0.0106901414692402
5,1.02222228662528,-0.134722233088466,0.134722233088466,0.0045814891345799,0.000305432622553781,-0.00183259579353034
5,1.01527782720901,-0.136111112815755,0.13750000469901,0.0109955742955208,-0.0125227374956012,-0.00427605677396059
5,1.0125000434425,-0.126388893944906,0.120833338567854,0.0106901414692402,-0.00946841109544039,-0.00916297826915979
5,1.01944450285877,-0.120833338567854,0.120833338567854,0.0125227374956012,0.000916297896765172,0.00763581553474069
5,1.01527782720901,-0.12777778582816,0.122222230451108,0.00855211354792118,0.0027488935738802,0.00183259579353034
5,1.01805561097552,-0.126388893944906,0.120833338567854,0.0146607663482428,-0.00183259579353034,-0.00244346098043024
5,1.01666671909226,-0.125000002061652,0.122222230451108,0.0109955742955208,-0.000305432622553781,0.000610865245107561
5,1.02083339474202,-0.131944449321958,0.12777778582816,0.00763581553474069,-0.00488692196086049,0.0021380283869803
5,1.01944450285877,-0.130555557438704,0.12777778582816,0.00855211354792118,-0.0045814891345799,-0.00580321997404099
5,1.01944450285877,-0.136111112815755,0.118055554801345,0.0164933614432812,0.00244346098043024,0.00427605677396059
5,1.02083339474202,-0.134722233088466,0.125000002061652,0.0171042270958424,0.00549778714776039,-0.00549778714776039
5,1.01944450285877,-0.134722233088466,0.122222230451108,0.0186313893646002,0.0021380283869803,-0.00488692196086049
5,1.01111115155925,-0.131944449321958,0.1194444466846,0.0235183127224445,0.00244346098043024,-0.000916297896765172
5,1.01666671909226,-0.125000002061652,0.122222230451108,0.011606439948082,0.00519235478714108,0.0045814891345799
5,1.01805561097552,-0.126388893944906,0.120833338567854,0.00794124789535999,0.0027488935738802,-0.00488692196086049
5,1.01944450285877,-0.126388893944906,0.122222230451108,0.011606439948082,-0.0045814891345799,0.00885754637420177
5,1.01666671909226,-0.12916666555545,0.118055554801345,0.0122173046693206,0.00183259579353034,0.000305432622553781
5,1.01805561097552,-0.123611110178398,0.130555557438704,0.015577063895762,-0.00244346098043024,0.00885754637420177
5,1.01805561097552,-0.123611110178398,0.1194444466846,0.00641408516094089,0.00305432616733015,0.0109955742955208
5,1.01666671909226,-0.125000002061652,0.1194444466846,0.00855211354792118,0.000610865245107561,0.00427605677396059
5,1.0125000434425,-0.123611110178398,0.12916666555545,0.00580321997404099,0.00580321997404099,-0.00152716308366507
5,1.01527782720901,-0.122222230451108,0.12777778582816,0.00305432616733015,0.00183259579353034,0.0027488935738802
5,1.01388893532575,-0.120833338567854,0.126388893944906,0.00305432616733015,0.00244346098043024,0.00885754637420177
5,1.01388893532575,-0.122222230451108,0.130555557438704,-0.000610865245107561,-0.00427605677396059,0.00610865233466029
5,1.01666671909226,-0.125000002061652,0.136111112815755,0.00580321997404099,-0.00397062394768,0.00122173049021512
5,1.01527782720901,-0.122222230451108,0.122222230451108,0.0045814891345799,0.00183259579353034,0.0021380283869803
5,1.01944450285877,-0.120833338567854,0.120833338567854,0.000916297896765172,-0.00152716308366507,-0.00855211354792118
5,1.01805561097552,-0.133333341205212,0.130555557438704,0.00122173049021512,0.00366519158706069,0.00549778714776039
5,1.01666671909226,-0.130555557438704,0.12777778582816,0.0128281703218818,0.00152716308366507,0.00244346098043024
5,1.01944450285877,-0.125000002061652,0.123611110178398,0.00885754637420177,0.00549778714776039,-0.00305432616733015
5,1.01805561097552,-0.113888891307548,0.12777778582816,0.00641408516094089,0.00549778714776039,0.0033597587607801
5,1.01944450285877,-0.1194444466846,0.116666675074056,0.00519235478714108,0.00549778714776039,0.00610865233466029
5,1.01805561097552,-0.12777778582816,0.111111119697004,0.0122173046693206,0.0045814891345799,0.00763581553474069
5,1.01805561097552,-0.12777778582816,0.111111119697004,0.0122173046693206,0.0045814891345799,0.00763581553474069
5,1.01527782720901,-0.131944449321958,0.120833338567854,0.0201585534960032,0.00183259579353034,0.00977384392172098
5,1.0125000434425,-0.118055554801345,0.1194444466846,0.0201585534960032,-0.00183259579353034,0.00671951752156019
5,1.02083339474202,-0.120833338567854,0.120833338567854,0.00977384392172098,0.0045814891345799,-0.00366519158706069
5,1.01944450285877,-0.125000002061652,0.122222230451108,-0.000610865245107561,0.00733038317412138,0.00183259579353034
5,1.0125000434425,-0.125000002061652,0.125000002061652,-0.00244346098043024,0.00549778714776039,0.00305432616733015
5,1.01388893532575,-0.125000002061652,0.126388893944906,-0.000916297896765172,0.00549778714776039,0.00702495034784079
5,1.01944450285877,-0.120833338567854,0.120833338567854,-0.00733038317412138,0.0027488935738802,0.00183259579353034
5,1.01805561097552,-0.125000002061652,0.123611110178398,-0.011606439948082,0.00855211354792118,0.00122173049021512
5,1.02083339474202,-0.123611110178398,0.118055554801345,-0.0146607663482428,0.0045814891345799,0.0033597587607801
5,1.01944450285877,-0.131944449321958,0.12777778582816,-0.0045814891345799,-0.000305432622553781,0.00733038317412138
5,1.01944450285877,-0.134722233088466,0.126388893944906,0.00946841109544039,0.00549778714776039,0.0100792767480016
5,1.01527782720901,-0.12777778582816,0.120833338567854,0.0103847095742822,0.00763581553474069,0.00244346098043024
5,1.01388893532575,-0.126388893944906,0.1194444466846,0.0109955742955208,0.00519235478714108,0.00397062394768
5,1.01527782720901,-0.122222230451108,0.111111119697004,-0.000610865245107561,0.00824668072164059,0.00427605677396059
5,1.01805561097552,-0.12777778582816,0.12777778582816,0.00122173049021512,0.011606439948082,0.0125227374956012
5,1.01944450285877,-0.130555557438704,0.12916666555545,0.00488692196086049,0.00183259579353034,0.00702495034784079
5,1.01666671909226,-0.125000002061652,0.138888896582264,0.00641408516094089,0.00152716308366507,0.0125227374956012
5,1.01527782720901,-0.122222230451108,0.136111112815755,0.00580321997404099,0.00122173049021512,0.00885754637420177
5,1.01805561097552,-0.131944449321958,0.122222230451108,0.00488692196086049,0.00733038317412138,0.00763581553474069
5,1.01805561097552,-0.125000002061652,0.120833338567854,-0.00122173049021512,0.000610865245107561,0.00580321997404099
5,1.01805561097552,-0.126388893944906,0.120833338567854,0.00305432616733015,0.00610865233466029,0.00977384392172098
5,1.01944450285877,-0.1194444466846,0.116666675074056,0.0021380283869803,0.000305432622553781,0.00244346098043024
5,1.02083339474202,-0.136111112815755,0.12777778582816,0.0134390350431204,0.00610865233466029,0.0033597587607801
5,1.01527782720901,-0.130555557438704,0.12777778582816,0.0134390350431204,-0.0027488935738802,0.00244346098043024
5,1.01805561097552,-0.126388893944906,0.130555557438704,0.013744467869401,0.00702495034784079,0.00488692196086049
5,1.01666671909226,-0.130555557438704,0.125000002061652,0.00916297826915979,0.00519235478714108,-0.000305432622553781
5,1.01527782720901,-0.12777778582816,0.125000002061652,0.0131336031481624,0.000916297896765172,-0.00244346098043024
5,1.01944450285877,-0.12777778582816,0.130555557438704,0.0152716310694814,0.0021380283869803,-0.00794124789535999
5,1.01944450285877,-0.12777778582816,0.130555557438704,0.0186313893646002,0.00641408516094089,0.00763581553474069
5,1.01527782720901,-0.126388893944906,0.125000002061652,0.015577063895762,0.0152716310694814,0.0161879286170006
5,1.01944450285877,-0.125000002061652,0.122222230451108,-0.00824668072164059,-0.00152716308366507,0.00610865233466029
5,1.01944450285877,-0.125000002061652,0.122222230451108,-0.00824668072164059,-0.00152716308366507,0.00610865233466029
5,1.01388893532575,-0.138888896582264,0.125000002061652,-0.000305432622553781,0.00610865233466029,0.0122173046693206
5,1.01527782720901,-0.138888896582264,0.12916666555545,0.00183259579353034,0.0021380283869803,0.00305432616733015
5,1.01666671909226,-0.13750000469901,0.122222230451108,0.0125227374956012,-0.000305432622553781,0.0103847095742822
5,1.0125000434425,-0.126388893944906,0.123611110178398,0.0177150927484035,-0.0045814891345799,0.0033597587607801
5,1.01388893532575,-0.123611110178398,0.12916666555545,0.000916297896765172,0.00397062394768,0.0125227374956012
5,1.0125000434425,-0.125000002061652,0.120833338567854,0.00122173049021512,-0.000610865245107561,0.0219911485910416
5,1.0125000434425,-0.130555557438704,0.123611110178398,-0.00519235478714108,0.00244346098043024,0.0134390350431204
5,1.00972225967599,-0.130555557438704,0.122222230451108,-0.00152716308366507,0.0027488935738802,0.00733038317412138
5,1.01527782720901,-0.12777778582816,0.126388893944906,0.00366519158706069,0.00122173049021512,0.00855211354792118
5,1.01388893532575,-0.130555557438704,0.13750000469901,0.00366519158706069,-0.00763581553474069,0.00488692196086049
5,1.01527782720901,-0.130555557438704,0.12916666555545,0.0103847095742822,-0.00244346098043024,0.011606439948082
5,1.0125000434425,-0.134722233088466,0.122222230451108,0.0143553335219622,-0.00366519158706069,0.00733038317412138
5,1.01805561097552,-0.130555557438704,0.122222230451108,0.0171042270958424,-0.00397062394768,0.00397062394768
5,1.01527782720901,-0.126388893944906,0.122222230451108,0.0177150927484035,-0.000916297896765172,0.00824668072164059
5,1.01944450285877,-0.126388893944906,0.12777778582816,0.015577063895762,-0.00763581553474069,0.00610865233466029
5,1.01805561097552,-0.130555557438704,0.118055554801345,0.00916297826915979,-0.0146607663482428,0.0186313893646002
5,1.01666671909226,-0.133333341205212,0.1194444466846,0.0134390350431204,-0.00488692196086049,0.011606439948082
5,1.01944450285877,-0.13750000469901,0.12777778582816,0.019547687843442,-0.00610865233466029,0.0100792767480016
5,1.01805561097552,-0.138888896582264,0.126388893944906,0.0171042270958424,-0.000610865245107561,0.00427605677396059
5,1.01944450285877,-0.130555557438704,0.113888891307548,0.015577063895762,0.000610865245107561,-0.00244346098043024
5,1.01666671909226,-0.130555557438704,0.122222230451108,0.0045814891345799,-0.00824668072164059,0.00702495034784079
5,1.01666671909226,-0.134722233088466,0.120833338567854,0.00549778714776039,-0.00916297826915979,-0.00244346098043024
5,1.01666671909226,-0.134722233088466,0.126388893944906,0.00610865233466029,0.00122173049021512,-0.00427605677396059
5,1.01527782720901,-0.133333341205212,0.120833338567854,0.00763581553474069,0.00152716308366507,0.000916297896765172
5,1.01944450285877,-0.134722233088466,0.120833338567854,-0.00366519158706069,-0.0027488935738802,-0.0109955742955208
5,1.01388893532575,-0.126388893944906,0.126388893944906,-0.00610865233466029,0.00733038317412138,-0.00977384392172098
5,1.01527782720901,-0.126388893944906,0.123611110178398,-0.0250454749912024,0.0109955742955208,-0.0134390350431204
5,1.01527782720901,-0.126388893944906,0.123611110178398,-0.0378736443817616,0.00855211354792118,-0.0106901414692402
5,1.01527782720901,-0.123611110178398,0.1194444466846,-0.0262672062963247,0.00366519158706069,-0.00549778714776039
5,1.01527782720901,-0.130555557438704,0.125000002061652,-0.0256563406437635,0.00183259579353034,-0.0021380283869803
5,1.01527782720901,-0.130555557438704,0.125000002061652,-0.0247400421649218,0.000610865245107561,-0.00488692196086049
5,1.02222228662528,-0.134722233088466,0.126388893944906,-0.0146607663482428,-0.000916297896765172,0.00427605677396059
5,1.01527782720901,-0.134722233088466,0.12777778582816,-0.0045814891345799,-0.0045814891345799,0.00244346098043024
5,1.0125000434425,-0.138888896582264,0.125000002061652,0.0268780700862408,-0.000916297896765172,0.0106901414692402
5,1.0125000434425,-0.144444451959316,0.120833338567854,0.0482583530247212,-0.00366519158706069,0.01191187184304
5,1.01388893532575,-0.138888896582264,0.122222230451108,0.0558941699564457,-0.00183259579353034,0.0122173046693206
5,1.01666671909226,-0.130555557438704,0.12916666555545,0.0583376325666905,-0.00733038317412138,-0.000916297896765172
5,1.01944450285877,-0.12777778582816,0.12777778582816,0.0351247526705265,0.00244346098043024,0.00397062394768
5,1.01944450285877,-0.126388893944906,0.118055554801345,0.0262672062963247,0.00397062394768,0.0125227374956012
5,1.01527782720901,-0.125000002061652,0.1194444466846,0.0265726372599602,-0.0033597587607801,0.00916297826915979
5,1.01944450285877,-0.12777778582816,0.126388893944906,0.0198531206697226,-0.00519235478714108,0.0180205255746841
5,1.02361117850853,-0.133333341205212,0.122222230451108,0.0164933614432812,-0.00794124789535999,0.013744467869401
5,1.02222228662528,-0.134722233088466,0.118055554801345,0.0027488935738802,0.000305432622553781,0.0171042270958424
5,1.01805561097552,-0.133333341205212,0.118055554801345,-0.00122173049021512,0.000305432622553781,0.00549778714776039
5,1.01805561097552,-0.133333341205212,0.118055554801345,-0.00427605677396059,0.00733038317412138,0.00946841109544039
5,1.02500007039179,-0.140277788465518,0.115277783190802,-0.00152716308366507,0.00855211354792118,-0.00549778714776039
5,1.01944450285877,-0.150000007336368,0.113888891307548,0.00946841109544039,0.00580321997404099,-0.00641408516094089
5,1.01805561097552,-0.14583334384257,0.120833338567854,0.015577063895762,-0.0033597587607801,-0.0109955742955208
5,1.01666671909226,-0.13750000469901,0.111111119697004,0.0232128798961639,0.00152716308366507,-0.0140499006956816
5,1.02083339474202,-0.130555557438704,0.130555557438704,0.0265726372599602,0.00488692196086049,-0.0149661982432008
5,1.01527782720901,-0.126388893944906,0.136111112815755,0.0149661982432008,0.00488692196086049,-0.00733038317412138
5,1.00972225967599,-0.130555557438704,0.12916666555545,0.015577063895762,-0.00122173049021512,0.00427605677396059
5,1.0125000434425,-0.134722233088466,0.12916666555545,0.0219911485910416,0.00855211354792118,-0.011606439948082
5,1.01805561097552,-0.131944449321958,0.131944449321958,0.0222965814173222,0.0128281703218818,-0.0198531206697226
5,1.01944450285877,-0.130555557438704,0.126388893944906,0.0186313893646002,0.0109955742955208,-0.0161879286170006
5,1.01805561097552,-0.12916666555545,0.123611110178398,0.0186313893646002,0.0161879286170006,-0.01191187184304
5,1.01527782720901,-0.125000002061652,0.133333341205212,0.0131336031481624,0.0128281703218818,-0.0140499006956816
5,1.00694447590948,-0.12777778582816,0.13750000469901,0.00946841109544039,0.015577063895762,-0.0167987942695618
5,1.00972225967599,-0.12777778582816,0.131944449321958,0.0128281703218818,0.0045814891345799,-0.0140499006956816
5,1.00972225967599,-0.123611110178398,0.12916666555545,0.00366519158706069,0.00152716308366507,-0.00763581553474069
5,1.01527782720901,-0.115277783190802,0.131944449321958,-0.0045814891345799,-0.00488692196086049,-0.0103847095742822
5,1.01805561097552,-0.1194444466846,0.125000002061652,-0.017409659922123,0.0045814891345799,0.00549778714776039
5,1.01805561097552,-0.125000002061652,0.120833338567854,-0.0171042270958424,0.0021380283869803,-0.00610865233466029
5,1.00972225967599,-0.12777778582816,0.125000002061652,-0.0128281703218818,0.00641408516094089,0.0106901414692402
5,1.01111115155925,-0.130555557438704,0.120833338567854,-0.0171042270958424,0.00946841109544039,0.00397062394768
5,1.00972225967599,-0.12777778582816,0.130555557438704,-0.0152716310694814,-0.00427605677396059,0.00183259579353034
5,1.00972225967599,-0.12777778582816,0.130555557438704,-0.0045814891345799,0.0109955742955208,0.0113010071218014
5,1.01944450285877,-0.140277788465518,0.123611110178398,0.0171042270958424,-0.0045814891345799,0.0152716310694814
5,1.01944450285877,-0.136111112815755,0.120833338567854,0.03176499158144,-0.00580321997404099,0.00702495034784079
5,1.01944450285877,-0.136111112815755,0.120833338567854,0.0290160998702049,-0.00977384392172098,0.0045814891345799
5,1.0125000434425,-0.120833338567854,0.122222230451108,0.0113010071218014,0.0021380283869803,0.00549778714776039
5,1.01527782720901,-0.122222230451108,0.116666675074056,-0.00580321997404099,-0.00122173049021512,0.00885754637420177
5,1.01527782720901,-0.122222230451108,0.116666675074056,-0.00641408516094089,-0.0021380283869803,0.00794124789535999
5,1.01388893532575,-0.125000002061652,0.1194444466846,0.00610865233466029,0.00397062394768,0.01588249579072
5,1.01805561097552,-0.133333341205212,0.125000002061652,0.011606439948082,-0.00183259579353034,0.0113010071218014
5,1.01805561097552,-0.133333341205212,0.125000002061652,0.0171042270958424,0.00763581553474069,0.00427605677396059
5,1.01527782720901,-0.13750000469901,0.133333341205212,0.0183259565383196,0.00763581553474069,0.00122173049021512
5,1.01527782720901,-0.130555557438704,0.130555557438704,0.0164933614432812,0.00427605677396059,0.00122173049021512
5,1.01527782720901,-0.130555557438704,0.125000002061652,0.0113010071218014,0.00885754637420177,0.000610865245107561
5,1.01388893532575,-0.126388893944906,0.123611110178398,0.0140499006956816,0.0128281703218818,0.00580321997404099
5,1.01666671909226,-0.12916666555545,0.130555557438704,0.017409659922123,-0.00397062394768,0.00885754637420177
5,1.01527782720901,-0.134722233088466,0.13750000469901,0.0213802829384804,-0.00122173049021512,0.00610865233466029
5,1.01944450285877,-0.133333341205212,0.136111112815755,0.0113010071218014,0.0033597587607801,0.0106901414692402
5,1.01666671909226,-0.126388893944906,0.12916666555545,0.0149661982432008,0.00549778714776039,0.00824668072164059
5,1.01805561097552,-0.133333341205212,0.134722233088466,0.00946841109544039,0.00488692196086049,0.00488692196086049
5,1.01388893532575,-0.131944449321958,0.130555557438704,0.0167987942695618,0.0033597587607801,0.00855211354792118
5,1.01666671909226,-0.130555557438704,0.12777778582816,0.0177150927484035,0.00794124789535999,0.000610865245107561
5,1.01944450285877,-0.12916666555545,0.12777778582816,0.0149661982432008,0.00427605677396059,0.000610865245107561
5,1.01527782720901,-0.125000002061652,0.123611110178398,0.0125227374956012,-0.000305432622553781,0.00763581553474069
5,1.01111115155925,-0.130555557438704,0.12777778582816,0.0134390350431204,0.000610865245107561,0.00397062394768
5,1.00555558402623,-0.12777778582816,0.126388893944906,0.0219911485910416,-0.000305432622553781,0.0027488935738802
5,1.01527782720901,-0.123611110178398,0.12777778582816,0.00916297826915979,0.00305432616733015,-0.0027488935738802
5,1.01805561097552,-0.122222230451108,0.131944449321958,0.0027488935738802,-0.00152716308366507,-0.00427605677396059
5,1.01527782720901,-0.120833338567854,0.12916666555545,-0.00427605677396059,0.00305432616733015,-0.00397062394768
5,1.01527782720901,-0.126388893944906,0.130555557438704,-0.0143553335219622,-0.00519235478714108,0.00366519158706069
5,1.01111115155925,-0.123611110178398,0.130555557438704,-0.0146607663482428,-0.00122173049021512,0.0021380283869803
5,1.01388893532575,-0.122222230451108,0.140277788465518,-0.00733038317412138,-0.00427605677396059,0.00244346098043024
5,1.0125000434425,-0.133333341205212,0.126388893944906,-0.00733038317412138,-0.00366519158706069,0.0100792767480016
5,1.01527782720901,-0.130555557438704,0.125000002061652,-0.00488692196086049,0.000305432622553781,0.0125227374956012
5,1.01388893532575,-0.130555557438704,0.122222230451108,-0.0027488935738802,0.000305432622553781,0.00427605677396059
5,1.01527782720901,-0.12777778582816,0.125000002061652,0.00427605677396059,-0.00733038317412138,0.0131336031481624
5,1.01527782720901,-0.134722233088466,0.122222230451108,0.00885754637420177,-0.000916297896765172,0.0143553335219622
5,1.01388893532575,-0.13750000469901,0.126388893944906,0.021685715764761,-0.00427605677396059,0.0152716310694814
5,1.0125000434425,-0.134722233088466,0.131944449321958,0.0235183127224445,-0.0122173046693206,0.015577063895762
5,1.01527782720901,-0.125000002061652,0.134722233088466,0.0109955742955208,-0.01191187184304,0.0180205255746841
5,1.01527782720901,-0.120833338567854,0.1194444466846,0.0027488935738802,-0.00977384392172098,0.0186313893646002
5,1.01805561097552,-0.118055554801345,0.122222230451108,-0.0106901414692402,-0.00549778714776039,0.02382374368608
5,1.01666671909226,-0.123611110178398,0.1194444466846,-0.0219911485910416,-0.0106901414692402,0.0125227374956012
5,1.01666671909226,-0.126388893944906,0.126388893944906,-0.0290160998702049,-0.00916297826915979,0.00610865233466029
5,1.01666671909226,-0.12916666555545,0.112499999424294,-0.0345138870179653,-0.00488692196086049,0.0131336031481624
5,1.01944450285877,-0.140277788465518,0.116666675074056,-0.0284052342176437,0.00305432616733015,0.0045814891345799
5,1.01805561097552,-0.14583334384257,0.111111119697004,-0.0167987942695618,-0.0033597587607801,0.00244346098043024
5,1.01666671909226,-0.144444451959316,0.120833338567854,0.00824668072164059,-0.00916297826915979,0.00946841109544039
5,1.01527782720901,-0.141666668192807,0.126388893944906,0.0171042270958424,-0.00671951752156019,0.0113010071218014
5,1.0125000434425,-0.13750000469901,0.126388893944906,0.0268780700862408,-0.00733038317412138,0.011606439948082
5,1.02083339474202,-0.136111112815755,0.120833338567854,0.0299323964864016,-0.0122173046693206,0.00610865233466029
5,1.01666671909226,-0.133333341205212,0.1194444466846,0.0244346093386412,-0.0134390350431204,0.00549778714776039
5,1.01805561097552,-0.140277788465518,0.120833338567854,0.0222965814173222,-0.00519235478714108,0.0106901414692402
5,1.01527782720901,-0.144444451959316,0.125000002061652,0.021685715764761,-0.00183259579353034,0.00580321997404099
5,1.01527782720901,-0.136111112815755,0.118055554801345,0.027488935738802,0.00580321997404099,-0.0045814891345799
5,1.01666671909226,-0.134722233088466,0.1194444466846,0.029626963660121,-0.0027488935738802,0.00366519158706069
5,1.02222228662528,-0.12916666555545,0.122222230451108,0.01588249579072,-0.00488692196086049,0.00152716308366507
5,1.02222228662528,-0.126388893944906,0.1194444466846,0.0125227374956012,-0.00488692196086049,0.00610865233466029
5,1.01527782720901,-0.130555557438704,0.12777778582816,0.00549778714776039,-0.00641408516094089,-0.00122173049021512
5,1.01111115155925,-0.130555557438704,0.133333341205212,0.0103847095742822,-0.00244346098043024,-0.00397062394768
5,1.01527782720901,-0.130555557438704,0.120833338567854,0.00702495034784079,0.000916297896765172,-0.00733038317412138
5,1.01527782720901,-0.134722233088466,0.118055554801345,0.0180205255746841,0.00916297826915979,-0.011606439948082
5,1.01805561097552,-0.13750000469901,0.120833338567854,0.013744467869401,0.00977384392172098,-0.019547687843442
5,1.01388893532575,-0.12916666555545,0.126388893944906,0.00885754637420177,0.00152716308366507,-0.0262672062963247
5,1.01111115155925,-0.125000002061652,0.134722233088466,0.00702495034784079,0.0027488935738802,-0.0128281703218818
5,1.01805561097552,-0.131944449321958,0.133333341205212,0.00671951752156019,-0.00122173049021512,-0.015577063895762
5,1.01666671909226,-0.136111112815755,0.123611110178398,0.00397062394768,-0.00580321997404099,-0.0128281703218818
5,1.01805561097552,-0.13750000469901,0.120833338567854,0.00855211354792118,-0.00244346098043024,-0.0198531206697226
5,1.01666671909226,-0.134722233088466,0.125000002061652,0.00733038317412138,0.00305432616733015,-0.0103847095742822
5,1.01944450285877,-0.13750000469901,0.12777778582816,-0.000916297896765172,0.00733038317412138,-0.0125227374956012
5,1.01944450285877,-0.138888896582264,0.136111112815755,0.00641408516094089,0.00488692196086049,-0.0140499006956816
5,1.01111115155925,-0.134722233088466,0.125000002061652,0.0167987942695618,-0.00702495034784079,-0.00855211354792118
5,1.01527782720901,-0.13750000469901,0.125000002061652,0.0229074470698834,-0.0167987942695618,0.0045814891345799
5,1.01944450285877,-0.13750000469901,0.118055554801345,0.0207694191485643,-0.0235183127224445,0.0113010071218014
5,1.01805561097552,-0.133333341205212,0.1194444466846,0.0366519130766392,-0.017409659922123,0.00733038317412138
5,1.01805561097552,-0.133333341205212,0.1194444466846,0.0302378293126821,-0.0259617734700441,-0.00305432616733015
5,1.01388893532575,-0.122222230451108,0.123611110178398,0.0180205255746841,-0.0134390350431204,0.00488692196086049
5,1.02083339474202,-0.113888891307548,0.12916666555545,-0.00152716308366507,-0.0183259565383196,0.0244346093386412
5,1.01805561097552,-0.113888891307548,0.12916666555545,-0.00946841109544039,-0.00733038317412138,0.0268780700862408
5,1.01944450285877,-0.1194444466846,0.12777778582816,-0.0143553335219622,-0.019547687843442,0.0299323964864016
5,1.02222228662528,-0.120833338567854,0.125000002061652,-0.0180205255746841,-0.0131336031481624,0.0271835029125214
5,1.02222228662528,-0.125000002061652,0.13750000469901,-0.0189368221908808,-0.00794124789535999,0.0146607663482428
5,1.01944450285877,-0.12777778582816,0.120833338567854,-0.019547687843442,-0.000916297896765172,0.000610865245107561
5,1.01527782720901,-0.131944449321958,0.122222230451108,-0.0226020142436027,0.000916297896765172,0.0027488935738802
5,1.01527782720901,-0.131944449321958,0.122222230451108,-0.00671951752156019,-0.000305432622553781,0.00397062394768
5,1.01944450285877,-0.131944449321958,0.1194444466846,-0.00519235478714108,0.000916297896765172,-0.00366519158706069
5,1.0125000434425,-0.130555557438704,0.113888891307548,0.00427605677396059,-0.00916297826915979,0.0045814891345799
5,1.0125000434425,-0.130555557438704,0.113888891307548,0.00122173049021512,0.000305432622553781,-0.00366519158706069
5,1.02222228662528,-0.136111112815755,0.12777778582816,0.00580321997404099,-0.000610865245107561,0.000610865245107561
5,1.01666671909226,-0.136111112815755,0.1194444466846,0.00183259579353034,-0.000610865245107561,-0.00305432616733015
5,1.01111115155925,-0.144444451959316,0.10972222781375,0.0125227374956012,-0.00305432616733015,0.00397062394768
5,1.01527782720901,-0.144444451959316,0.118055554801345,0.01588249579072,0.000305432622553781,0.00549778714776039
5,1.01666671909226,-0.141666668192807,0.108333335930496,0.0146607663482428,-0.00488692196086049,0.00427605677396059
5,1.02083339474202,-0.138888896582264,0.10972222781375,0.0113010071218014,-0.0103847095742822,0.0140499006956816
5,1.01944450285877,-0.133333341205212,0.111111119697004,0.00733038317412138,-0.0122173046693206,0.0122173046693206
5,1.01527782720901,-0.134722233088466,0.122222230451108,0.0161879286170006,-0.01191187184304,0.0222965814173222
5,1.01527782720901,-0.131944449321958,0.113888891307548,0.01588249579072,-0.00824668072164059,0.0213802829384804
5,1.02222228662528,-0.136111112815755,0.1194444466846,0.0213802829384804,-0.00733038317412138,0.00824668072164059
5,1.02083339474202,-0.134722233088466,0.120833338567854,0.0122173046693206,-0.00885754637420177,0.00763581553474069
5,1.01944450285877,-0.140277788465518,0.108333335930496,0.0152716310694814,0.00152716308366507,-0.00305432616733015
5,1.02222228662528,-0.131944449321958,0.123611110178398,0.0232128798961639,0.00702495034784079,0.00397062394768
5,1.01666671909226,-0.130555557438704,0.1194444466846,0.0262672062963247,0.00183259579353034,0.00824668072164059
5,1.01944450285877,-0.130555557438704,0.108333335930496,0.0277943685650826,0.0033597587607801,0.00610865233466029
5,1.01805561097552,-0.12777778582816,0.115277783190802,0.0253509078174829,-0.00855211354792118,0.0100792767480016
5,1.01527782720901,-0.12777778582816,0.12916666555545,0.015577063895762,-0.00427605677396059,0.00610865233466029
5,1.01388893532575,-0.126388893944906,0.120833338567854,0.0122173046693206,-0.00397062394768,0.0128281703218818
5,1.01527782720901,-0.130555557438704,0.113888891307548,0.00397062394768,0.00702495034784079,0.00610865233466029
5,1.02083339474202,-0.130555557438704,0.112499999424294,0.00305432616733015,0.0027488935738802,-0.00244346098043024
5,1.02083339474202,-0.130555557438704,0.113888891307548,-0.00488692196086049,-0.00152716308366507,0.00427605677396059
5,1.02222228662528,-0.12916666555545,0.120833338567854,-0.00488692196086049,0.0033597587607801,0.000610865245107561
5,1.01666671909226,-0.13750000469901,0.112499999424294,-0.00855211354792118,-0.0027488935738802,0.00244346098043024
5,1.01666671909226,-0.134722233088466,0.122222230451108,0.000610865245107561,0.00549778714776039,0.0033597587607801
5,1.01388893532575,-0.13750000469901,0.118055554801345,0.00305432616733015,-0.0100792767480016,0.00244346098043024
5,1.01805561097552,-0.13750000469901,0.118055554801345,0.00580321997404099,0.00305432616733015,-0.000916297896765172
5,1.01666671909226,-0.134722233088466,0.12777778582816,0.00519235478714108,0.00580321997404099,-0.00152716308366507
5,1.01805561097552,-0.138888896582264,0.118055554801345,0.000916297896765172,0.0021380283869803,0.00183259579353034
5,1.01944450285877,-0.13750000469901,0.113888891307548,-0.00855211354792118,0.00183259579353034,0.00824668072164059
5,1.01944450285877,-0.13750000469901,0.113888891307548,-0.000916297896765172,0.00855211354792118,-0.000305432622553781
5,1.01527782720901,-0.133333341205212,0.125000002061652,0.000305432622553781,0.000305432622553781,0.00152716308366507
5,1.02083339474202,-0.13750000469901,0.118055554801345,-0.000916297896765172,0.000916297896765172,0.000305432622553781
5,1.02083339474202,-0.13750000469901,0.118055554801345,0.0109955742955208,0.00366519158706069,-0.00794124789535999
5,1.01111115155925,-0.141666668192807,0.112499999424294,0.0113010071218014,0.00610865233466029,-0.00488692196086049
5,1.01388893532575,-0.140277788465518,0.120833338567854,0.0152716310694814,0.00641408516094089,-0.00763581553474069
