Activity,acc_x,acc_y,acc_z,gyro_x,gyro_y,gyro_z
0,0.512500035195893,0.181944447715425,0.848611190209378,-0.000916297896765172,0.0354301854968071,-0.03176499158144
0,0.515277818962402,0.180555567988136,0.82916670384382,-0.015577063895762,0.102930791676045,-0.0436768643558025
0,0.509722251429385,0.170833336961321,0.834722271376837,-0.0100792767480016,0.197004035115242,-0.0580321997404099
0,0.509722251429385,0.170833336961321,0.834722271376837,0.0198531206697226,0.139277279376984,-0.0638354197144508
0,0.519444445988306,0.163888889701015,0.858333336144441,0.0497855171561241,0.115758962929249,-0.0656680166721344
0,0.519444445988306,0.163888889701015,0.858333336144441,0.0778853222727776,0.121256753802299,-0.0607810914516449
0,0.515277818962402,0.161111118090472,0.87500003874349,0.11636982858181,0.112704634666443,-0.0589484944939613
0,0.513888927079148,0.177777784221628,0.877777822509998,0.120035022497177,0.118202425539494,-0.0870482996106148
0,0.518055554105052,0.181944447715425,0.86805557932722,0.0754418596625328,0.139582708477974,-0.0873537287116051
0,0.513888927079148,0.187500003092477,0.866666687443965,0.0543670058250427,0.0491746515035629,-0.064446285367012
0,0.509722251429385,0.188888894975731,0.870833363093728,0.0705549344420433,-0.0262672062963247,-0.0390953756868839
0,0.502777792013115,0.194444450352783,0.884722281926269,0.0491746515035629,-0.0235183127224445,-0.0323758572340012
0,0.502777792013115,0.194444450352783,0.884722281926269,0.0442877300083637,-0.081855945289135,-0.0122173046693206
0,0.502777792013115,0.195833342236038,0.873611146860236,0.0546724386513233,-0.0751364231109619,-0.00580321997404099
0,0.497222224480098,0.19166667874224,0.858333336144441,0.0351247526705265,-0.0360410511493683,-0.01588249579072
0,0.502777792013115,0.197222234119292,0.849999984844916,0.0226020142436027,-0.0167987942695618,0.00122173049021512
0,0.50138890012986,0.202777789496344,0.844444514559616,0.0348193198442459,-0.00671951752156019,-0.00671951752156019
0,0.500000008246606,0.202777789496344,0.861111119910949,0.0180205255746841,-0.0632245540618896,-0.0122173046693206
0,0.497222224480098,0.205555561106887,0.858333336144441,-0.0213802829384804,-0.0403171069920063,-0.0354301854968071
0,0.49444444071359,0.202777789496344,0.837500055143345,-0.0381790772080422,0.00794124789535999,-0.0552833043038845
0,0.49444444071359,0.200000005729836,0.837500055143345,-0.0122173046693206,-0.00366519158706069,-0.0583376325666905
0,0.50138890012986,0.194444450352783,0.826388920077312,0.0384845100343227,-0.0021380283869803,-0.0308486949652433
0,0.502777792013115,0.18333333959868,0.812500049868629,0.0864374339580536,0.0384845100343227,-0.0134390350431204
0,0.50138890012986,0.175000000455119,0.820833352544296,0.0968221426010132,0.037568211555481,0.0180205255746841
0,0.486111138037923,0.170833336961321,0.84583340644287,0.0717766657471657,0.0167987942695618,0.0290160998702049
0,0.49444444071359,0.19166667874224,0.854166660494678,-0.0280998013913631,0.0342084541916847,-0.00122173049021512
0,0.49444444071359,0.19166667874224,0.854166660494678,-0.0442877300083637,0.0335975885391235,-0.0183259565383196
0,0.493055597454194,0.190277786858986,0.840277838909853,-0.00244346098043024,-0.0180205255746841,-0.0149661982432008
0,0.498611116363352,0.197222234119292,0.837500055143345,0.000916297896765172,0.0418442711234093,-0.0421497002243996
0,0.476388894855144,0.223611131277262,0.831944487610329,-0.0714712366461754,0.165544480085373,-0.114537231624126
0,0.473611111088636,0.259722222994153,0.844444514559616,-0.208610475063324,0.16890424489975,-0.0952949747443199
0,0.515277818962402,0.311111125426839,0.826388920077312,-0.145996794104576,-0.176234617829323,0.0632245540618896
0,0.531944472937593,0.279166685047782,0.791666671619817,-0.0751364231109619,0.130114302039146,0.322231411933899
0,0.551388910679293,0.269444466176932,0.752777796136418,-0.0616973899304867,0.266642689704895,0.437990367412567
0,0.536111148587356,0.240277785252453,0.761111147435943,0.0122173046693206,0.318566232919693,0.474031418561935
0,0.519444445988306,0.211111128639904,0.786111152710659,0.0812450796365738,0.410196006298065,0.464563012123108
0,0.495833332596844,0.148611115453114,0.830555595727074,0.368351757526398,0.308792382478714,0.459370672702789
0,0.411111122213775,0.055555559848502,0.906944454810619,0.590706706047058,-0.0668897479772568,0.282219737768173
0,0.343055565805897,-0.0138888899621255,0.98888888142718,0.490219354629517,-0.226020142436027,-0.070249505341053
0,0.325000019947452,-0.0250000007162294,1.0305556379248,0.125227376818657,-0.12156218290329,-0.537256002426147
0,0.352777784676747,0.029166668768514,1.01527782720901,-0.267253547906876,-0.156992360949516,-0.992045164108276
0,0.440277803138253,0.15555556271342,0.956944465360051,-0.0418442711234093,-0.399505883455276,-1.02045035362244
0,0.627777818386695,0.318055560531181,0.825000028194058,0.486248731613159,-0.757778346538544,-0.30695977807045
0,0.781944477060896,0.437500019371745,0.673611153286365,0.572075307369232,-0.384539663791656,0.342084527015686
0,0.811111157985375,0.479166678621653,0.587500002396184,0.36529740691185,0.346360594034195,0.731511116027832
0,0.737500034044481,0.463888916529715,0.644444472361887,0.0849102661013603,0.705854773521423,1.05190992355347
0,0.569444456537738,0.352777784676747,0.781944477060896,-0.0113010071218014,0.554054796695709,1.15881133079529
0,0.415277797863537,0.18333333959868,0.909722238577127,0.108123145997524,0.220216915011406,0.897055625915527
0,0.309722233543585,0.0388888906783549,1.00972225967599,0.171347707509995,-0.0189368221908808,0.412334054708481
0,0.263888898643915,-0.0222222230277034,1.06250005399193,0.123700208961964,-0.308486938476563,-0.0977384373545647
0,0.29166668768514,-0.0194444453391775,1.03472221632685,-0.00916297826915979,-0.379347324371338,-0.584903478622437
0,0.370833354847121,0.0638888929140799,0.961111141009813,-0.0901026204228401,-0.308792382478714,-0.723875343799591
0,0.522222229754814,0.161111118090472,0.843055622676362,-0.0604756586253643,-0.361632227897644,-0.450513124465942
0,0.611111115787646,0.223611131277262,0.726388898978447,-0.0516181141138077,-0.138055548071861,-0.0198531206697226
0,0.61944446708717,0.238888893369199,0.655555558804062,-0.0772744566202164,0.320704251527786,0.263282924890518
0,0.551388910679293,0.226388890731841,0.695833374794573,-0.0913243517279625,0.518319189548492,0.355523586273193
0,0.452777781463682,0.14722222356986,0.78333336894415,-0.00122173049021512,0.420580714941025,0.25870144367218
0,0.366666679197359,0.0805555590452358,0.873611146860236,0.173485726118088,0.204028993844986,-0.126143679022789
0,0.365277787314105,0.0722222259796579,0.952777789710289,0.0864374339580536,0.0714712366461754,-0.495106279850006
0,0.380555573717971,0.104166672436698,0.976388951725609,-0.01588249579072,0.0177150927484035,-0.753196835517883
0,0.466666700296224,0.231944458264858,0.952777789710289,-0.0113010071218014,-0.0824668109416962,-0.84574294090271
0,0.495833332596844,0.29166668768514,0.915277806110144,0.0629191175103188,-0.209221348166466,-0.66126161813736
0,0.655555558804062,0.381944465601225,0.769444450111609,0.0711658000946045,-0.223882108926773,-0.202807262539864
0,0.673611153286365,0.381944465601225,0.729166682744956,-0.0293215326964855,0.126449108123779,0.176845490932465
0,0.644444472361887,0.358333352209763,0.702777785586986,-0.029626963660121,0.426689386367798,0.463341295719147
0,0.565277780887976,0.313888909193348,0.733333358394718,-0.0134390350431204,0.50793445110321,0.540004849433899
0,0.436111127488491,0.213888888094483,0.833333379493583,0.0952949747443199,0.378736466169357,0.442877292633057
0,0.326388911830706,0.116666675074056,0.929166724942685,0.255036234855652,-0.0280998013913631,0.111788339912891
0,0.326388911830706,0.116666675074056,0.929166724942685,0.213497400283814,-0.156686931848526,-0.339335650205612
0,0.362500003547597,0.144444451959316,0.951388897827035,0.0219911485910416,-0.0665843114256859,-0.509767055511475
0,0.408333338447267,0.20138889761309,0.926388941176177,-0.0971275717020035,-0.107206851243973,-0.466090172529221
0,0.469444484062732,0.252777787889811,0.870833363093728,-0.0268780700862408,-0.118202425539494,-0.284052342176437
0,0.527777797287831,0.295833339022973,0.773611125761372,0.0305432621389627,0.0329867228865623,-0.0302378293126821
0,0.545833343146276,0.315277801076602,0.744444493460751,0.0696386396884918,0.248316720128059,0.209832206368446
0,0.522222229754814,0.312500017310094,0.740277817810989,0.11606439948082,0.326812893152237,0.358272463083267
0,0.454166673346937,0.273611117514765,0.801388914802596,0.171347707509995,0.305127203464508,0.392175495624542
0,0.415277797863537,0.237500001485945,0.861111119910949,0.25411993265152,0.167377084493637,0.241597205400467
0,0.402777795226179,0.238888893369199,0.894444525109048,0.225103840231896,0.15851953625679,0.123394779860973
0,0.411111122213775,0.236111109602691,0.916666697993398,0.0598647929728031,0.13225232064724,0.058643065392971
0,0.415277797863537,0.226388890731841,0.913888914226889,-0.0290160998702049,0.151800006628036,-0.00824668072164059
0,0.443055586904762,0.226388890731841,0.895833319744586,-0.03176499158144,0.135917514562607,-0.0565050356090069
0,0.452777781463682,0.230555566381603,0.859722228027695,0.0629191175103188,0.118202425539494,-0.0366519130766392
0,0.479166678621653,0.251388896006557,0.844444514559616,0.150883719325066,0.0714712366461754,0.0284052342176437
0,0.480555570504907,0.254166679773066,0.848611190209378,0.145080491900444,0.0381790772080422,0.0757472887635231
0,0.476388894855144,0.268055574293678,0.854166660494678,0.129503428936005,0.0507018156349659,0.0821613743901253
0,0.469444484062732,0.279166685047782,0.879166714393253,0.109039448201656,0.0345138870179653,0.081855945289135
0,0.469444484062732,0.275000009398019,0.877777822509998,0.0781907513737679,0.0372627787292004,0.127976268529892
0,0.473611111088636,0.272222225631511,0.877777822509998,0.0595593601465225,0.0580321997404099,0.167987942695618
0,0.456944457113445,0.25555557165632,0.890277849459286,0.05283984541893,0.0803287774324417,0.193338856101036
0,0.456944457113445,0.25555557165632,0.890277849459286,0.0479529201984406,0.0253509078174829,0.214719131588936
0,0.441666695021508,0.259722222994153,0.888888957576031,0.0345138870179653,-0.01191187184304,0.235793977975845
0,0.430555559955475,0.248611112240049,0.884722281926269,0.0262672062963247,-0.0171042270958424,0.2165517359972
0,0.412500014097029,0.252777787889811,0.877777822509998,0.0384845100343227,0.0103847095742822,0.201890960335732
0,0.412500014097029,0.252777787889811,0.877777822509998,0.0360410511493683,-0.0546724386513233,0.207694187760353
0,0.427777776188966,0.238888893369199,0.854166660494678,0.00794124789535999,-0.0568104684352875,0.187535628676414
0,0.44583337067127,0.231944458264858,0.847222298326124,-0.0171042270958424,-0.0485637858510017,0.182343274354935
0,0.44583337067127,0.231944458264858,0.847222298326124,0.0397062413394451,-0.0928515195846558,0.288939267396927
0,0.449999997697174,0.238888893369199,0.816666676894533,-0.0604756586253643,-0.0198531206697226,0.343611687421799
0,0.411111122213775,0.265277790527169,0.826388920077312,-0.152410879731178,0.0128281703218818,0.292604446411133
0,0.469444484062732,0.250000004123303,0.858333336144441,-0.177150920033455,0.109344877302647,0.297185927629471
0,0.486111138037923,0.223611131277262,0.85138887672817,-0.145996794104576,0.25870144367218,0.270307868719101
0,0.486111138037923,0.197222234119292,0.862500011794203,-0.115453533828259,0.417526394128799,0.223882108926773
0,0.469444484062732,0.18333333959868,0.873611146860236,-0.0769690200686455,0.302378296852112,0.248011291027069
0,0.44583337067127,0.184722231481934,0.884722281926269,-0.00794124789535999,0.133168622851372,0.217468023300171
0,0.456944457113445,0.195833342236038,0.879166714393253,-0.00366519158706069,0.172874867916107,0.120035022497177
0,0.452777781463682,0.198611113846581,0.879166714393253,-0.00397062394768,0.243735238909721,0.0302378293126821
0,0.456944457113445,0.190277786858986,0.854166660494678,0.0125227374956012,0.225714713335037,-0.0522289797663689
0,0.436111127488491,0.19166667874224,0.852777768611424,0.0956004112958908,0.31245756149292,-0.134084925055504
0,0.436111127488491,0.19166667874224,0.852777768611424,0.117896988987923,0.470671683549881,-0.148745685815811
0,0.416666689746791,0.20138889761309,0.854166660494678,0.0345138870179653,0.881478548049927,-0.116675265133381
0,0.416666689746791,0.20138889761309,0.854166660494678,0.272751331329346,0.261450320482254,0.104457959532738
0,0.269444466176932,0.229166674498349,0.929166724942685,0.588568687438965,-0.781296670436859,0.283746898174286
0,0.350000000910239,0.216666671860991,0.63888890482887,0.218689754605293,-0.784961819648743,0.23823744058609
0,0.456944457113445,0.200000005729836,0.919444481759906,0.382401645183563,-0.852767884731293,0.112399205565453
0,0.49444444071359,0.212499996211229,0.870833363093728,0.0629191175103188,-0.518930017948151,0.0812450796365738
0,0.500000008246606,0.2194444556275,0.815277785011279,-0.422413319349289,-0.567493796348572,0.294131606817245
0,0.373611114301701,0.17361112072783,0.616666683320662,-0.88819807767868,-0.706771075725555,0.465173870325089
0,0.459722240879953,0.177777784221628,0.722222271952543,-1.59955060482025,-1.133460521698,0.699746131896973
0,0.523611121638068,0.156944454596674,0.865277795560711,-1.24097275733948,-0.843299448490143,0.56657749414444
0,0.481944462388161,0.131944449321958,0.683333347845286,-1.44378006458282,-0.906218588352203,0.678060412406921
0,0.526388905404577,0.0763888894734557,0.823611136310804,-2.09557318687439,-1.17438840866089,0.875369906425476
0,0.526388905404577,0.0763888894734557,0.823611136310804,-1.3200798034668,-1.32160699367523,0.806647539138794
0,0.577777807837263,0.00972222266958873,0.930555616825939,-1.02319931983948,-1.52624678611755,0.805120408535004
0,0.577777807837263,0.00972222266958873,0.930555616825939,-0.558636248111725,-1.37597393989563,0.748920798301697
0,0.630555602153203,-0.0361111129898289,0.808333374218867,-0.405614525079727,-1.50761544704437,0.844826638698578
0,0.659722234453824,-0.055555559848502,0.77638890952788,-0.394008070230484,-1.80205249786377,0.977689802646637
0,0.726388898978447,-0.0388888906783549,0.775000017644626,-0.336586743593216,-1.54884886741638,0.942259669303894
0,0.726388898978447,-0.0388888906783549,0.775000017644626,-0.0956004112958908,-0.683863639831543,0.587957799434662
0,0.644444472361887,-0.0638888929140799,0.701388893703731,0.235793977975845,-0.362243086099625,0.360105067491531
0,0.66527780198684,-0.0375000018340919,0.656944450687316,0.0464257597923279,-0.358272463083267,0.397367835044861
0,0.740277817810989,-0.00972222266958873,0.745833336720147,-0.13225232064724,-0.160046696662903,0.182954147458077
0,0.740277817810989,-0.00972222266958873,0.745833336720147,0.187535628676414,0.731205701828003,-0.159435823559761
0,0.80277780668585,-0.112499999424294,0.849999984844916,0.562912344932556,0.912632703781128,-0.394618958234787
0,0.786111152710659,-0.190277786858986,0.755555579902926,0.861930847167969,0.566272079944611,-0.380569040775299
0,0.786111152710659,-0.190277786858986,0.755555579902926,0.852462470531464,0.264504641294479,-0.200974673032761
0,0.765277823085705,-0.030555557612777,0.5930555699292,0.405614525079727,0.368351757526398,-0.263588339090347
0,0.765277823085705,-0.030555557612777,0.5930555699292,0.181732416152954,0.187230199575424,-0.357050746679306
0,0.652777823661411,-0.055555559848502,0.611111115787646,-0.0421497002243996,-0.0888808965682983,-0.0329867228865623
0,0.644444472361887,-0.12916666555545,0.650000039894903,0.610254406929016,-0.18020524084568,-0.120340451598167
0,0.769444450111609,-0.169444445078067,0.759722255552688,0.989907145500183,0.0284052342176437,-0.404392778873444
0,0.794444455386325,-0.0777777813567098,0.754166688019672,1.13743114471436,0.783434689044952,-0.711047172546387
0,0.773611125761372,-0.0138888899621255,0.752777796136418,1.06931960582733,1.66888380050659,-1.00181901454925
0,0.611111115787646,0.102777780553444,0.629166710269949,1.49203836917877,1.41384756565094,-0.51923543214798
0,0.622222250853679,0.1194444466846,0.591666678045946,0.482278108596802,-0.353996396064758,-0.248316720128059
0,0.666666693870094,-0.029166668768514,0.50138890012986,-0.541532039642334,-3.43886590003967,-0.588874101638794
0,0.640277796712124,0.00972222266958873,0.436111127488491,-2.03693008422852,-4.83194398880005,-0.483805269002914
0,0.745833336720147,-0.00555555575692586,0.565277780887976,-2.53325819969177,-3.27576494216919,-0.173791155219078
0,0.923611157409668,-0.0222222230277034,0.680555564078778,-2.2033908367157,-0.557719945907593,-0.652709543704987
0,0.99583334084345,-0.0236111118719664,0.743055601577497,-1.70309233665466,1.25685524940491,-1.17377758026123
0,0.895833319744586,-0.027777779924251,0.640277796712124,-1.38544237613678,0.674089789390564,-1.31274938583374
0,0.791666671619817,-0.0902777839940679,0.541666667496514,-0.863458037376404,-1.2000447511673,-1.92330920696259
0,0.738888925927735,0.00277777787846293,0.568055564654484,-1.27945721149445,-1.19485247135162,-1.95812857151031
0,0.952777789710289,-0.0111111115138517,0.609722223904392,-1.54518365859985,-1.06260013580322,-1.19210350513458
0,1.0513889189259,-0.033333335301303,0.581944483487025,-1.54671084880829,-1.24311077594757,-0.470060795545578
0,1.01666671909226,-0.101388894748172,0.545833343146276,-1.62245810031891,-1.75776469707489,0.00733038317412138
0,0.858333336144441,-0.111111119697004,0.458333348996699,-1.70217597484589,-3.09433794021606,0.237321153283119
0,0.798611131036088,-0.13750000469901,0.404166687109433,-1.68446087837219,-4.04301166534424,0.210443079471588
0,0.775000017644626,-0.0875000002275597,0.336111130701556,-1.84542393684387,-4.69663763046265,0.451429426670075
0,0.861111119910949,-0.0611111152255539,0.359722244093018,-2.11878609657288,-4.48802709579468,0.319787949323654
0,0.861111119910949,-0.0611111152255539,0.359722244093018,-2.46087074279785,-3.6725218296051,0.718682944774628
0,0.861111119910949,-0.0611111152255539,0.359722244093018,-1.66705119609833,-3.22933912277222,0.985631048679352
0,0.861111119910949,-0.0611111152255539,0.359722244093018,-0.591928422451019,-2.47033905982971,1.22386848926544
0,0.861111119910949,-0.0611111152255539,0.359722244093018,-0.568410098552704,-1.65880453586578,1.30205929279327
0,0.940277860008718,-0.118055554801345,0.0694444482911319,-0.68172562122345,-2.24248623847961,1.67407619953155
0,0.89722221162784,-0.136111112815755,0.0361111129898289,-0.571769893169403,-2.64443564414978,1.85825204849243
0,0.854166660494678,-0.202777789496344,0.0222222230277034,-0.352774679660797,-2.63374543190002,1.79227864742279
0,0.884722281926269,-0.261111114877407,0.0708333340964038,-0.272140473127365,-3.17894268035889,1.55526292324066
0,1.00833336779274,-0.197222234119292,0.0472222237439329,-0.335975885391235,-2.31884455680847,1.11299645900726
0,1.09305557817581,-0.200000005729836,0.026388891079988,-0.380874484777451,-0.884227454662323,0.523511528968811
0,1.03194452980806,-0.163888889701015,-0.00555555575692586,-0.497855186462402,0.00946841109544039,0.471282541751862
0,0.947222222177272,-0.13750000469901,-0.0513888902767219,-0.584903478622437,-0.0122173046693206,0.231823354959488
0,1.0305556379248,-0.279166685047782,-0.15555556271342,-0.184786736965179,-0.120340451598167,0.490524798631668
0,1.00694447590948,-0.391666684472075,-0.120833338567854,-0.0534507073462009,-0.569326400756836,0.215940862894058
0,1.00972225967599,-0.376388898068209,-0.168055565350778,-0.0277943685650826,-0.636826992034912,-0.0543670058250427
0,0.92083337364316,-0.327777779402031,-0.18333333959868,-0.103847093880177,-1.13682019710541,0.0189368221908808
0,0.84583340644287,-0.343055565805897,-0.220833347510754,-0.197614908218384,-1.39552164077759,0.029626963660121
0,0.866666687443965,-0.426388884305712,-0.195833342236038,-0.153021737933159,-1.32069063186646,0.0714712366461754
0,0.952777789710289,-0.418055581630046,-0.237500001485945,0.0705549344420433,0.858265697956085,0.458454370498657
0,1.01527782720901,-0.512500035195893,-0.154166670830166,0.0888808965682983,1.16308736801148,0.547335267066956
0,1.06666672964169,-0.427777776188966,-0.266666682410424,-0.262366622686386,0.502131223678589,0.556498229503632
0,1.03472221632685,-0.356944460326509,-0.238888893369199,-0.523206055164337,0.377820163965225,0.606589198112488
0,0.976388951725609,-0.46527780841297,-0.18333333959868,-0.526871263980865,0.229379892349243,0.901331663131714
0,0.976388951725609,-0.46527780841297,-0.18333333959868,-0.362243086099625,0.532674491405487,1.14384520053864
0,1.03194452980806,-0.483333354271415,-0.190277786858986,-0.433408886194229,0.755334854125977,0.870177567005157
0,1.03194452980806,-0.483333354271415,-0.190277786858986,-0.62491512298584,0.456010907888412,0.489303052425385
0,0.948611114060526,-0.400000011459671,-0.223611131277262,-0.837496280670166,0.351552963256836,-0.117286130785942
0,0.888888957576031,-0.33750002258481,-0.263888898643915,-0.986852824687958,0.0561996027827263,-0.601396858692169
0,0.888888957576031,-0.33750002258481,-0.263888898643915,-1.19760131835938,-0.481056392192841,-1.06382179260254
0,0.888888957576031,-0.33750002258481,-0.263888898643915,-1.50731003284454,-0.0952949747443199,-1.44164192676544
0,0.847222298326124,-0.394444468238583,-0.304166666010569,-1.16858518123627,0.35491269826889,-1.4312572479248
0,0.847222298326124,-0.394444468238583,-0.304166666010569,-1.0845912694931,0.0751364231109619,-2.05708861351013
0,0.973611167959101,-0.441666695021508,-0.334722238818301,-0.477696627378464,0.512210488319397,-1.69942712783813
0,0.973611167959101,-0.441666695021508,-0.334722238818301,-0.416915535926819,0.631329238414764,-1.8735237121582
0,1.02222228662528,-0.309722233543585,-0.322222236180943,-0.341473668813705,0.516791999340057,-1.95568513870239
0,1.18055557232538,-0.243055569018962,-0.347222241455659,0.117591559886932,0.411723166704178,-1.46607661247253
0,1.18055557232538,-0.243055569018962,-0.347222241455659,-0.0910189226269722,-0.620333671569824,-1.03541660308838
0,1.04861113515939,-0.156944454596674,-0.309722233543585,-0.0369573459029198,-0.543670058250427,-0.765719592571259
0,1.05555559457566,-0.10972222781375,-0.243055569018962,-0.05283984541893,0.197309479117393,-0.50823986530304
0,0.904166671044111,-0.00416666691266287,-0.229166674498349,-0.323453158140182,0.129808858036995,-0.454789161682129
0,0.890277849459286,-0.027777779924251,-0.216666671860991,-0.431576281785965,0.167987942695618,-0.389121174812317
0,0.940277860008718,-0.0791666671619817,-0.233333350148112,-0.288022965192795,0.231823354959488,-0.087659165263176
0,0.984722303025134,-0.0236111118719664,-0.288888903918631,-0.153021737933159,0.293826192617416,0.202196389436722
0,1.01527782720901,-0.0236111118719664,-0.322222236180943,-0.184175878763199,0.25961771607399,0.23273965716362
0,0.98888888142718,-0.0236111118719664,-0.297222230906227,-0.315511912107468,0.251065611839294,0.27458393573761
0,0.959722249126559,-0.026388891079988,-0.272222225631511,-0.423940479755402,0.333226978778839,0.163406446576118
0,0.983333411141879,-0.0625000010308258,-0.270833333748257,-0.18509216606617,0.757472932338715,0.131641462445259
0,1.02222228662528,-0.0583333375370279,-0.327777779402031,0.0781907513737679,1.15209186077118,0.120951317250729
0,1.0513889189259,-0.0875000002275597,-0.290277795801886,0.0366519130766392,1.07603907585144,-0.00183259579353034
0,0.98888888142718,-0.101388894748172,-0.234722242031366,-0.0540615729987621,0.879340529441833,-0.0635299831628799
0,0.973611167959101,-0.0763888894734557,-0.184722231481934,-0.121867619454861,0.837190806865692,-0.181121543049812
0,0.980555627375371,-0.0611111152255539,-0.141666668192807,-0.160962998867035,0.609948933124542,-0.188146501779556
0,1.05000002704265,-0.0486111125881959,-0.105555564319952,0.177456349134445,0.589179515838623,-0.0103847095742822
0,1.09166668629255,-0.0458333348996699,-0.111111119697004,0.529620170593262,1.56350958347321,0.407447129487991
0,1.11111117265811,-0.177777784221628,-0.111111119697004,0.809701859951019,1.28190076351166,0.877813339233398
0,1.11111117265811,-0.177777784221628,-0.111111119697004,0.820697486400604,0.644157409667969,1.04366326332092
0,0.708333353120002,-0.327777779402031,0.120833338567854,1.0656543970108,1.09955739974976,1.54396188259125
0,0.708333353120002,-0.327777779402031,0.120833338567854,1.772425532341,3.45230484008789,2.39856243133545
0,0.708333353120002,-0.327777779402031,0.120833338567854,0.648433446884155,-0.527482151985168,1.16003310680389
0,0.708333353120002,-0.327777779402031,0.120833338567854,0.0742201283574104,-0.0305432621389627,1.24372160434723
0,0.708333353120002,-0.327777779402031,0.120833338567854,-0.594371855258942,-0.824362635612488,0.56016343832016
0,0.708333353120002,-0.327777779402031,0.120833338567854,-0.146607652306557,-0.0100792767480016,-0.153632611036301
0,1.147222264375,-0.20972223675665,-0.0916666697993398,-0.0161879286170006,0.103541657328606,-0.0656680166721344
0,1.147222264375,-0.20972223675665,-0.0916666697993398,-0.0995710343122482,0.29107728600502,-0.287106662988663
0,1.11805563207438,-0.25555557165632,0.00416666691266287,-0.0335975885391235,0.405309081077576,-0.442266434431076
0,1.11805563207438,-0.25555557165632,0.00416666691266287,-0.310319542884827,0.522595226764679,-0.44409903883934
0,1.00972225967599,-0.206944452990142,-0.0569444456537738,-0.469449937343597,0.478307485580444,-0.321620553731918
0,1.00972225967599,-0.206944452990142,-0.0569444456537738,-0.272140473127365,0.328950941562653,-0.138971850275993
0,0.979166735492117,-0.277777793164528,-0.00555555575692586,-0.137750118970871,0.166155353188515,-0.121867619454861
0,0.952777789710289,-0.204166669223633,0.0152777788063885,-0.293520748615265,-0.120645888149738,-0.121867619454861
0,0.940277860008718,-0.195833342236038,0.029166668768514,-0.457538068294525,-0.0693332031369209,-0.10598511993885
0,1.01527782720901,-0.177777784221628,0.00138888893923146,-0.514043092727661,-0.597731649875641,-0.153938040137291
0,1.06527783775844,-0.275000009398019,-0.0180555564949145,-0.583681762218475,-1.20432078838348,-0.428827404975891
0,1.09861114570882,-0.275000009398019,-0.0916666697993398,-1.00181901454925,-2.61847376823425,-0.644462823867798
0,1.09861114570882,-0.275000009398019,-0.0916666697993398,0.394618958234787,0.22785273194313,-1.01403629779816
0,0.872222254976982,-0.118055554801345,-0.116666675074056,0.23823744058609,-0.0800233483314514,-0.876897037029266
0,0.863888903677457,-0.144444451959316,-0.112499999424294,-0.000610865245107561,-0.745561003684998,-0.915381550788879
0,1.01944450285877,-0.168055565350778,-0.150000007336368,0.0366519130766392,-0.565661191940308,-0.839023411273956
0,1.01944450285877,-0.168055565350778,-0.150000007336368,0.281914323568344,-0.0595593601465225,-0.582765460014343
0,1.02361117850853,-0.123611110178398,-0.177777784221628,0.230907067656517,0.087659165263176,-0.605978310108185
0,0.899999995394348,-0.125000002061652,-0.0638888929140799,0.18539759516716,-0.421802461147308,-1.30755710601807
0,0.94305554652751,-0.133333341205212,-0.14722222356986,-0.0149661982432008,-0.288328409194946,-1.66369152069092
0,1.00555558402623,-0.0819444448505077,-0.104166672436698,-0.267253547906876,0.37568211555481,-1.41598558425903
0,1.08472222687628,0.0486111125881959,-0.150000007336368,-0.0448985956609249,0.664621412754059,-1.02014493942261
0,1.10138892947533,0.0875000002275597,-0.130555557438704,-0.142331600189209,0.970664858818054,-0.844826638698578
0,1.23750004229109,0.0180555564949145,-0.202777789496344,0.0268780700862408,1.32771563529968,-0.288633823394775
0,1.10000003759208,0.0666666706026059,0.029166668768514,0.0201585534960032,0.480750948190689,-0.126143679022789
0,1.04583335139288,0.0638888929140799,0.0180555564949145,-0.0244346093386412,-0.0342084541916847,-0.0189368221908808
0,1.03194452980806,0.055555559848502,-0.0152777788063885,-0.019547687843442,-0.291382730007172,0.0479529201984406
0,1.02222228662528,0.0750000036681839,-0.0513888902767219,-0.0470366254448891,-0.285884946584701,0.0378736443817616
0,1.0125000434425,0.0486111125881959,-0.0875000002275597,-0.265726387500763,0.225714713335037,0.0949895456433296
0,1.02083339474202,0.0652777787193518,-0.12916666555545,-0.348193198442459,0.64049220085144,0.106901414692402
0,1.00000001649321,0.0583333375370279,-0.108333335930496,-0.308486938476563,0.648738861083984,0.112399205565453
0,1.00694447590948,0.0416666683668809,0.0250000007162294,0.0122173046693206,0.36041048169136,0.0690277740359306
0,1.03472221632685,0.0361111129898289,0.0236111118719664,0.165849909186363,-0.0161879286170006,0.0122173046693206
0,1.03888889197661,0.033333335301303,-0.0472222237439329,0.0531452745199203,-0.0891863256692886,0.0183259565383196
0,1.04861113515939,0.0458333348996699,-0.00972222266958873,0.00855211354792118,-0.276111096143722,0.0308486949652433
0,1.01944450285877,0.0458333348996699,-0.0777777813567098,-0.0681114718317986,-0.173180297017098,0.081855945289135
0,1.01388893532575,0.0513888902767219,-0.0722222259796579,-0.0497855171561241,0.0470366254448891,0.106595985591412
0,0.994444448960196,0.0513888902767219,-0.0680555564078778,-0.0149661982432008,0.120951317250729,0.138666406273842
0,0.908333346693873,0.0416666683668809,-0.0541666679652478,-0.0397062413394451,0.076052725315094,0.25961771607399
0,0.925000049292922,0.029166668768514,-0.0638888929140799,-0.0128281703218818,0.172569438815117,0.376598417758942
0,0.826388920077312,0.0222222230277034,-0.0347222241455659,0.0439822971820831,0.119118720293045,1.07451200485229
0,0.745833336720147,0.0416666683668809,0.00555555575692586,0.118507854640484,-0.118202425539494,1.74799084663391
0,0.899999995394348,0.0152777788063885,0.0222222230277034,0.155770644545555,-0.608727216720581,1.68507182598114
0,1.02222228662528,-0.0708333340964038,0.0222222230277034,0.241597205400467,-0.709825396537781,1.13162791728973
0,0.99583334084345,-0.130555557438704,-0.0805555590452358,0.31703907251358,-0.525649547576904,0.812145352363586
0,1.13611112930897,-0.213888888094483,-0.118055554801345,0.29046642780304,-0.240680903196335,0.0421497002243996
0,1.15000004814151,-0.102777780553444,-0.14722222356986,0.361937671899795,0.188757359981537,-0.219911485910416
0,1.10416671324184,-0.106944444047242,-0.0888888921108138,0.214413702487946,0.299323976039886,-0.740674138069153
0,1.11527784830787,-0.0972222251763917,-0.101388894748172,0.155465200543404,0.341779112815857,-0.608421802520752
0,1.14027780495873,-0.0708333340964038,-0.0652777787193518,0.2379320114851,0.295658767223358,-0.231212496757507
0,1.13472223742571,-0.0652777787193518,-0.0458333348996699,0.159130394458771,0.223576679825783,-0.119729585945606
0,1.09166668629255,-0.0625000010308258,-0.0500000014324589,0.0332921557128429,0.0687223374843597,-0.117591559886932
0,1.02638896227504,-0.0638888929140799,-0.00833333382532574,-0.00671951752156019,-0.403476506471634,-0.112093769013882
0,1.02638896227504,-0.0638888929140799,-0.00833333382532574,0.0128281703218818,-0.281303435564041,-0.0809396430850029
0,1.02638896227504,-0.0638888929140799,-0.00833333382532574,-0.0311541277915239,-0.0503963828086853,-0.11117747426033
0,1.02638896227504,-0.0638888929140799,-0.00833333382532574,-0.0821613743901253,0.0720821022987366,-0.22204951941967
0,1.02638896227504,-0.0638888929140799,-0.00833333382532574,-0.143247902393341,0.117591559886932,-0.325285732746124
0,1.00000001649321,-0.052777782159976,-0.0250000007162294,0.0348193198442459,-0.183870434761047,-0.299934834241867
0,1.00000001649321,-0.052777782159976,-0.0250000007162294,0.131030589342117,-0.178067222237587,-0.335059583187103
0,1.03750000009336,-0.0500000014324589,-0.0722222259796579,0.13744467496872,0.00763581553474069,-0.39064833521843
0,1.02361117850853,-0.0652777787193518,-0.106944444047242,0.127976268529892,0.532979905605316,-0.373238652944565
0,1.02083339474202,-0.00694444498106275,-0.0722222259796579,0.123089343309402,0.686612546443939,-0.399811297655106
0,0.997222232726705,0.00277777787846293,-0.0361111129898289,0.193338856101036,0.297796815633774,-0.391870051622391
0,0.99583334084345,0.0138888899621255,-0.0222222230277034,0.147218525409698,0.185703039169311,-0.339946508407593
0,1.01666671909226,0.0222222230277034,-0.0361111129898289,0.120340451598167,0.11606439948082,-0.194560587406159
0,1.04583335139288,0.0111111115138517,-0.0458333348996699,0.0406225398182869,0.194255143404007,-0.0726929605007172
0,1.0305556379248,-0.0125000003581147,-0.027777779924251,0.0659734457731247,0.142637029290199,-0.0919352173805237
0,1.02916674604155,-0.00416666691266287,-0.029166668768514,0.0387899428606033,0.0577267669141293,-0.0919352173805237
0,1.04444445950963,0.0194444453391775,-0.0180555564949145,0.0113010071218014,0.0299323964864016,-0.0870482996106148
0,1.03472221632685,0.0180555564949145,-0.0250000007162294,-0.00794124789535999,0.0558941699564457,-0.0842994004487991
0,1.03194452980806,0.0111111115138517,-0.0152777788063885,0.0458148941397667,0.0931569486856461,-0.0919352173805237
0,1.0361111082101,0.0166666676506515,-0.027777779924251,0.0595593601465225,0.0913243517279625,-0.0473420582711697
0,1.03888889197661,0.0111111115138517,-0.03194444645704,0.0387899428606033,0.03176499158144,-0.027488935738802
0,1.02777785415829,0.00277777787846293,-0.0180555564949145,0.00855211354792118,-0.0387899428606033,-0.0186313893646002
0,1.01805561097552,0.0152777788063885,-0.0138888899621255,-0.000916297896765172,-0.0653625801205635,-0.0164933614432812
0,1.02083339474202,0.0194444453391775,-0.0250000007162294,-0.0232128798961639,-0.0250454749912024,0.00916297826915979
0,1.03194452980806,0.00972222266958873,-0.029166668768514,-0.00305432616733015,0.0583376325666905,0.0305432621389627
0,1.02222228662528,0.00555555575692586,-0.0166666676506515,0.0418442711234093,0.0656680166721344,0.0357356183230877
0,1.01944450285877,0.00972222266958873,-0.0152777788063885,0.0308486949652433,0.000610865245107561,0.0632245540618896
0,1.02500007039179,0.00555555575692586,-0.0138888899621255,-0.015577063895762,-0.0772744566202164,0.0922406539320946
0,1.02083339474202,0.00833333382532574,-0.0222222230277034,-0.0668897479772568,-0.113620936870575,0.171042263507843
0,1.02916674604155,0.0138888899621255,-0.03194444645704,-0.108428582549095,-0.0314595587551594,0.283136039972305
0,1.08333333499303,-0.027777779924251,-0.0486111125881959,-0.090408056974411,0.251371055841446,0.326812893152237
0,1.11388895642462,-0.0513888902767219,-0.033333335301303,0.0442877300083637,0.516486585140228,0.441350132226944
0,1.09861114570882,-0.0125000003581147,-0.026388891079988,0.10598511993885,0.623998820781708,0.49235737323761
0,1.09861114570882,-0.0125000003581147,-0.026388891079988,-0.0965167060494423,0.419358998537064,0.485943287611008
0,1.0513889189259,-0.00416666691266287,0.00833333382532574,-0.191506251692772,0.386066824197769,0.525954961776733
0,1.0513889189259,-0.00416666691266287,0.00833333382532574,-0.137750118970871,0.420275300741196,0.558941721916199
0,0.993055557076942,-0.0208333341834404,0.030555557612777,-0.113926365971565,0.432492583990097,0.437379509210587
0,0.976388951725609,-0.029166668768514,0.0388888906783549,-0.15332718193531,0.400422155857086,0.334448724985123
0,0.962500032893068,-0.0486111125881959,0.0388888906783549,-0.163406446576118,0.334143280982971,0.104763388633728
0,0.963888924776322,-0.055555559848502,0.0625000010308258,-0.138055548071861,0.244346097111702,0.0250454749912024
0,0.990277773310434,-0.0722222259796579,0.0458333348996699,-0.0827722400426865,0.139277279376984,0.0204639863222837
0,1.01666671909226,-0.0652777787193518,0.0541666679652478,-0.0815505087375641,0.0439822971820831,0.0418442711234093
0,1.02500007039179,-0.0597222233422998,0.0500000014324589,-0.143553331494331,-0.0534507073462009,0.0381790772080422
0,1.03750000009336,-0.0680555564078778,0.0500000014324589,-0.120340451598167,-0.0531452745199203,0.0192422550171614
0,1.03472221632685,-0.0652777787193518,0.0541666679652478,-0.0335975885391235,0.115453533828259,0.0152716310694814
0,1.0333333244436,-0.0694444482911319,0.0486111125881959,-0.0390953756868839,0.151800006628036,0.0106901414692402
0,1.03750000009336,-0.0611111152255539,0.0513888902767219,-0.0561996027827263,0.223271250724793,-0.00641408516094089
0,1.04583335139288,-0.0541666679652478,0.0666666706026059,-0.0143553335219622,0.149661988019943,0.0262672062963247
0,1.05416670269241,-0.0680555564078778,0.0625000010308258,-0.00152716308366507,0.0662788823246956,0.0626136884093285
0,0.994444448960196,-0.0458333348996699,0.0569444456537738,0.00549778714776039,-0.0870482996106148,0.0751364231109619
0,0.975000059842355,-0.052777782159976,0.0625000010308258,0.0226020142436027,-0.202807262539864,0.0568104684352875
0,0.98888888142718,-0.0833333367337618,0.0583333375370279,-0.011606439948082,-0.248011291027069,0.0421497002243996
0,1.02222228662528,-0.0944444474878658,0.0388888906783549,-0.0448985956609249,-0.131641462445259,-0.00733038317412138
0,1.03194452980806,-0.10972222781375,0.0513888902767219,-0.00794124789535999,-0.112704634666443,-0.00763581553474069
0,1.04166667574312,-0.0430555572111439,0.0625000010308258,0.0687223374843597,-0.0259617734700441,0.0207694191485643
0,1.02500007039179,-0.052777782159976,0.0388888906783549,0.0690277740359306,-0.0546724386513233,0.0656680166721344
0,1.02361117850853,-0.0902777839940679,0.0250000007162294,-0.0198531206697226,-0.0852157026529312,0.000916297896765172
0,1.02361117850853,-0.0902777839940679,0.0250000007162294,0.0711658000946045,-0.0497855171561241,-0.213802829384804
0,1.01944450285877,-0.100000002864918,0.033333335301303,0.218689754605293,-0.135612085461616,-0.0842994004487991
0,1.01944450285877,-0.100000002864918,0.033333335301303,0.0222965814173222,-0.298713117837906,-0.00702495034784079
0,1.01944450285877,-0.100000002864918,0.033333335301303,-0.0827722400426865,-0.279470860958099,0.0152716310694814
0,1.06250005399193,-0.0694444482911319,0.0222222230277034,-0.10598511993885,-0.290771842002869,-0.0345138870179653
0,1.06250005399193,-0.0694444482911319,0.0222222230277034,-0.0525344125926495,-0.120951317250729,-0.0827722400426865
0,1.05555559457566,-0.0847222225390337,0.0250000007162294,0.0332921557128429,-0.104457959532738,-0.021685715764761
0,1.02777785415829,-0.0777777813567098,0.0222222230277034,0.0180205255746841,-0.0659734457731247,-0.00549778714776039
0,1.01111115155925,-0.0722222259796579,0.0236111118719664,-0.0171042270958424,-0.134390354156494,-0.0354301854968071
0,1.01111115155925,-0.0722222259796579,0.0236111118719664,0.208610475063324,0.165849909186363,-0.159435823559761
0,1.10000003759208,-0.102777780553444,-0.0458333348996699,0.0974330082535744,0.40225476026535,-0.0849102661013603
0,1.10000003759208,-0.102777780553444,-0.0458333348996699,0.0629191175103188,-0.31703907251358,0.0400116741657257
0,0.941666654644256,-0.0611111152255539,0.0625000010308258,0.0812450796365738,-0.49235737323761,0.0513126812875271
0,1.04583335139288,-0.0569444456537738,0.0125000003581147,0.0198531206697226,-0.422107875347138,0.0305432621389627
0,1.06527783775844,-0.0777777813567098,-0.0430555572111439,-0.0448985956609249,-0.189062789082527,0.00519235478714108
0,1.05694448645892,-0.0750000036681839,-0.0166666676506515,0.0189368221908808,-0.0366519130766392,-0.013744467869401
0,0.99583334084345,-0.0736111117849297,-0.0194444453391775,0.0684169083833694,0.0033597587607801,-0.0372627787292004
0,0.958333357243305,-0.0777777813567098,-0.0194444453391775,0.100792765617371,-0.0262672062963247,-0.0830776765942574
0,1.04444445950963,-0.0583333375370279,0.00694444498106275,0.0879645943641663,0.0421497002243996,-0.0766635909676552
0,1.0361111082101,-0.0347222241455659,0.0125000003581147,0.0995710343122482,-0.149356558918953,0.0100792767480016
0,1.03194452980806,-0.0472222237439329,0.00138888893923146,0.102930791676045,-0.295353353023529,0.0754418596625328
0,1.06111116210868,-0.0750000036681839,-0.0500000014324589,0.0763581544160843,-0.138666406273842,0.0855211317539215
0,1.05972227022542,-0.0736111117849297,-0.0847222225390337,0.015577063895762,0.113010071218014,0.0711658000946045
0,1.05694448645892,-0.0625000010308258,-0.0472222237439329,0.0021380283869803,0.441350132226944,-0.027488935738802
0,1.01388893532575,-0.0652777787193518,0.0222222230277034,0.117896988987923,0.257479697465897,-0.0470366254448891
0,0.98888888142718,-0.0736111117849297,0.0208333341834404,0.205556154251099,0.125227376818657,-0.0482583530247212
0,1.02361117850853,-0.033333335301303,0.00416666691266287,0.0980438739061356,0.17989981174469,-0.0219911485910416
0,1.04027778385987,-0.033333335301303,-0.00972222266958873,0.0244346093386412,0.202807262539864,0.021685715764761
0,1.03472221632685,-0.0500000014324589,0.00416666691266287,-0.0161879286170006,0.147218525409698,0.00855211354792118
0,1.00416669214298,-0.0458333348996699,0.0111111115138517,0.03176499158144,0.153938040137291,-0.0381790772080422
0,0.991666665193688,-0.0458333348996699,0.00416666691266287,-0.0574213340878487,-0.04764748737216,-0.00244346098043024
0,1.05694448645892,-0.052777782159976,-0.0138888899621255,-0.145996794104576,0.128281697630882,-0.0363464802503586
0,1.03194452980806,-0.052777782159976,0.03194444645704,0.00397062394768,0.182954147458077,0.0164933614432812
0,1.03194452980806,-0.0722222259796579,0.029166668768514,0.123394779860973,0.124921940267086,0.0421497002243996
0,1.00555558402623,-0.0902777839940679,0.0125000003581147,0.172263994812965,-0.0384845100343227,-0.0546724386513233
0,1.04722224327614,-0.0916666697993398,0.0125000003581147,0.224187538027763,0.0277943685650826,-0.17440202832222
0,1.00138890837647,-0.108333335930496,0.0902777839940679,0.279165416955948,-0.170736834406853,-0.350025773048401
0,0.958333357243305,-0.00277777787846293,-0.0791666671619817,0.261144906282425,0.0354301854968071,-0.105068825185299
0,1.05000002704265,0.0180555564949145,0.0222222230277034,0.125532805919647,-0.081855945289135,-0.0213802829384804
0,1.0125000434425,-0.00555555575692586,0.0222222230277034,0.0678060427308083,-0.0824668109416962,0.0775798857212067
0,1.02500007039179,-0.0125000003581147,0.00972222266958873,-0.107512280344963,-0.146302223205566,0.0763581544160843
0,1.03194452980806,-0.027777779924251,0.00555555575692586,-0.122173048555851,-0.0592539273202419,0.0940732508897781
0,1.03194452980806,-0.027777779924251,0.00555555575692586,0.0149661982432008,-0.0791070461273193,0.0879645943641663
0,1.01527782720901,-0.0625000010308258,0.0458333348996699,-0.0763581544160843,-0.000610865245107561,0.0574213340878487
0,1.06666672964169,-0.0805555590452358,-0.029166668768514,-0.131946891546249,-0.0406225398182869,-0.0665843114256859
0,1.04305556762637,-0.0722222259796579,0.00972222266958873,-0.167987942695618,-0.0415388382971287,-0.0800233483314514
0,1.01111115155925,-0.03194444645704,0.029166668768514,-0.0946841165423393,-0.133168622851372,-0.0525344125926495
0,0.997222232726705,-0.0388888906783549,0.0180555564949145,-0.0394008085131645,-0.142331600189209,0.0592539273202419
0,1.02222228662528,-0.0458333348996699,0.00277777787846293,-0.140193566679955,-0.0314595587551594,-0.0638354197144508
0,1.08611111875954,-0.0805555590452358,-0.0194444453391775,-0.0839939713478088,0.0925460830330849,-0.120951317250729
0,1.05555559457566,-0.0500000014324589,0.0152777788063885,0.0235183127224445,0.163406446576118,-0.0729983970522881
0,1.00555558402623,-0.0375000018340919,0.03194444645704,0.0717766657471657,0.0513126812875271,-0.0192422550171614
0,0.962500032893068,-0.033333335301303,0.0361111129898289,-0.0177150927484035,-0.102014496922493,-0.0543670058250427
0,0.99583334084345,-0.0513888902767219,0.00972222266958873,-0.0568104684352875,-0.120035022497177,-0.195476874709129
0,1.04861113515939,-0.0583333375370279,0.00972222266958873,-0.0717766657471657,-0.0189368221908808,-0.0781907513737679
0,1.05833337834217,-0.027777779924251,-0.026388891079988,-0.113620936870575,0.195476874709129,-0.01588249579072
0,1.06250005399193,-0.0416666683668809,-0.0458333348996699,-0.201585531234741,0.210748508572578,0.00305432616733015
0,1.0361111082101,-0.027777779924251,-0.0458333348996699,-0.18539759516716,0.0986547395586967,0.0604756586253643
0,1.00416669214298,-0.029166668768514,0.029166668768514,0.0259617734700441,0.0497855171561241,0.0754418596625328
0,0.993055557076942,-0.0500000014324589,0.033333335301303,0.0482583530247212,-0.0503963828086853,0.124311074614525
0,1.01388893532575,-0.0597222233422998,0.0347222241455659,0.0262672062963247,-0.109039448201656,0.113315500319004
0,1.09861114570882,-0.0777777813567098,0.0125000003581147,0.122783914208412,0.309097826480865,-0.000305432622553781
0,1.05833337834217,-0.0930555616825939,-0.0194444453391775,0.0827722400426865,0.081855945289135,0.0965167060494423
0,1.04583335139288,-0.122222230451108,-0.0125000003581147,0.106595985591412,0.21135938167572,-0.00549778714776039
0,1.03888889197661,-0.0486111125881959,-0.0375000018340919,-0.109039448201656,0.226631000638008,0.135306656360626
0,1.01527782720901,-0.0652777787193518,0.0388888906783549,0.0739146918058395,-0.0201585534960032,0.0271835029125214
0,0.986111194908388,-0.0875000002275597,0.0388888906783549,0.200363799929619,-0.0751364231109619,0.280998021364212
0,0.993055557076942,-0.0777777813567098,0.00277777787846293,0.268475264310837,-0.0623082555830479,0.0888808965682983
0,0.986111194908388,-0.0805555590452358,0.0236111118719664,0.149967417120934,-0.152410879731178,-0.03176499158144
0,1.01666671909226,-0.0847222225390337,0.0208333341834404,0.0143553335219622,-0.248316720128059,-0.217162594199181
0,1.01666671909226,-0.0847222225390337,0.0208333341834404,0.0577267669141293,-0.0763581544160843,-0.146607652306557
0,1.00000001649321,-0.0375000018340919,0.055555559848502,0.196087747812271,-0.233350530266762,0.0507018156349659
0,1.08750001064279,-0.0638888929140799,0.00138888893923146,-0.0210748501121998,0.00946841109544039,-0.01191187184304
0,1.09166668629255,-0.0375000018340919,-0.0222222230277034,-0.151494577527046,0.132557764649391,0.0690277740359306
0,1.09166668629255,-0.0375000018340919,-0.0222222230277034,-0.138055548071861,0.0326812900602817,0.0513126812875271
0,1.07777786470773,0.0347222241455659,0.0444444460554069,-0.246484130620956,0.241902634501457,0.222965821623802
0,0.92083337364316,-0.0347222241455659,0.0416666683668809,0.00671951752156019,-0.225409269332886,0.0232128798961639
0,0.96666670854283,-0.03194444645704,0.00277777787846293,-0.128281697630882,-0.212275668978691,-0.161573857069016
0,0.972222276075846,-0.0194444453391775,0.0361111129898289,0.00122173049021512,-0.306348919868469,-0.153632611036301
0,1.01944450285877,-0.052777782159976,0.00277777787846293,-0.10598511993885,-0.112093769013882,-0.172874867916107
0,1.0513889189259,-0.0388888906783549,0.0111111115138517,-0.231823354959488,-0.0919352173805237,-0.112093769013882
0,1.0513889189259,-0.03194444645704,-0.0111111115138517,0.0928515195846558,0.129503428936005,-0.0207694191485643
0,1.02916674604155,-0.0513888902767219,0.00416666691266287,0.162184715270996,-0.01588249579072,-0.0925460830330849
0,1.02222228662528,-0.0722222259796579,-0.00416666691266287,0.198531210422516,-0.103541657328606,-0.0748309940099716
0,1.02777785415829,-0.0722222259796579,-0.0152777788063885,0.166766211390495,-0.12156218290329,-0.0897971913218498
0,1.03194452980806,-0.0638888929140799,-0.00972222266958873,0.116675265133381,-0.0974330082535744,-0.113620936870575
0,1.03194452980806,-0.0569444456537738,0.00694444498106275,0.0497855171561241,-0.170125976204872,-0.0424551330506802
0,1.02222228662528,-0.033333335301303,-0.00277777787846293,-0.0729983970522881,-0.223882108926773,-0.05283984541893
0,1.02361117850853,-0.0638888929140799,-0.0152777788063885,-0.0675006061792374,-0.18539759516716,-0.104152522981167
0,1.03750000009336,-0.0750000036681839,-0.027777779924251,-0.0394008085131645,-0.0659734457731247,-0.130114302039146
0,1.0361111082101,-0.0597222233422998,-0.0222222230277034,0.0253509078174829,0.0186313893646002,-0.0711658000946045
0,1.06250005399193,-0.0194444453391775,-0.029166668768514,0.0574213340878487,0.0977384373545647,-0.0189368221908808
0,1.02500007039179,0.00277777787846293,-0.029166668768514,-0.0537561401724815,0.0109955742955208,-0.00397062394768
0,1.00138890837647,-0.0250000007162294,0.00277777787846293,-0.0668897479772568,-0.0485637858510017,-0.0189368221908808
0,0.98888888142718,-0.0222222230277034,-0.00416666691266287,-0.0662788823246956,-0.140804439783096,0.0427605658769607
0,1.0333333244436,-0.0194444453391775,-0.00694444498106275,-0.00580321997404099,-0.0870482996106148,0.0455094613134861
0,1.04583335139288,-0.030555557612777,-0.0208333341834404,0.0574213340878487,-0.0311541277915239,0.00885754637420177
0,1.03194452980806,-0.0361111129898289,-0.0222222230277034,0.0766635909676552,0.0027488935738802,0.03176499158144
0,1.00972225967599,-0.029166668768514,-0.0208333341834404,0.0409279726445675,-0.0271835029125214,0.0830776765942574
0,1.01111115155925,-0.026388891079988,-0.0194444453391775,-0.0366519130766392,-0.0699440687894821,0.116675265133381
0,1.01944450285877,-0.027777779924251,-0.0236111118719664,-0.0397062413394451,0.0021380283869803,0.162184715270996
0,1.06250005399193,-0.0416666683668809,-0.0222222230277034,0.0445931628346443,0.157908663153648,0.134695783257484
0,1.04861113515939,-0.0444444460554069,-0.0180555564949145,0.081855945289135,0.268169850111008,0.127365410327911
0,1.03472221632685,-0.0722222259796579,-0.00972222266958873,0.0897971913218498,0.235488548874855,0.0546724386513233
0,1.04305556762637,-0.0541666679652478,-0.0125000003581147,0.0803287774324417,0.266948103904724,-0.00305432616733015
0,1.04166667574312,-0.0180555564949145,-0.00277777787846293,-0.01588249579072,0.207999616861343,0.0442877300083637
0,1.0513889189259,-0.0194444453391775,-0.0111111115138517,-0.0583376325666905,0.275805652141571,0.13744467496872
0,1.02361117850853,-0.033333335301303,0.00555555575692586,-0.0210748501121998,0.239459171891212,0.127976268529892
0,1.00138890837647,-0.0541666679652478,0.0125000003581147,0.0226020142436027,0.171042263507843,0.133168622851372
0,1.00277780025972,-0.0513888902767219,0.0111111115138517,0.0265726372599602,0.121256753802299,0.173791155219078
0,0.98888888142718,-0.0486111125881959,0.0361111129898289,-0.00519235478714108,-0.0705549344420433,0.151189148426056
0,1.02916674604155,-0.0722222259796579,0.0152777788063885,0.0164933614432812,-0.0525344125926495,0.0390953756868839
0,1.04583335139288,-0.0694444482911319,0.00416666691266287,-0.00397062394768,0.0458148941397667,0.0265726372599602
0,1.07222229717471,-0.0777777813567098,0.0125000003581147,0.0690277740359306,0.192117124795914,-0.0448985956609249
0,1.00000001649321,-0.0722222259796579,0.0152777788063885,-0.0635299831628799,-0.0409279726445675,0.0219911485910416
0,1.01527782720901,-0.0777777813567098,0.00555555575692586,-0.0565050356090069,-0.00427605677396059,0.00488692196086049
0,1.00833336779274,-0.0805555590452358,0.0125000003581147,-0.0632245540618896,-0.0366519130766392,-0.00152716308366507
0,1.02500007039179,-0.0750000036681839,0.0138888899621255,-0.101403631269932,-0.0134390350431204,0.00519235478714108
0,1.02916674604155,-0.0652777787193518,0.00972222266958873,-0.111482910811901,0.0152716310694814,0.00702495034784079
0,1.02361117850853,-0.0513888902767219,0.00972222266958873,-0.154548913240433,-0.00152716308366507,0.0293215326964855
0,1.02500007039179,-0.0541666679652478,0.0152777788063885,-0.17989981174469,0.00824668072164059,0.0332921557128429
0,1.02222228662528,-0.0569444456537738,0.00277777787846293,-0.230296194553375,0.00183259579353034,0.0271835029125214
0,1.02500007039179,-0.0638888929140799,-0.00555555575692586,-0.280998021364212,-0.00794124789535999,0.0357356183230877
0,1.01527782720901,-0.0763888894734557,-0.0416666683668809,-0.348498612642288,-0.0513126812875271,0.0561996027827263
0,1.02916674604155,-0.0861111144222878,-0.0791666671619817,-0.409279704093933,-0.0134390350431204,0.064446285367012
0,1.04305556762637,-0.0722222259796579,-0.0625000010308258,-0.355523586273193,-0.00488692196086049,0.0589484944939613
0,1.03194452980806,-0.0513888902767219,-0.055555559848502,-0.287106662988663,-0.0287106670439243,0.0485637858510017
0,1.00000001649321,-0.027777779924251,-0.0680555564078778,-0.29107728600502,-0.0445931628346443,0.0232128798961639
0,0.98888888142718,-0.00555555575692586,-0.0625000010308258,-0.280692577362061,-0.158214092254639,-0.0128281703218818
0,1.00277780025972,-0.0111111115138517,-0.052777782159976,-0.305127203464508,-0.249233022332191,-0.00794124789535999
0,1.00277780025972,-0.0111111115138517,-0.052777782159976,-0.277943700551987,-0.285884946584701,0.00397062394768
0,1.03888889197661,-0.0736111117849297,-0.0486111125881959,-0.209221348166466,-0.289855569601059,-0.0198531206697226
0,1.03888889197661,-0.0736111117849297,-0.0486111125881959,-0.122783914208412,-0.231823354959488,-0.0308486949652433
0,1.04722224327614,-0.0958333393711199,-0.0583333375370279,-0.0201585534960032,-0.187535628676414,-0.0525344125926495
0,1.04583335139288,-0.104166672436698,-0.0541666679652478,0.169820532202721,-0.109955742955208,-0.0726929605007172
0,1.04583335139288,-0.108333335930496,-0.0416666683668809,0.332005262374878,-0.0821613743901253,-0.0885754600167274
0,1.03194452980806,-0.100000002864918,-0.03194444645704,0.483499854803085,-0.10598511993885,-0.0821613743901253
0,1.04305556762637,-0.0944444474878658,-0.03194444645704,0.639270484447479,-0.0589484944939613,-0.0620028227567673
0,1.03750000009336,-0.0902777839940679,-0.0375000018340919,0.82039201259613,0.00488692196086049,-0.0280998013913631
0,1.02777785415829,-0.0583333375370279,-0.0444444460554069,0.896444737911224,0.0189368221908808,0.00244346098043024
0,1.01944450285877,-0.026388891079988,-0.0486111125881959,0.854295074939728,0.00733038317412138,0.0626136884093285
0,1.02083339474202,-0.00972222266958873,-0.0625000010308258,0.747088193893433,0.029626963660121,0.133168622851372
0,1.0361111082101,-0.00555555575692586,-0.0861111144222878,0.566272079944611,0.0629191175103188,0.201280102133751
0,1.05000002704265,-0.0194444453391775,-0.100000002864918,0.412944912910461,0.105374254286289,0.222660377621651
0,1.05555559457566,-0.055555559848502,-0.0875000002275597,0.382401645183563,0.132557764649391,0.192117124795914
0,1.0513889189259,-0.0944444474878658,-0.0916666697993398,0.379958182573318,0.141109868884087,0.12705996632576
0,1.04722224327614,-0.118055554801345,-0.0777777813567098,0.400727599859238,0.148745685815811,0.0613919571042061
0,1.03750000009336,-0.130555557438704,-0.0666666706026059,0.471587955951691,0.156381502747536,0.0583376325666905
0,1.01527782720901,-0.141666668192807,-0.0625000010308258,0.518013715744019,0.147829383611679,0.0442877300083637
0,1.00277780025972,-0.150000007336368,-0.0625000010308258,0.533590793609619,0.0681114718317986,0.0287106670439243
0,1.00972225967599,-0.166666673467524,-0.0611111152255539,0.541226625442505,-0.00152716308366507,-0.00641408516094089
0,1.01805561097552,-0.18333333959868,-0.055555559848502,0.581849157810211,-0.0247400421649218,-0.0403171069920063
0,1.01805561097552,-0.190277786858986,-0.0472222237439329,0.664926826953888,-0.0430659987032413,0.00183259579353034
0,1.01944450285877,-0.197222234119292,-0.03194444645704,0.713490605354309,-0.0806342139840126,0.0864374339580536
0,1.0361111082101,-0.204166669223633,-0.00972222266958873,0.683863639831543,-0.0345138870179653,0.152716308832169
0,1.04166667574312,-0.205555561106887,0.027777779924251,0.599869668483734,-0.0146607663482428,0.194255143404007
0,1.06250005399193,-0.131944449321958,0.0722222259796579,0.579100251197815,0.0482583530247212,0.221438646316528
0,1.09444447005906,-0.0847222225390337,0.0777777813567098,0.397673279047012,0.199447497725487,0.299629390239716
0,1.11111117265811,-0.0708333340964038,0.108333335930496,0.37568211555481,0.308486938476563,0.339030206203461
0,1.08611111875954,-0.0152777788063885,0.12777778582816,0.412944912910461,0.319177091121674,0.32742378115654
0,1.04861113515939,0.00277777787846293,0.143055560076062,0.325591176748276,0.208305045962334,0.319177091121674
0,1.06250005399193,0.00277777787846293,0.159722226207217,0.228158175945282,0.199447497725487,0.288633823394775
0,1.07500008094122,0.00555555575692586,0.181944447715425,0.119424156844616,0.263588339090347,0.234572261571884
0,1.06250005399193,0.00138888893923146,0.195833342236038,-0.120645888149738,0.349109500646591,0.140499010682106
0,1.00000001649321,-0.0111111115138517,0.170833336961321,-0.21685716509819,0.317649930715561,0.0601702257990837
0,0.983333411141879,-0.0152777788063885,0.172222228844576,-0.304210901260376,0.297491371631622,0.00580321997404099
0,0.933333400592447,-0.0111111115138517,0.156944454596674,-0.407447129487991,0.268169850111008,-0.0280998013913631
0,0.884722281926269,-0.0347222241455659,0.154166670830166,-0.446847915649414,0.132557764649391,-0.0235183127224445
0,0.869444471210474,-0.101388894748172,0.172222228844576,-0.334448724985123,-0.00824668072164059,-0.0439822971820831
0,0.89166674134254,-0.148611115453114,0.159722226207217,-0.223882108926773,-0.0839939713478088,-0.0916297882795334
0,0.916666697993398,-0.156944454596674,0.14722222356986,-0.125838235020638,-0.194560587406159,-0.147523954510689
0,0.954166681593543,-0.144444451959316,0.156944454596674,-0.0507018156349659,-0.234572261571884,-0.182954147458077
0,0.963888924776322,-0.12916666555545,0.161111118090472,-0.0421497002243996,-0.251981914043427,-0.21135938167572
0,0.93750007624221,-0.131944449321958,0.150000007336368,-0.130419731140137,-0.350331217050552,-0.204639852046967
0,0.962500032893068,-0.134722233088466,0.143055560076062,-0.141720741987228,-0.434936046600342,-0.228158175945282
0,1.06527783775844,-0.105555564319952,0.0833333367337618,-0.152410879731178,-0.383928805589676,-0.229685336351395
0,1.17361111290911,-0.0541666679652478,0.0722222259796579,-0.22235494852066,-0.281914323568344,-0.23243422806263
0,1.17361111290911,-0.0541666679652478,0.0722222259796579,-0.500604093074799,-0.00549778714776039,-0.131946891546249
0,1.13472223742571,-0.0583333375370279,0.0875000002275597,-0.688445150852203,0.115148097276688,-0.0598647929728031
0,1.03472221632685,-0.0625000010308258,0.0944444474878658,-0.922711968421936,0.108123145997524,-0.0558941699564457
0,0.980555627375371,-0.0722222259796579,0.0736111117849297,-1.07023596763611,0.0620028227567673,-0.0751364231109619
0,0.986111194908388,-0.126388893944906,0.0222222230277034,-1.18477308750153,-0.0146607663482428,-0.076052725315094
0,1.02777785415829,-0.18333333959868,-0.03194444645704,-1.18538403511047,-0.0665843114256859,-0.0910189226269722
0,1.07083340529146,-0.234722242031366,-0.0652777787193518,-1.06993043422699,-0.0531452745199203,-0.0833831056952477
0,1.07222229717471,-0.269444466176932,-0.0763888894734557,-0.791070520877838,0.0751364231109619,-0.0809396430850029
0,1.03888889197661,-0.287500012035377,-0.0791666671619817,-0.569326400756836,0.180510684847832,-0.102930791676045
0,1.01111115155925,-0.25555557165632,-0.0583333375370279,-0.333837866783142,0.189062789082527,-0.17470745742321
0,1.00000001649321,-0.212499996211229,-0.0625000010308258,-0.173485726118088,0.184175878763199,-0.249843880534172
0,1.00000001649321,-0.212499996211229,-0.0625000010308258,-0.0552833043038845,0.17989981174469,-0.275500237941742
0,1.02083339474202,-0.163888889701015,-0.0777777813567098,0.0125227374956012,0.15851953625679,-0.265726387500763
0,1.02083339474202,-0.163888889701015,-0.0777777813567098,0.0745255574584007,0.143858760595322,-0.225103840231896
0,1.02361117850853,-0.120833338567854,-0.0625000010308258,0.0956004112958908,0.125838235020638,-0.177456349134445
0,1.02222228662528,-0.0916666697993398,-0.0625000010308258,0.0183259565383196,0.100792765617371,-0.144164204597473
0,1.00694447590948,-0.055555559848502,-0.0458333348996699,-0.0299323964864016,0.0409279726445675,-0.121256753802299
0,1.0125000434425,-0.0222222230277034,-0.0458333348996699,-0.0736092627048492,-0.000916297896765172,-0.0830776765942574
0,1.01527782720901,-0.00555555575692586,-0.027777779924251,-0.076052725315094,-0.0998764708638191,-0.0232128798961639
0,1.00416669214298,0.0388888906783549,0.0194444453391775,-0.125532805919647,-0.191200822591782,0.0836885422468185
0,0.993055557076942,0.0708333340964038,0.0194444453391775,-0.25411993265152,-0.246789559721947,0.153632611036301
0,0.984722303025134,0.0777777813567098,-0.00277777787846293,-0.399200439453125,-0.328340083360672,0.177150920033455
0,1.02361117850853,0.0513888902767219,-0.0361111129898289,-0.449291378259659,-0.303294599056244,0.13744467496872
0,1.06805562152495,0.0513888902767219,-0.0416666683668809,-0.388204872608185,-0.203112691640854,0.0949895456433296
0,1.07777786470773,-0.0402777795226179,-0.0347222241455659,-0.276416510343552,-0.103847093880177,0.0482583530247212
0,1.07222229717471,-0.055555559848502,-0.0152777788063885,-0.156686931848526,0.0250454749912024,-0.03176499158144
0,1.04583335139288,-0.0416666683668809,-0.00833333382532574,-0.115148097276688,0.111482910811901,-0.0342084541916847
0,1.02916674604155,-0.0250000007162294,-0.0208333341834404,-0.0775798857212067,0.165239050984383,0.00152716308366507
0,1.02916674604155,-0.0250000007162294,-0.0208333341834404,-0.0665843114256859,0.187230199575424,0.0280998013913631
0,1.03888889197661,-0.0361111129898289,-0.0500000014324589,-0.0723875313997269,0.136222943663597,0.0959058403968811
0,1.05000002704265,-0.0944444474878658,-0.0236111118719664,-0.011606439948082,0.0910189226269722,0.0268780700862408
0,1.03888889197661,-0.144444451959316,-0.0236111118719664,0.145996794104576,0.0815505087375641,-0.011606439948082
0,1.02222228662528,-0.163888889701015,0.0194444453391775,0.400422155857086,0.0836885422468185,-0.0482583530247212
0,0.998611124609959,-0.134722233088466,0.00277777787846293,0.536339700222015,0.0684169083833694,-0.0458148941397667
0,1.00000001649321,-0.0847222225390337,0.00277777787846293,0.56016343832016,0.05283984541893,-0.0164933614432812
0,1.00972225967599,-0.0486111125881959,-0.0125000003581147,0.478612929582596,0.00702495034784079,-0.00152716308366507
0,1.0361111082101,-0.0375000018340919,-0.0125000003581147,0.375071257352829,0.00671951752156019,0.00885754637420177
0,1.04444445950963,-0.0402777795226179,-0.00277777787846293,0.28557950258255,0.0268780700862408,-0.0122173046693206
0,1.0361111082101,-0.0569444456537738,0.0236111118719664,0.224492982029915,0.0537561401724815,-0.02382374368608
0,1.01944450285877,-0.0722222259796579,0.0194444453391775,0.168293371796608,0.0497855171561241,-0.0259617734700441
0,1.01944450285877,-0.0722222259796579,0.0194444453391775,0.132863193750381,0.0363464802503586,-0.0271835029125214
0,1.01666671909226,-0.0847222225390337,0.0236111118719664,0.127670839428902,0.0320704244077206,-0.0180205255746841
0,1.02500007039179,-0.0916666697993398,0.0375000018340919,0.126143679022789,0.0210748501121998,-0.00519235478714108
0,1.02916674604155,-0.0875000002275597,0.0513888902767219,0.135917514562607,0.021685715764761,0.0146607663482428
0,1.02916674604155,-0.0875000002275597,0.0513888902767219,0.159741267561913,-0.00549778714776039,0.0485637858510017
0,1.01527782720901,-0.0847222225390337,0.0597222233422998,0.151800006628036,-0.0381790772080422,0.0763581544160843
0,1.00555558402623,-0.0930555616825939,0.0486111125881959,0.150578290224075,-0.0549778714776039,0.096211276948452
0,1.01527782720901,-0.0958333393711199,0.033333335301303,0.159435823559761,-0.0458148941397667,0.0891863256692886
0,1.0305556379248,-0.0986111170596459,0.03194444645704,0.141415297985077,-0.0201585534960032,0.0623082555830479
5,1.03194452980806,-0.0916666697993398,0.0388888906783549,0.12156218290329,-0.0100792767480016,0.0494800843298435
5,1.02916674604155,-0.0875000002275597,0.0361111129898289,0.0604756586253643,-0.0033597587607801,0.0177150927484035
5,1.02361117850853,-0.0805555590452358,0.0347222241455659,0.0516181141138077,-0.0210748501121998,0.0213802829384804
5,1.02638896227504,-0.0819444448505077,0.0416666683668809,0.0381790772080422,-0.02382374368608,0.00366519158706069
5,1.02916674604155,-0.0819444448505077,0.0416666683668809,0.01588249579072,-0.0167987942695618,-0.00366519158706069
5,1.02222228662528,-0.0708333340964038,0.0430555572111439,0.00671951752156019,-0.0287106670439243,-0.00549778714776039
5,1.02083339474202,-0.0625000010308258,0.0388888906783549,-0.0390953756868839,-0.0339030213654041,-0.000916297896765172
5,1.02361117850853,-0.0583333375370279,0.0388888906783549,-0.0803287774324417,-0.0311541277915239,-0.00671951752156019
5,1.02500007039179,-0.0680555564078778,0.033333335301303,-0.11087204515934,-0.0268780700862408,-0.0113010071218014
5,1.02777785415829,-0.0750000036681839,0.0222222230277034,-0.132863193750381,-0.0265726372599602,-0.0241291765123606
5,1.03194452980806,-0.0750000036681839,0.0111111115138517,-0.162490159273148,-0.0146607663482428,-0.0299323964864016
5,1.0305556379248,-0.0708333340964038,0.0250000007162294,-0.188451930880547,0.000916297896765172,-0.058643065392971
5,1.02500007039179,-0.0694444482911319,0.026388891079988,-0.182037845253944,-0.000305432622553781,-0.0561996027827263
5,1.02222228662528,-0.0722222259796579,0.0222222230277034,-0.172569438815117,0.0113010071218014,-0.0561996027827263
5,1.01944450285877,-0.0722222259796579,0.0194444453391775,-0.138971850275993,0.00916297826915979,-0.0335975885391235
5,1.01944450285877,-0.0708333340964038,0.0361111129898289,-0.117591559886932,0.0131336031481624,-0.019547687843442
5,1.02083339474202,-0.0694444482911319,0.0361111129898289,-0.0992656052112579,0.0109955742955208,-0.00519235478714108
5,1.02638896227504,-0.0666666706026059,0.030555557612777,-0.137139245867729,0.02382374368608,-0.00122173049021512
5,1.02361117850853,-0.0722222259796579,0.0250000007162294,-0.155465200543404,0.0311541277915239,-0.000305432622553781
5,1.02083339474202,-0.0750000036681839,0.0208333341834404,-0.157603234052658,0.0302378293126821,0.00366519158706069
5,1.02638896227504,-0.0916666697993398,0.0111111115138517,-0.155465200543404,0.0277943685650826,-0.000305432622553781
5,1.0305556379248,-0.0944444474878658,-0.00833333382532574,-0.136833816766739,0.0339030213654041,-0.00763581553474069
5,1.02916674604155,-0.0986111170596459,-0.00277777787846293,-0.0885754600167274,0.0140499006956816,-0.0244346093386412
5,1.02916674604155,-0.0986111170596459,-0.00277777787846293,-0.0849102661013603,0.017409659922123,-0.0192422550171614
5,1.02638896227504,-0.0944444474878658,0.00555555575692586,-0.0616973899304867,0.0210748501121998,-0.0287106670439243
5,1.02638896227504,-0.0944444474878658,0.00555555575692586,-0.0360410511493683,0.00702495034784079,-0.0253509078174829
5,1.02361117850853,-0.0944444474878658,0.00416666691266287,-0.0244346093386412,0.0100792767480016,-0.0302378293126821
5,1.02916674604155,-0.0944444474878658,-0.00277777787846293,-0.00366519158706069,0.00305432616733015,-0.0277943685650826
5,1.02638896227504,-0.0875000002275597,-0.00277777787846293,0.00671951752156019,0.0103847095742822,-0.0207694191485643
5,1.02638896227504,-0.0861111144222878,-0.00416666691266287,0.0149661982432008,0.00977384392172098,-0.0198531206697226
5,1.02638896227504,-0.0861111144222878,-0.00416666691266287,0.011606439948082,-0.00549778714776039,-0.00427605677396059
5,1.02222228662528,-0.0833333367337618,-0.00555555575692586,0.013744467869401,-0.0189368221908808,-0.00855211354792118
5,1.02222228662528,-0.0833333367337618,-0.00555555575692586,0.015577063895762,-0.0262672062963247,0.00305432616733015
5,1.02916674604155,-0.0777777813567098,-0.00972222266958873,0.0033597587607801,-0.0397062413394451,0.0125227374956012
5,1.02500007039179,-0.0819444448505077,-0.0125000003581147,-0.00427605677396059,-0.0442877300083637,0.021685715764761
5,1.02500007039179,-0.0819444448505077,-0.0125000003581147,-0.017409659922123,-0.0494800843298435,0.011606439948082
5,1.02222228662528,-0.0916666697993398,-0.00833333382532574,-0.00702495034784079,-0.0552833043038845,0.015577063895762
5,1.0305556379248,-0.0861111144222878,-0.0138888899621255,-0.00610865233466029,-0.0348193198442459,0.0113010071218014
5,1.03194452980806,-0.0916666697993398,-0.0125000003581147,-0.0125227374956012,-0.0250454749912024,-0.00122173049021512
5,1.02777785415829,-0.0916666697993398,-0.0166666676506515,-0.0021380283869803,-0.0210748501121998,-0.00610865233466029
5,1.02777785415829,-0.0986111170596459,-0.0111111115138517,0.0149661982432008,-0.0146607663482428,-0.011606439948082
5,1.02916674604155,-0.0916666697993398,-0.0125000003581147,0.0387899428606033,-0.0146607663482428,-0.0125227374956012
5,1.02777785415829,-0.0847222225390337,-0.00416666691266287,0.0525344125926495,-0.015577063895762,-0.00244346098043024
5,1.02500007039179,-0.0791666671619817,0.00277777787846293,0.0418442711234093,-0.0250454749912024,0.0177150927484035
5,1.02083339474202,-0.0847222225390337,-0.00277777787846293,0.037568211555481,-0.0305432621389627,0.0400116741657257
5,1.02222228662528,-0.0819444448505077,-0.00555555575692586,0.0418442711234093,-0.0378736443817616,0.0329867228865623
5,1.02500007039179,-0.0791666671619817,0.00277777787846293,0.0537561401724815,-0.0427605658769607,0.0448985956609249
5,1.02222228662528,-0.0763888894734557,0.00555555575692586,0.0433714315295219,-0.0455094613134861,0.0549778714776039
5,1.02500007039179,-0.0736111117849297,0.00555555575692586,0.0406225398182869,-0.04764748737216,0.0488692186772823
5,1.0305556379248,-0.0750000036681839,0.00277777787846293,0.0360410511493683,-0.0488692186772823,0.0448985956609249
5,1.02916674604155,-0.0722222259796579,0.00416666691266287,0.017409659922123,-0.0403171069920063,0.0421497002243996
5,1.02500007039179,-0.0722222259796579,-0.00555555575692586,0.0167987942695618,-0.0351247526705265,0.019547687843442
5,1.0305556379248,-0.0750000036681839,-0.00555555575692586,0.0305432621389627,-0.0164933614432812,0.0201585534960032
5,1.02916674604155,-0.0875000002275597,0.00138888893923146,0.0345138870179653,-0.000610865245107561,-0.0045814891345799
5,1.02638896227504,-0.0847222225390337,-0.00555555575692586,0.0314595587551594,0.00794124789535999,-0.01191187184304
5,1.02500007039179,-0.0861111144222878,-0.00555555575692586,0.0470366254448891,-0.00183259579353034,-0.0100792767480016
5,1.02500007039179,-0.0861111144222878,0.00277777787846293,0.0708603709936142,-0.0027488935738802,0.00152716308366507
5,1.02222228662528,-0.0875000002275597,0.00972222266958873,0.0729983970522881,-0.00671951752156019,0.000916297896765172
5,1.02222228662528,-0.0847222225390337,0.0180555564949145,0.0757472887635231,-0.000916297896765172,0.00671951752156019
5,1.0305556379248,-0.0819444448505077,0.00694444498106275,0.0775798857212067,0.000916297896765172,0.0113010071218014
5,1.02916674604155,-0.0763888894734557,0.00138888893923146,0.0693332031369209,-0.0106901414692402,0.0222965814173222
5,1.02222228662528,-0.0763888894734557,-0.00555555575692586,0.0610865242779255,-0.00671951752156019,0.00794124789535999
5,1.02916674604155,-0.0791666671619817,0.00416666691266287,0.0519235469400883,-0.00610865233466029,0.01588249579072
5,1.02500007039179,-0.0819444448505077,0.00416666691266287,0.0583376325666905,-0.00549778714776039,0.0204639863222837
5,1.02361117850853,-0.0902777839940679,-0.00277777787846293,0.0479529201984406,-0.000916297896765172,0.00916297826915979
5,1.02500007039179,-0.0902777839940679,0.00138888893923146,0.0503963828086853,-0.0021380283869803,0.00733038317412138
5,1.02222228662528,-0.0930555616825939,-0.00138888893923146,0.0503963828086853,-0.00122173049021512,0.00549778714776039
5,1.02638896227504,-0.0902777839940679,-0.00555555575692586,0.0510072484612465,0.00519235478714108,-0.00977384392172098
5,1.0305556379248,-0.0847222225390337,-0.00416666691266287,0.0525344125926495,0.0149661982432008,-0.0109955742955208
5,1.02916674604155,-0.0847222225390337,-0.00416666691266287,0.0555887371301651,0.0186313893646002,-0.01191187184304
5,1.02361117850853,-0.0847222225390337,-0.00416666691266287,0.0406225398182869,0.00855211354792118,-0.00855211354792118
5,1.02500007039179,-0.0763888894734557,-0.00416666691266287,0.0366519130766392,0.0122173046693206,-0.00549778714776039
5,1.02222228662528,-0.0763888894734557,0.00555555575692586,0.0256563406437635,0.0125227374956012,-0.00305432616733015
5,1.02638896227504,-0.0777777813567098,0.00277777787846293,0.0219911485910416,0.00641408516094089,-0.0045814891345799
5,1.02916674604155,-0.0833333367337618,-0.00138888893923146,0.00733038317412138,0.0103847095742822,-0.00366519158706069
5,1.02638896227504,-0.0847222225390337,-0.00138888893923146,-0.00152716308366507,0.00122173049021512,0.00641408516094089
5,1.02638896227504,-0.0805555590452358,-0.00972222266958873,-0.00244346098043024,-0.0027488935738802,0.00549778714776039
5,1.02500007039179,-0.0819444448505077,-0.00416666691266287,-0.0198531206697226,0.00244346098043024,0.00519235478714108
5,1.02083339474202,-0.0847222225390337,-0.00416666691266287,-0.0149661982432008,0.000916297896765172,0.00641408516094089
5,1.02500007039179,-0.0875000002275597,0.00555555575692586,-0.0021380283869803,-0.00152716308366507,0.00610865233466029
5,1.02222228662528,-0.0888888921108138,0.00833333382532574,-0.00366519158706069,-0.0146607663482428,0.0106901414692402
5,1.02222228662528,-0.0888888921108138,0.00833333382532574,-0.0198531206697226,-0.0149661982432008,0.00183259579353034
5,1.02500007039179,-0.0861111144222878,0.0111111115138517,-0.00488692196086049,-0.0113010071218014,0.0113010071218014
5,1.02916674604155,-0.0875000002275597,0.0111111115138517,0.0027488935738802,0.00244346098043024,0.00549778714776039
5,1.02916674604155,-0.0902777839940679,0.00138888893923146,0.0033597587607801,0.00855211354792118,0.0140499006956816
5,1.02916674604155,-0.0916666697993398,0.00416666691266287,0.00427605677396059,0.015577063895762,0.000305432622553781
5,1.02638896227504,-0.0958333393711199,0.00555555575692586,0.0033597587607801,0.0149661982432008,-0.00702495034784079
5,1.02361117850853,-0.0944444474878658,0.00416666691266287,0.013744467869401,0.0131336031481624,-0.00763581553474069
5,1.02222228662528,-0.0916666697993398,0.00555555575692586,0.0332921557128429,0.013744467869401,-0.00885754637420177
5,1.02500007039179,-0.0902777839940679,0.0111111115138517,0.0222965814173222,0.00610865233466029,0.00794124789535999
5,1.02638896227504,-0.0875000002275597,0.00555555575692586,0.0226020142436027,0.00152716308366507,0.00916297826915979
5,1.02361117850853,-0.0861111144222878,0.00555555575692586,0.0253509078174829,-0.0027488935738802,0.00855211354792118
5,1.02777785415829,-0.0930555616825939,0.00555555575692586,0.0204639863222837,0.00244346098043024,0.0131336031481624
5,1.02638896227504,-0.0875000002275597,0.00555555575692586,0.013744467869401,0.000305432622553781,0.0180205255746841
5,1.02500007039179,-0.0847222225390337,0.00972222266958873,0.00549778714776039,-0.00488692196086049,0.00488692196086049
5,1.02222228662528,-0.0847222225390337,0.0125000003581147,0.0106901414692402,0.00549778714776039,0.00183259579353034
5,1.02361117850853,-0.0847222225390337,0.00694444498106275,0.00946841109544039,-0.00152716308366507,0.0027488935738802
5,1.02222228662528,-0.0819444448505077,0.0125000003581147,0.00855211354792118,-0.011606439948082,0.0229074470698834
5,1.02083339474202,-0.0833333367337618,0.00416666691266287,-0.000610865245107561,-0.0122173046693206,0.0235183127224445
5,1.02361117850853,-0.0847222225390337,0.0125000003581147,-0.00366519158706069,-0.0134390350431204,0.0207694191485643
5,1.02916674604155,-0.0888888921108138,0.0125000003581147,-0.00183259579353034,-0.0033597587607801,0.0287106670439243
5,1.02500007039179,-0.0930555616825939,-0.00833333382532574,-0.00152716308366507,-0.000305432622553781,0.00427605677396059
5,1.02500007039179,-0.0902777839940679,-0.00972222266958873,-0.00885754637420177,0.0045814891345799,-0.0033597587607801
5,1.02222228662528,-0.0916666697993398,-0.00277777787846293,-0.000305432622553781,0.0103847095742822,-0.0106901414692402
5,1.01944450285877,-0.0944444474878658,-0.00416666691266287,0.0103847095742822,0.00671951752156019,-0.013744467869401
5,1.02361117850853,-0.0916666697993398,0.00277777787846293,0.0146607663482428,0.00946841109544039,-0.0232128798961639
5,1.02638896227504,-0.0902777839940679,0.00277777787846293,0.011606439948082,0.0109955742955208,-0.00366519158706069
5,1.02500007039179,-0.0875000002275597,-0.00277777787846293,0.00702495034784079,0.0113010071218014,-0.00122173049021512
5,1.02361117850853,-0.0902777839940679,-0.00555555575692586,-0.00397062394768,0.00763581553474069,-0.00427605677396059
5,1.02500007039179,-0.0958333393711199,-0.00694444498106275,-0.0033597587607801,0.00794124789535999,-0.0027488935738802
5,1.02500007039179,-0.0958333393711199,-0.00694444498106275,0.000305432622553781,0.0134390350431204,-0.00519235478714108
5,1.02638896227504,-0.0916666697993398,0.00555555575692586,0.00916297826915979,0.00366519158706069,-0.0103847095742822
5,1.0305556379248,-0.0902777839940679,0.00138888893923146,0.017409659922123,0.00641408516094089,-0.00916297826915979
5,1.02500007039179,-0.0875000002275597,0.00277777787846293,-0.00946841109544039,-0.00488692196086049,-0.00733038317412138
5,1.02500007039179,-0.0847222225390337,0.00277777787846293,-0.0128281703218818,-0.00580321997404099,-0.0045814891345799
5,1.02361117850853,-0.0861111144222878,0.00277777787846293,-0.00702495034784079,-0.00763581553474069,0.000305432622553781
5,1.02361117850853,-0.0902777839940679,0.00138888893923146,-0.00183259579353034,-0.00519235478714108,-0.000610865245107561
5,1.02638896227504,-0.0902777839940679,0.00277777787846293,-0.00641408516094089,0.00549778714776039,-0.0122173046693206
5,1.02222228662528,-0.0888888921108138,0.00555555575692586,-0.00733038317412138,0.01191187184304,-0.00885754637420177
5,1.02500007039179,-0.0916666697993398,-0.00277777787846293,0.00305432616733015,0.0027488935738802,-0.000305432622553781
5,1.02361117850853,-0.0930555616825939,-0.00694444498106275,0.00580321997404099,-0.00305432616733015,-0.0113010071218014
5,1.02222228662528,-0.0916666697993398,-0.00694444498106275,0.00855211354792118,-0.00763581553474069,0.00244346098043024
5,1.02500007039179,-0.0930555616825939,0.00416666691266287,0.0131336031481624,-0.00885754637420177,-0.00244346098043024
5,1.02638896227504,-0.0847222225390337,0.00694444498106275,0.0287106670439243,0.0033597587607801,0.00122173049021512
5,1.02638896227504,-0.0819444448505077,0.00555555575692586,0.0387899428606033,0.0113010071218014,-0.00244346098043024
5,1.02777785415829,-0.0833333367337618,-0.00277777787846293,0.0284052342176437,0.0027488935738802,-0.00244346098043024
5,1.02777785415829,-0.0819444448505077,-0.00277777787846293,0.0222965814173222,0.00641408516094089,-0.00794124789535999
5,1.02638896227504,-0.0847222225390337,0.00277777787846293,0.0241291765123606,0.00519235478714108,-0.00610865233466029
5,1.02916674604155,-0.0819444448505077,0.00833333382532574,0.0198531206697226,0.00488692196086049,-0.00763581553474069
5,1.02916674604155,-0.0861111144222878,-0.00277777787846293,0.00733038317412138,0.0106901414692402,-0.00977384392172098
5,1.02500007039179,-0.0861111144222878,-0.00277777787846293,0.000610865245107561,0.00427605677396059,-0.0134390350431204
5,1.02500007039179,-0.0902777839940679,-0.00555555575692586,0.00702495034784079,0.0131336031481624,-0.0164933614432812
5,1.02777785415829,-0.0875000002275597,-0.00277777787846293,0.00855211354792118,0.00580321997404099,-0.0183259565383196
5,1.02777785415829,-0.0916666697993398,-0.00138888893923146,0.013744467869401,0.0134390350431204,-0.0113010071218014
5,1.02638896227504,-0.0902777839940679,-0.00138888893923146,0.00946841109544039,0.0177150927484035,-0.0134390350431204
5,1.02083339474202,-0.0847222225390337,0.00972222266958873,0.00305432616733015,0.00977384392172098,-0.00152716308366507
5,1.02500007039179,-0.0805555590452358,0.00555555575692586,-0.00122173049021512,0.013744467869401,-0.00122173049021512
5,1.02222228662528,-0.0819444448505077,0.00277777787846293,0.00794124789535999,-0.00397062394768,-0.00305432616733015
5,1.02500007039179,-0.0847222225390337,0.00138888893923146,0.0103847095742822,-0.00244346098043024,0.00183259579353034
5,1.02500007039179,-0.0861111144222878,-0.00138888893923146,0.0103847095742822,0.00122173049021512,0.0033597587607801
5,1.02916674604155,-0.0833333367337618,-0.00138888893923146,0.0045814891345799,-0.00366519158706069,-0.0027488935738802
5,1.02777785415829,-0.0847222225390337,-0.00138888893923146,0.00183259579353034,-0.00610865233466029,0.00946841109544039
5,1.02500007039179,-0.0847222225390337,0.00833333382532574,0.0027488935738802,-0.000916297896765172,0.00702495034784079
5,1.02222228662528,-0.0875000002275597,0.00138888893923146,0.011606439948082,0.00610865233466029,0.0161879286170006
5,1.02916674604155,-0.0875000002275597,-0.00277777787846293,0.0250454749912024,0.000916297896765172,0.0103847095742822
5,1.0305556379248,-0.0875000002275597,0.00555555575692586,0.0186313893646002,0.0021380283869803,0.00549778714776039
5,1.02638896227504,-0.0819444448505077,0.00277777787846293,0.00794124789535999,-0.00916297826915979,0.00397062394768
5,1.02638896227504,-0.0819444448505077,0.00138888893923146,-0.00122173049021512,-0.00946841109544039,-0.000610865245107561
5,1.02222228662528,-0.0791666671619817,0.00138888893923146,-0.00366519158706069,0.000916297896765172,0.0027488935738802
5,1.02916674604155,-0.0875000002275597,-0.00555555575692586,-0.00519235478714108,-0.00122173049021512,-0.00183259579353034
5,1.02500007039179,-0.0916666697993398,-0.00972222266958873,-0.00427605677396059,0.00641408516094089,-0.00610865233466029
5,1.02777785415829,-0.0888888921108138,-0.00277777787846293,0.00305432616733015,0.00885754637420177,-0.00763581553474069
5,1.02361117850853,-0.0875000002275597,0.00277777787846293,0.00794124789535999,0.00488692196086049,-0.00580321997404099
5,1.01944450285877,-0.0819444448505077,0.00138888893923146,0.00427605677396059,0.00610865233466029,-0.00427605677396059
5,1.02222228662528,-0.0902777839940679,-0.00416666691266287,0.0027488935738802,0.00397062394768,-0.00244346098043024
5,1.02777785415829,-0.0888888921108138,-0.00555555575692586,0.00152716308366507,0.013744467869401,-0.00488692196086049
5,1.02500007039179,-0.0847222225390337,-0.0125000003581147,0.0122173046693206,0.00855211354792118,-0.00122173049021512
5,1.02500007039179,-0.0916666697993398,-0.00555555575692586,0.0140499006956816,0.00855211354792118,-0.00977384392172098
5,1.02222228662528,-0.0875000002275597,-0.00277777787846293,0.00763581553474069,-0.00397062394768,-0.00916297826915979
5,1.02222228662528,-0.0875000002275597,-0.00138888893923146,0.0033597587607801,-0.0027488935738802,-0.00488692196086049
5,1.02500007039179,-0.0847222225390337,0.00555555575692586,0.00855211354792118,-0.0045814891345799,-0.000610865245107561
5,1.02361117850853,-0.0875000002275597,0.00555555575692586,0.00152716308366507,-0.00244346098043024,0.00427605677396059
5,1.02500007039179,-0.0902777839940679,-0.00277777787846293,0.00427605677396059,0.00610865233466029,-0.00641408516094089
5,1.02638896227504,-0.0902777839940679,0.00416666691266287,0.00610865233466029,0.000916297896765172,-0.00763581553474069
5,1.02916674604155,-0.0944444474878658,-0.00138888893923146,0.0131336031481624,0.000916297896765172,-0.00122173049021512
5,1.02777785415829,-0.0930555616825939,0.00416666691266287,0.00733038317412138,0.0021380283869803,-0.00855211354792118
5,1.02777785415829,-0.0930555616825939,0.00416666691266287,0.01588249579072,0.00671951752156019,-0.00580321997404099
5,1.02500007039179,-0.0875000002275597,0.00416666691266287,0.0128281703218818,0.00488692196086049,-0.000610865245107561
5,1.02500007039179,-0.0875000002275597,0.00416666691266287,0.00610865233466029,0.00397062394768,-0.0021380283869803
5,1.02500007039179,-0.0819444448505077,0.00416666691266287,0.00794124789535999,0.00366519158706069,0.00488692196086049
5,1.02916674604155,-0.0875000002275597,-0.00694444498106275,0.0134390350431204,-0.00183259579353034,0.00794124789535999
5,1.02916674604155,-0.0916666697993398,0.00277777787846293,0.0167987942695618,-0.00183259579353034,0.00610865233466029
5,1.02777785415829,-0.0888888921108138,0.00138888893923146,0.021685715764761,0.00152716308366507,0.00794124789535999
5,1.02777785415829,-0.0888888921108138,0.00138888893923146,0.0201585534960032,-0.00183259579353034,0.00366519158706069
5,1.02916674604155,-0.0847222225390337,0.00277777787846293,0.021685715764761,-0.00152716308366507,0.00519235478714108
5,1.02500007039179,-0.0875000002275597,0.00277777787846293,0.0149661982432008,0.011606439948082,0.0027488935738802
5,1.02500007039179,-0.0875000002275597,0.00277777787846293,0.0106901414692402,0.000305432622553781,0.00702495034784079
5,1.02222228662528,-0.0819444448505077,-0.00277777787846293,0.0122173046693206,0.000305432622553781,0.00580321997404099
5,1.02361117850853,-0.0916666697993398,0.00833333382532574,0.0232128798961639,-0.00366519158706069,0.0125227374956012
5,1.02361117850853,-0.0861111144222878,0.00277777787846293,0.027488935738802,0.00427605677396059,0.00733038317412138
5,1.02222228662528,-0.0777777813567098,0.00277777787846293,-0.000610865245107561,0.00397062394768,0.00977384392172098
5,1.02500007039179,-0.0750000036681839,0.00833333382532574,-0.00824668072164059,-0.00397062394768,0.0103847095742822
5,1.02222228662528,-0.0708333340964038,0.00277777787846293,-0.0128281703218818,0.00183259579353034,0.0106901414692402
5,1.02638896227504,-0.0819444448505077,0.00277777787846293,-0.0140499006956816,0.00366519158706069,0.00397062394768
5,1.02916674604155,-0.0875000002275597,0.00277777787846293,-0.00519235478714108,0.01191187184304,-0.00671951752156019
5,1.02916674604155,-0.0902777839940679,-0.00555555575692586,0.000610865245107561,0.0161879286170006,-0.00855211354792118
5,1.02916674604155,-0.0875000002275597,-0.00555555575692586,0.00763581553474069,0.00885754637420177,-0.0033597587607801
5,1.02916674604155,-0.0861111144222878,-0.00555555575692586,0.00366519158706069,0.0192422550171614,-0.00427605677396059
5,1.02916674604155,-0.0888888921108138,-0.00555555575692586,0.00244346098043024,0.00733038317412138,-0.00641408516094089
5,1.0305556379248,-0.0819444448505077,-0.00555555575692586,0.00183259579353034,0.00580321997404099,-0.00244346098043024
5,1.02916674604155,-0.0875000002275597,0.00416666691266287,0.00488692196086049,0.0045814891345799,0.00519235478714108
5,1.02916674604155,-0.0916666697993398,0.00972222266958873,0.0103847095742822,0.00244346098043024,0.000916297896765172
5,1.0305556379248,-0.0916666697993398,0.00277777787846293,0.011606439948082,0.00305432616733015,0.00305432616733015
5,1.02777785415829,-0.0875000002275597,0.00277777787846293,0.00519235478714108,0.00763581553474069,0.0027488935738802
5,1.02777785415829,-0.0888888921108138,0.00138888893923146,0.00733038317412138,0.00885754637420177,-0.00977384392172098
5,1.02500007039179,-0.0902777839940679,0.00277777787846293,0.0149661982432008,0.00305432616733015,0.00122173049021512
5,1.02916674604155,-0.0902777839940679,-0.00833333382532574,0.0177150927484035,0.00549778714776039,-0.00366519158706069
5,1.02638896227504,-0.0888888921108138,0.00138888893923146,0.00641408516094089,0.00366519158706069,0.00244346098043024
5,1.02361117850853,-0.0847222225390337,0.00694444498106275,0.00763581553474069,-0.00244346098043024,0.0045814891345799
5,1.02500007039179,-0.0875000002275597,0.00555555575692586,0.00427605677396059,-0.0027488935738802,0.000916297896765172
5,1.02777785415829,-0.0888888921108138,0.00555555575692586,0.00244346098043024,0.00366519158706069,0.00427605677396059
5,1.02777785415829,-0.0888888921108138,0.00555555575692586,0.0045814891345799,0.00519235478714108,-0.00122173049021512
5,1.02222228662528,-0.0875000002275597,0.00277777787846293,0.00152716308366507,0.00610865233466029,-0.00641408516094089
5,1.02500007039179,-0.0944444474878658,0.00555555575692586,0.00488692196086049,0.00519235478714108,-0.00824668072164059
5,1.02500007039179,-0.0944444474878658,0.00555555575692586,0.000916297896765172,0.00244346098043024,-0.01191187184304
5,1.02500007039179,-0.0888888921108138,0.00138888893923146,0.000916297896765172,0.00427605677396059,-0.00244346098043024
5,1.02500007039179,-0.0888888921108138,-0.00277777787846293,0.000610865245107561,0.000916297896765172,-0.013744467869401
5,1.02500007039179,-0.0888888921108138,-0.00277777787846293,0.00763581553474069,0.00580321997404099,-0.0113010071218014
5,1.02361117850853,-0.0875000002275597,-0.00138888893923146,0.00305432616733015,0.0033597587607801,-0.0125227374956012
5,1.02083339474202,-0.0875000002275597,0.00416666691266287,0.00794124789535999,0.00122173049021512,-0.00610865233466029
5,1.02361117850853,-0.0847222225390337,0.00277777787846293,0.0109955742955208,-0.00488692196086049,-0.00763581553474069
5,1.02777785415829,-0.0875000002275597,0.00277777787846293,0.00763581553474069,-0.0100792767480016,-0.00488692196086049
5,1.02777785415829,-0.0875000002275597,0.00416666691266287,0.0189368221908808,0.00397062394768,-0.00671951752156019
5,1.02638896227504,-0.0847222225390337,0.0125000003581147,0.00641408516094089,-0.00977384392172098,-0.0033597587607801
5,1.02500007039179,-0.0847222225390337,0.00277777787846293,-0.000610865245107561,-0.00916297826915979,-0.00152716308366507
5,1.02777785415829,-0.0958333393711199,0.00277777787846293,0.00885754637420177,-0.00183259579353034,-0.0033597587607801
5,1.02500007039179,-0.0930555616825939,0.00694444498106275,0.0140499006956816,0.00366519158706069,-0.0100792767480016
5,1.02916674604155,-0.0888888921108138,0.00555555575692586,0.0113010071218014,0.01191187184304,-0.00641408516094089
5,1.02916674604155,-0.0944444474878658,-0.00972222266958873,0.0113010071218014,0.00549778714776039,-0.00671951752156019
5,1.02916674604155,-0.0819444448505077,0.00416666691266287,0.0189368221908808,-0.00122173049021512,0.000305432622553781
5,1.02361117850853,-0.0777777813567098,0.00555555575692586,0.0164933614432812,0.00366519158706069,-0.00152716308366507
5,1.02500007039179,-0.0805555590452358,0.00416666691266287,0.00671951752156019,0.0021380283869803,-0.00488692196086049
5,1.02638896227504,-0.0847222225390337,-0.00277777787846293,0.00946841109544039,0.00733038317412138,-0.00641408516094089
5,1.02638896227504,-0.0847222225390337,0.00555555575692586,0.0113010071218014,0.000305432622553781,0.00152716308366507
5,1.02638896227504,-0.0930555616825939,-0.00138888893923146,0.00916297826915979,-0.00244346098043024,-0.00610865233466029
5,1.02638896227504,-0.0944444474878658,0.00416666691266287,0.0122173046693206,-0.00366519158706069,0.00488692196086049
5,1.02500007039179,-0.0888888921108138,0.00277777787846293,0.021685715764761,0.00305432616733015,-0.00397062394768
5,1.02500007039179,-0.0847222225390337,-0.00277777787846293,0.0222965814173222,-0.0045814891345799,0.000305432622553781
5,1.02916674604155,-0.0791666671619817,-0.00277777787846293,0.0149661982432008,0.0033597587607801,0.00580321997404099
5,1.02361117850853,-0.0819444448505077,0.00277777787846293,0.0152716310694814,0.00733038317412138,-0.00122173049021512
5,1.02500007039179,-0.0805555590452358,-0.00694444498106275,0.0033597587607801,0.00427605677396059,0.000610865245107561
5,1.02500007039179,-0.0875000002275597,-0.00138888893923146,0.00763581553474069,-0.00763581553474069,0.00244346098043024
5,1.02500007039179,-0.0888888921108138,-0.00833333382532574,0.00610865233466029,-0.0113010071218014,0.00244346098043024
5,1.02777785415829,-0.0888888921108138,-0.00555555575692586,0.0128281703218818,-0.000305432622553781,-0.000305432622553781
5,1.02500007039179,-0.0861111144222878,-0.0125000003581147,0.0177150927484035,0.00305432616733015,-0.00152716308366507
5,1.02361117850853,-0.0888888921108138,-0.00138888893923146,0.0247400421649218,0.00549778714776039,-0.00427605677396059
5,1.01944450285877,-0.0861111144222878,-0.00138888893923146,0.0109955742955208,0.000610865245107561,-0.00122173049021512
5,1.02083339474202,-0.0861111144222878,-0.00138888893923146,0.00855211354792118,-0.00977384392172098,0.00763581553474069
5,1.02500007039179,-0.0847222225390337,0.00277777787846293,0.00763581553474069,-0.0045814891345799,-0.000305432622553781
5,1.02361117850853,-0.0847222225390337,0.00555555575692586,0.0146607663482428,-0.0128281703218818,0.00824668072164059
5,1.02361117850853,-0.0847222225390337,0.00555555575692586,0.00580321997404099,0.000305432622553781,0.00946841109544039
5,1.02500007039179,-0.0875000002275597,-0.0111111115138517,0.00580321997404099,0.00702495034784079,0.00427605677396059
5,1.02361117850853,-0.0916666697993398,0.00277777787846293,-0.0021380283869803,-0.00183259579353034,0.0021380283869803
5,1.02361117850853,-0.0916666697993398,0.00277777787846293,-0.00305432616733015,-0.00397062394768,0.0106901414692402
5,1.02361117850853,-0.0875000002275597,0.00277777787846293,0.00122173049021512,-0.0027488935738802,0.00488692196086049
5,1.02638896227504,-0.0875000002275597,0.00555555575692586,-0.000305432622553781,-0.00763581553474069,0.00366519158706069
5,1.02638896227504,-0.0875000002275597,0.00555555575692586,-0.0103847095742822,-0.00183259579353034,0.00122173049021512
5,1.0305556379248,-0.0916666697993398,0.00555555575692586,0.000610865245107561,-0.00580321997404099,-0.00122173049021512
5,1.02916674604155,-0.0847222225390337,0.00555555575692586,0.0045814891345799,0.00122173049021512,0.0027488935738802
5,1.02916674604155,-0.0861111144222878,-0.00416666691266287,0.00427605677396059,0.00610865233466029,0.00305432616733015
5,1.02222228662528,-0.0888888921108138,-0.00138888893923146,0.00152716308366507,0.000916297896765172,-0.00122173049021512
5,1.02916674604155,-0.0888888921108138,0.00138888893923146,0.00549778714776039,0.0045814891345799,-0.0027488935738802
5,1.02777785415829,-0.0902777839940679,-0.00277777787846293,0.011606439948082,0.0045814891345799,0.0045814891345799
5,1.02500007039179,-0.0916666697993398,0.00277777787846293,0.00885754637420177,0.00519235478714108,-0.000916297896765172
5,1.02500007039179,-0.0916666697993398,0.00277777787846293,0.00152716308366507,0.00671951752156019,0.00397062394768
5,1.02916674604155,-0.0902777839940679,-0.00972222266958873,0.00916297826915979,0.00397062394768,0.00122173049021512
5,1.03194452980806,-0.0902777839940679,-0.00555555575692586,0.00580321997404099,0.00427605677396059,0.0033597587607801
5,1.02222228662528,-0.0847222225390337,-0.00694444498106275,0.00122173049021512,-0.0021380283869803,0.0027488935738802
5,1.02777785415829,-0.0916666697993398,-0.00694444498106275,0.00763581553474069,0.00855211354792118,-0.0103847095742822
5,1.02916674604155,-0.0916666697993398,-0.00555555575692586,0.00977384392172098,0.0021380283869803,-0.0128281703218818
5,1.02638896227504,-0.0944444474878658,-0.00972222266958873,0.00977384392172098,0.00152716308366507,-0.0134390350431204
5,1.02222228662528,-0.0861111144222878,-0.00833333382532574,0.000610865245107561,-0.00488692196086049,0.00885754637420177
5,1.02361117850853,-0.0875000002275597,-0.00277777787846293,0.00122173049021512,0.00183259579353034,0.0122173046693206
5,1.02361117850853,-0.0875000002275597,0.00277777787846293,0.00549778714776039,0.000610865245107561,0.0134390350431204
5,1.02500007039179,-0.0916666697993398,0.00277777787846293,0.00763581553474069,0.00152716308366507,0.00733038317412138
5,1.02916674604155,-0.0888888921108138,0.00277777787846293,0.00488692196086049,-0.000610865245107561,0.0143553335219622
5,1.02916674604155,-0.0875000002275597,0.00555555575692586,0.0109955742955208,0.00397062394768,0.00733038317412138
5,1.02638896227504,-0.0875000002275597,0.00555555575692586,-0.0033597587607801,0.00244346098043024,0.00977384392172098
5,1.02777785415829,-0.0875000002275597,0.00555555575692586,0.0033597587607801,0.000916297896765172,0.0134390350431204
5,1.0305556379248,-0.0902777839940679,0.00555555575692586,-0.0021380283869803,0.00366519158706069,-0.000610865245107561
5,1.02916674604155,-0.0916666697993398,0.00277777787846293,-0.00183259579353034,0.0027488935738802,-0.0027488935738802
5,1.02222228662528,-0.0888888921108138,0.0111111115138517,0.00763581553474069,0.0100792767480016,0.00427605677396059
5,1.02638896227504,-0.0916666697993398,0.00555555575692586,-0.00122173049021512,0.00519235478714108,0.0033597587607801
5,1.02500007039179,-0.0902777839940679,-0.00277777787846293,-0.000305432622553781,0.01191187184304,0.00946841109544039
5,1.02916674604155,-0.0944444474878658,-0.00972222266958873,0.00794124789535999,0.00305432616733015,-0.00183259579353034
5,1.02777785415829,-0.0944444474878658,-0.00138888893923146,0.0161879286170006,0.00671951752156019,-0.00488692196086049
5,1.02916674604155,-0.0916666697993398,-0.00277777787846293,0.0302378293126821,0.00427605677396059,-0.00733038317412138
5,1.02777785415829,-0.0875000002275597,0.00138888893923146,0.0186313893646002,0.00702495034784079,-0.0027488935738802
5,1.02638896227504,-0.0861111144222878,0.00416666691266287,0.00885754637420177,0.00305432616733015,0.00244346098043024
5,1.02500007039179,-0.0819444448505077,-0.00416666691266287,-0.00152716308366507,0.00702495034784079,0.00702495034784079
5,1.02500007039179,-0.0847222225390337,-0.00138888893923146,0.00366519158706069,0.00580321997404099,0.00519235478714108
5,1.02916674604155,-0.0930555616825939,-0.00138888893923146,0.00671951752156019,0.011606439948082,0.00763581553474069
5,1.02916674604155,-0.0875000002275597,0.00138888893923146,0.0027488935738802,0.00702495034784079,-0.00152716308366507
5,1.02916674604155,-0.0819444448505077,0.00694444498106275,0.0045814891345799,0.0143553335219622,-0.00580321997404099
5,1.02638896227504,-0.0819444448505077,0.00694444498106275,-0.01588249579072,0.00733038317412138,-0.00488692196086049
5,1.01944450285877,-0.0847222225390337,0.00277777787846293,-0.0177150927484035,-0.000305432622553781,0.000305432622553781
5,1.02222228662528,-0.0861111144222878,0.00138888893923146,-0.0140499006956816,0.00671951752156019,0.00702495034784079
5,1.02222228662528,-0.0861111144222878,0.00138888893923146,-0.0125227374956012,0.00305432616733015,-0.000305432622553781
5,1.02916674604155,-0.0916666697993398,0.00277777787846293,-0.00305432616733015,0.0152716310694814,-0.00733038317412138
5,1.02916674604155,-0.0902777839940679,0.00277777787846293,0.0033597587607801,0.0128281703218818,-0.000916297896765172
5,1.02638896227504,-0.0888888921108138,-0.00277777787846293,-0.00122173049021512,0.011606439948082,-0.00122173049021512
5,1.02222228662528,-0.0944444474878658,-0.00277777787846293,0.0128281703218818,0.011606439948082,0.000305432622553781
5,1.02500007039179,-0.101388894748172,-0.00555555575692586,0.0247400421649218,0.00305432616733015,-0.00733038317412138
5,1.02500007039179,-0.100000002864918,0.00138888893923146,0.0436768643558025,0.000916297896765172,-0.00610865233466029
5,1.02361117850853,-0.0958333393711199,0.0111111115138517,0.0543670058250427,0.00641408516094089,-0.0152716310694814
5,1.02500007039179,-0.0930555616825939,0.0125000003581147,0.0525344125926495,0.00641408516094089,-0.0164933614432812
5,1.02500007039179,-0.0916666697993398,0.00833333382532574,0.0549778714776039,0.011606439948082,-0.0149661982432008
5,1.02500007039179,-0.0847222225390337,0.00138888893923146,0.0436768643558025,0.0149661982432008,-0.0201585534960032
5,1.02638896227504,-0.0847222225390337,0.00555555575692586,0.0430659987032413,0.0210748501121998,-0.0232128798961639
5,1.02500007039179,-0.0763888894734557,-0.00277777787846293,0.0247400421649218,0.0140499006956816,-0.0143553335219622
5,1.02083339474202,-0.0777777813567098,0.00277777787846293,0.00580321997404099,0.00763581553474069,-0.0192422550171614
5,1.02361117850853,-0.0750000036681839,0.00555555575692586,-0.0103847095742822,-0.00183259579353034,-0.00794124789535999
5,1.02500007039179,-0.0694444482911319,-0.00555555575692586,-0.0171042270958424,0.00366519158706069,-0.0125227374956012
5,1.02500007039179,-0.0805555590452358,0.00277777787846293,-0.027488935738802,-0.000916297896765172,-0.00183259579353034
5,1.02777785415829,-0.0916666697993398,0.00277777787846293,-0.0152716310694814,-0.0027488935738802,-0.00488692196086049
5,1.02222228662528,-0.0916666697993398,0.0138888899621255,-0.0161879286170006,-0.00580321997404099,-0.00427605677396059
5,1.02638896227504,-0.0958333393711199,0.0138888899621255,-0.00610865233466029,0.00366519158706069,-0.000305432622553781
5,1.0305556379248,-0.0875000002275597,0.0194444453391775,0.00366519158706069,0.00610865233466029,-0.0140499006956816
5,1.0333333244436,-0.0944444474878658,0.0111111115138517,-0.00610865233466029,0.000916297896765172,-0.0146607663482428
5,1.02638896227504,-0.0902777839940679,0.00555555575692586,0.0045814891345799,0.00488692196086049,-0.0109955742955208
5,1.02638896227504,-0.0902777839940679,0.0125000003581147,0.0152716310694814,-0.000916297896765172,-0.00641408516094089
5,1.0305556379248,-0.0916666697993398,-0.00555555575692586,0.0226020142436027,0.00733038317412138,-0.01588249579072
5,1.03194452980806,-0.0902777839940679,-0.00277777787846293,0.0320704244077206,0.0268780700862408,-0.02382374368608
5,1.02777785415829,-0.0875000002275597,0.00138888893923146,0.0180205255746841,0.0256563406437635,-0.0259617734700441
5,1.02638896227504,-0.0875000002275597,0.00277777787846293,0.0183259565383196,0.0164933614432812,-0.0134390350431204
5,1.02500007039179,-0.0833333367337618,0.00277777787846293,0.0106901414692402,0.0134390350431204,-0.00794124789535999
5,1.02083339474202,-0.0722222259796579,-0.00694444498106275,0.0164933614432812,-0.0021380283869803,0.000610865245107561
5,1.01944450285877,-0.0805555590452358,0.00277777787846293,0.00549778714776039,-0.00519235478714108,0.0125227374956012
5,1.02361117850853,-0.0819444448505077,0.00694444498106275,-0.00488692196086049,-0.0113010071218014,0.0033597587607801
5,1.02500007039179,-0.0833333367337618,0.00833333382532574,-0.0103847095742822,-0.00855211354792118,0.0109955742955208
5,1.02500007039179,-0.0791666671619817,0.00416666691266287,-0.00855211354792118,-0.00488692196086049,0.00549778714776039
5,1.02222228662528,-0.0763888894734557,0.00416666691266287,-0.017409659922123,-0.00916297826915979,-0.0027488935738802
5,1.02638896227504,-0.0805555590452358,0.00138888893923146,-0.0284052342176437,-0.0106901414692402,-0.00824668072164059
5,1.02638896227504,-0.0791666671619817,0.00416666691266287,-0.02382374368608,-0.0109955742955208,-0.00885754637420177
5,1.02500007039179,-0.0819444448505077,0.00416666691266287,-0.0342084541916847,-0.0100792767480016,-0.0033597587607801
5,1.02222228662528,-0.0819444448505077,0.00416666691266287,-0.0265726372599602,-0.0146607663482428,0.0021380283869803
5,1.02222228662528,-0.0777777813567098,0.00833333382532574,-0.0235183127224445,-0.00916297826915979,-0.0027488935738802
5,1.02638896227504,-0.0708333340964038,0.00694444498106275,-0.0186313893646002,-0.00366519158706069,0.000916297896765172
5,1.02916674604155,-0.0763888894734557,0.00277777787846293,-0.029626963660121,-0.000916297896765172,-0.00641408516094089
5,1.02361117850853,-0.0833333367337618,0.00277777787846293,-0.03176499158144,0.00244346098043024,-0.0164933614432812
5,1.02222228662528,-0.0847222225390337,0.00277777787846293,-0.0287106670439243,0.0045814891345799,-0.0180205255746841
5,1.02916674604155,-0.0888888921108138,0.00277777787846293,-0.0250454749912024,-0.0021380283869803,-0.0308486949652433
5,1.02916674604155,-0.0861111144222878,0.00277777787846293,-0.0189368221908808,0.00824668072164059,-0.0219911485910416
5,1.02500007039179,-0.0819444448505077,-0.00277777787846293,-0.0226020142436027,0.01191187184304,-0.0143553335219622
5,1.02222228662528,-0.0847222225390337,-0.00277777787846293,-0.0140499006956816,0.00610865233466029,-0.01191187184304
5,1.01944450285877,-0.0819444448505077,-0.00277777787846293,-0.0103847095742822,-0.00152716308366507,-0.011606439948082
5,1.02500007039179,-0.0875000002275597,-0.00277777787846293,-0.0152716310694814,-0.00946841109544039,-0.0171042270958424
5,1.02777785415829,-0.0944444474878658,0.00555555575692586,-0.01588249579072,-0.00580321997404099,-0.0164933614432812
5,1.02500007039179,-0.0875000002275597,-0.00416666691266287,-0.0045814891345799,0.00122173049021512,-0.0109955742955208
5,1.02916674604155,-0.0805555590452358,-0.0125000003581147,-0.00916297826915979,0.0027488935738802,-0.013744467869401
5,1.02222228662528,-0.0777777813567098,-0.00555555575692586,-0.00977384392172098,0.00733038317412138,-0.011606439948082
5,1.01944450285877,-0.0777777813567098,-0.00555555575692586,-0.0134390350431204,-0.000916297896765172,-0.00152716308366507
5,1.02500007039179,-0.0763888894734557,0.00694444498106275,-0.01588249579072,-0.00488692196086049,0.0027488935738802
5,1.02916674604155,-0.0833333367337618,0.00694444498106275,-0.0134390350431204,-0.00885754637420177,-0.000305432622553781
5,1.02916674604155,-0.0833333367337618,0.00694444498106275,-0.000610865245107561,0.0045814891345799,0.00244346098043024
5,1.02916674604155,-0.0875000002275597,0.00555555575692586,0.00366519158706069,0.0045814891345799,-0.00885754637420177
5,1.02500007039179,-0.0777777813567098,0.00138888893923146,0.00885754637420177,0.00244346098043024,-0.00855211354792118
5,1.02638896227504,-0.0777777813567098,0.00694444498106275,0.000305432622553781,0.0033597587607801,-0.011606439948082
5,1.02638896227504,-0.0777777813567098,0.00694444498106275,-0.0021380283869803,-0.00397062394768,-0.0122173046693206
5,1.02500007039179,-0.0819444448505077,-0.00138888893923146,0.00855211354792118,0.00122173049021512,-0.00519235478714108
5,1.02777785415829,-0.0791666671619817,-0.00416666691266287,0.000305432622553781,0.00488692196086049,-0.0109955742955208
5,1.02500007039179,-0.0777777813567098,0.00138888893923146,-0.00366519158706069,0.00244346098043024,-0.00824668072164059
5,1.02222228662528,-0.0736111117849297,0.00833333382532574,-0.0021380283869803,0.00427605677396059,0.0045814891345799
5,1.02500007039179,-0.0861111144222878,0.00277777787846293,0.00549778714776039,0.00152716308366507,-0.0027488935738802
5,1.02638896227504,-0.0888888921108138,0.00277777787846293,0.00794124789535999,-0.00244346098043024,-0.0100792767480016
5,1.02222228662528,-0.0847222225390337,-0.00694444498106275,0.0219911485910416,0.00977384392172098,-0.00794124789535999
5,1.02500007039179,-0.0861111144222878,-0.00277777787846293,0.0219911485910416,0.00610865233466029,-0.00641408516094089
5,1.02500007039179,-0.0861111144222878,0.00416666691266287,0.02382374368608,0.00580321997404099,0.0033597587607801
5,1.02638896227504,-0.0847222225390337,0.00416666691266287,0.0219911485910416,0.00397062394768,0.0021380283869803
5,1.02500007039179,-0.0847222225390337,-0.00277777787846293,0.0164933614432812,0.00549778714776039,0.00183259579353034
5,1.02916674604155,-0.0819444448505077,-0.00555555575692586,0.0161879286170006,0.000610865245107561,0.000610865245107561
5,1.02638896227504,-0.0847222225390337,-0.00138888893923146,0.0207694191485643,0.00671951752156019,-0.000305432622553781
5,1.02916674604155,-0.0819444448505077,-0.00277777787846293,0.017409659922123,0.0021380283869803,0.00244346098043024
5,1.02916674604155,-0.0777777813567098,-0.00555555575692586,0.0164933614432812,0.00702495034784079,0.00519235478714108
5,1.02500007039179,-0.0777777813567098,0.00138888893923146,0.00763581553474069,0.00671951752156019,-0.00183259579353034
5,1.02222228662528,-0.0805555590452358,0.00277777787846293,-0.00122173049021512,0.00488692196086049,0.00519235478714108
5,1.02361117850853,-0.0833333367337618,-0.00833333382532574,0.0033597587607801,0.00152716308366507,0.00549778714776039
5,1.02638896227504,-0.0750000036681839,-0.00555555575692586,0.00122173049021512,0.000610865245107561,0.00671951752156019
5,1.02777785415829,-0.0777777813567098,-0.0111111115138517,0.00671951752156019,0.0045814891345799,0.000916297896765172
5,1.02777785415829,-0.0777777813567098,-0.00694444498106275,0.00763581553474069,0.00763581553474069,-0.00427605677396059
5,1.02361117850853,-0.0750000036681839,-0.00694444498106275,0.00519235478714108,0.0033597587607801,0.0021380283869803
5,1.02083339474202,-0.0819444448505077,0.00277777787846293,0.00641408516094089,0.0033597587607801,0.00671951752156019
5,1.03194452980806,-0.0847222225390337,0.00138888893923146,0.0143553335219622,0.00397062394768,-0.000610865245107561
5,1.02500007039179,-0.0833333367337618,0.00972222266958873,0.0201585534960032,0.0033597587607801,0.00763581553474069
5,1.02500007039179,-0.0777777813567098,0.00416666691266287,0.0213802829384804,-0.00122173049021512,0.0100792767480016
5,1.02638896227504,-0.0819444448505077,0.00416666691266287,0.0232128798961639,-0.0021380283869803,0.0177150927484035
5,1.02777785415829,-0.0805555590452358,-0.00416666691266287,0.0149661982432008,-0.00122173049021512,0.00610865233466029
5,1.02777785415829,-0.0750000036681839,0.00277777787846293,0.0109955742955208,0.0033597587607801,0.015577063895762
5,1.02777785415829,-0.0777777813567098,0.00277777787846293,0.0134390350431204,-0.00305432616733015,0.00824668072164059
5,1.02500007039179,-0.0819444448505077,0.00277777787846293,0.0103847095742822,0.0033597587607801,0.00855211354792118
5,1.02500007039179,-0.0888888921108138,0.00277777787846293,0.0152716310694814,-0.00305432616733015,0.00549778714776039
5,1.02916674604155,-0.0819444448505077,0.00277777787846293,0.0171042270958424,0.0033597587607801,0.00641408516094089
5,1.02916674604155,-0.0847222225390337,0.00277777787846293,0.0180205255746841,-0.000916297896765172,0.00122173049021512
5,1.02638896227504,-0.0722222259796579,0.00277777787846293,0.0189368221908808,0.00702495034784079,0.00549778714776039
5,1.02638896227504,-0.0777777813567098,0.00277777787846293,0.00977384392172098,0.00397062394768,-0.0033597587607801
5,1.02638896227504,-0.0777777813567098,0.00972222266958873,0.00183259579353034,0.00488692196086049,0.00580321997404099
5,1.02222228662528,-0.0819444448505077,0.00277777787846293,0.00122173049021512,0.00488692196086049,0.000916297896765172
5,1.02500007039179,-0.0819444448505077,0.00555555575692586,0.00488692196086049,-0.0027488935738802,0.00855211354792118
5,1.02777785415829,-0.0888888921108138,0.0111111115138517,0.00946841109544039,0.00610865233466029,0.00519235478714108
5,1.02777785415829,-0.0875000002275597,-0.00138888893923146,0.00977384392172098,0.00702495034784079,0.00671951752156019
5,1.02500007039179,-0.0902777839940679,-0.00555555575692586,0.0045814891345799,0.00824668072164059,-0.0033597587607801
5,1.02500007039179,-0.0861111144222878,-0.00277777787846293,-0.00305432616733015,0.0027488935738802,0.00641408516094089
5,1.02500007039179,-0.0833333367337618,-0.00277777787846293,0.0045814891345799,0.00244346098043024,0.0103847095742822
5,1.01805561097552,-0.0777777813567098,0.00694444498106275,-0.00824668072164059,-0.00366519158706069,0.00122173049021512
5,1.02500007039179,-0.0902777839940679,0.00694444498106275,0.00641408516094089,0.000610865245107561,-0.000610865245107561
5,1.02500007039179,-0.0875000002275597,-0.00277777787846293,0.00977384392172098,-0.00366519158706069,0.00824668072164059
5,1.02500007039179,-0.0875000002275597,-0.00555555575692586,0.00671951752156019,0.00733038317412138,-0.00488692196086049
5,1.02916674604155,-0.0847222225390337,-0.00555555575692586,0.00641408516094089,0.013744467869401,-0.0027488935738802
5,1.02638896227504,-0.0861111144222878,0.00972222266958873,0.00641408516094089,0.00824668072164059,0.00244346098043024
5,1.02222228662528,-0.0861111144222878,0.0125000003581147,0.00824668072164059,-0.000916297896765172,0.00397062394768
5,1.02500007039179,-0.0861111144222878,0.00277777787846293,0.013744467869401,0.00488692196086049,0.00183259579353034
5,1.02500007039179,-0.0861111144222878,0.00277777787846293,0.0113010071218014,0.011606439948082,0.00152716308366507
5,1.02500007039179,-0.0916666697993398,0.00277777787846293,0.00763581553474069,0.0113010071218014,-0.00152716308366507
5,1.02777785415829,-0.0819444448505077,0.00277777787846293,-0.00183259579353034,0.00885754637420177,0.00549778714776039
5,1.02361117850853,-0.0777777813567098,0.00555555575692586,-0.00671951752156019,0.00122173049021512,0.000610865245107561
5,1.02638896227504,-0.0819444448505077,0.00555555575692586,0.00183259579353034,0.00244346098043024,0.00610865233466029
5,1.02361117850853,-0.0847222225390337,0.00277777787846293,0.0131336031481624,-0.0021380283869803,0.00885754637420177
5,1.02916674604155,-0.0875000002275597,0.00277777787846293,0.0235183127224445,0.00580321997404099,0.0033597587607801
5,1.02777785415829,-0.0833333367337618,0.00277777787846293,0.0210748501121998,0.0045814891345799,0.00702495034784079
5,1.02638896227504,-0.0791666671619817,0.00555555575692586,0.00702495034784079,0.00580321997404099,0.00152716308366507
5,1.02916674604155,-0.0750000036681839,0.00555555575692586,0.0100792767480016,0.0125227374956012,-0.00916297826915979
5,1.02500007039179,-0.0763888894734557,0.00416666691266287,-0.00671951752156019,0.00397062394768,0.000305432622553781
5,1.02222228662528,-0.0791666671619817,0.00138888893923146,-0.00122173049021512,-0.00427605677396059,-0.00671951752156019
5,1.02361117850853,-0.0861111144222878,0.00416666691266287,-0.000916297896765172,0.0021380283869803,-0.00580321997404099
5,1.02916674604155,-0.0902777839940679,0.00277777787846293,0.00733038317412138,-0.0027488935738802,0.00152716308366507
5,1.02916674604155,-0.0847222225390337,0.00555555575692586,0.000610865245107561,0.0033597587607801,0.0027488935738802
5,1.02638896227504,-0.0819444448505077,0.00555555575692586,0.0021380283869803,0.0033597587607801,-0.000305432622553781
5,1.02222228662528,-0.0875000002275597,0.00555555575692586,-0.0033597587607801,0.00488692196086049,0.00183259579353034
5,1.02222228662528,-0.0861111144222878,0.00972222266958873,-0.0021380283869803,0.00366519158706069,0.0021380283869803
5,1.02777785415829,-0.0902777839940679,0.00555555575692586,0.00702495034784079,-0.000916297896765172,-0.0033597587607801
5,1.02916674604155,-0.0875000002275597,0.00555555575692586,0.0247400421649218,-0.0027488935738802,0.00671951752156019
5,1.02500007039179,-0.0777777813567098,0.00555555575692586,0.0131336031481624,-0.0103847095742822,0.000305432622553781
5,1.02361117850853,-0.0777777813567098,0.00555555575692586,0.00122173049021512,-0.00152716308366507,0.00702495034784079
5,1.02500007039179,-0.0819444448505077,0.00138888893923146,0.00152716308366507,0.0045814891345799,0.00610865233466029
5,1.02222228662528,-0.0833333367337618,-0.00277777787846293,-0.00305432616733015,0.00580321997404099,-0.000305432622553781
5,1.02916674604155,-0.0833333367337618,0.00277777787846293,-0.000305432622553781,0.0106901414692402,-0.00488692196086049
5,1.02222228662528,-0.0888888921108138,0.00555555575692586,0.00580321997404099,0.00427605677396059,0.00305432616733015
5,1.02916674604155,-0.0875000002275597,0.00138888893923146,0.0164933614432812,0.0033597587607801,0.000916297896765172
5,1.02777785415829,-0.0861111144222878,0.00138888893923146,0.0122173046693206,0.00580321997404099,-0.00733038317412138
5,1.02500007039179,-0.0833333367337618,-0.00555555575692586,0.0109955742955208,0.00580321997404099,-0.00427605677396059
5,1.02222228662528,-0.0819444448505077,-0.00277777787846293,0.013744467869401,0.00122173049021512,-0.000610865245107561
5,1.02222228662528,-0.0833333367337618,-0.00277777787846293,0.0177150927484035,-0.000305432622553781,-0.0113010071218014
5,1.02500007039179,-0.0847222225390337,-0.00277777787846293,0.0171042270958424,0.0045814891345799,-0.00733038317412138
5,1.02777785415829,-0.0791666671619817,-0.00277777787846293,0.0177150927484035,0.00183259579353034,-0.00610865233466029
5,1.02500007039179,-0.0805555590452358,0.00416666691266287,0.0146607663482428,0.00244346098043024,-0.00641408516094089
5,1.02777785415829,-0.0847222225390337,0.00416666691266287,0.0100792767480016,0.00488692196086049,-0.0134390350431204
5,1.02777785415829,-0.0805555590452358,-0.00416666691266287,0.00397062394768,-0.00244346098043024,-0.00946841109544039
5,1.02361117850853,-0.0805555590452358,-0.00416666691266287,0.0125227374956012,0.00397062394768,-0.0140499006956816
5,1.02916674604155,-0.0847222225390337,-0.00416666691266287,0.00305432616733015,0.00366519158706069,-0.015577063895762
5,1.02777785415829,-0.0847222225390337,0.00555555575692586,0.0113010071218014,0.00580321997404099,-0.0229074470698834
5,1.02916674604155,-0.0819444448505077,0.00555555575692586,0.0177150927484035,-0.000610865245107561,-0.019547687843442
5,1.02500007039179,-0.0805555590452358,0.00138888893923146,0.00855211354792118,-0.000610865245107561,-0.00427605677396059
5,1.02222228662528,-0.0833333367337618,0.00138888893923146,0.00671951752156019,0.000610865245107561,-0.00977384392172098
5,1.02361117850853,-0.0847222225390337,-0.00555555575692586,0.0027488935738802,-0.0021380283869803,-0.00946841109544039
5,1.02222228662528,-0.0833333367337618,-0.00277777787846293,0.00733038317412138,0.000916297896765172,-0.0109955742955208
5,1.02638896227504,-0.0833333367337618,-0.00277777787846293,-0.00549778714776039,0.00122173049021512,-0.00610865233466029
5,1.02500007039179,-0.0791666671619817,-0.00555555575692586,0.00488692196086049,-0.00152716308366507,-0.00122173049021512
5,1.02777785415829,-0.0847222225390337,-0.00416666691266287,0.0128281703218818,0.0021380283869803,-0.0125227374956012
5,1.02777785415829,-0.0875000002275597,-0.00416666691266287,0.0207694191485643,0.000305432622553781,0.000916297896765172
5,1.02777785415829,-0.0875000002275597,-0.00277777787846293,0.0256563406437635,0.0027488935738802,-0.01191187184304
5,1.02500007039179,-0.0847222225390337,-0.00555555575692586,0.00733038317412138,-0.0045814891345799,-0.0222965814173222
5,1.01944450285877,-0.0791666671619817,-0.00555555575692586,-0.00977384392172098,-0.00397062394768,-0.0149661982432008
5,1.02361117850853,-0.0833333367337618,-0.00277777787846293,-0.01191187184304,-0.000610865245107561,-0.0103847095742822
5,1.02638896227504,-0.0819444448505077,-0.00277777787846293,-0.013744467869401,0.00733038317412138,-0.00366519158706069
5,1.02916674604155,-0.0875000002275597,0.00416666691266287,-0.0128281703218818,-0.00397062394768,-0.0045814891345799
5,1.03194452980806,-0.0861111144222878,0.00694444498106275,0.0045814891345799,0.00855211354792118,-0.00824668072164059
5,1.02916674604155,-0.0888888921108138,0.00138888893923146,0.0222965814173222,0.00244346098043024,-0.0128281703218818
5,1.03194452980806,-0.0888888921108138,0.00277777787846293,0.0308486949652433,0.00519235478714108,-0.0140499006956816
5,1.02500007039179,-0.0902777839940679,0.00555555575692586,0.0412334054708481,0.00244346098043024,-0.00397062394768
5,1.02777785415829,-0.0875000002275597,0.00555555575692586,0.0461203269660473,0.0045814891345799,-0.00305432616733015
5,1.02500007039179,-0.0805555590452358,0.00138888893923146,0.0531452745199203,-0.00244346098043024,0.0033597587607801
5,1.02638896227504,-0.0736111117849297,0.0125000003581147,0.0510072484612465,0.0027488935738802,0.00122173049021512
5,1.02638896227504,-0.0694444482911319,0.00277777787846293,0.0320704244077206,0.00152716308366507,0.00610865233466029
5,1.02916674604155,-0.0680555564078778,0.00555555575692586,0.0268780700862408,0.0033597587607801,0.000916297896765172
5,1.02777785415829,-0.0680555564078778,0.00416666691266287,0.00488692196086049,0.0033597587607801,-0.0033597587607801
5,1.02361117850853,-0.0736111117849297,-0.00555555575692586,-0.00794124789535999,0.0103847095742822,-0.0113010071218014
5,1.02500007039179,-0.0722222259796579,0.00416666691266287,-0.017409659922123,0.00855211354792118,-0.00671951752156019
5,1.02916674604155,-0.0791666671619817,0.00972222266958873,-0.0235183127224445,0.00366519158706069,-0.0164933614432812
