Activity,acc_x,acc_y,acc_z,gyro_x,gyro_y,gyro_z
0,0.433333343721983,0.0194444453391775,0.893055633225794,-0.0897971913218498,-0.058643065392971,0.12705996632576
0,0.427777776188966,0.0180555564949145,0.876388930626744,-0.0784961804747581,-0.147218525409698,0.131336033344269
0,0.440277803138253,-0.00416666691266287,0.902777779160856,0.00733038317412138,-0.17470745742321,0.196087747812271
0,0.440277803138253,-0.00416666691266287,0.902777779160856,0.00733038317412138,-0.17470745742321,0.196087747812271
0,0.423611149163062,-0.00972222266958873,0.926388941176177,0.0662788823246956,-0.0125227374956012,0.23243422806263
0,0.411111122213775,0.00972222266958873,0.915277806110144,-0.0335975885391235,-0.178372651338577,0.240070044994354
0,0.462500024646461,0.00555555575692586,0.862500011794203,-0.171958565711975,-0.413250327110291,0.200669229030609
0,0.476388894855144,-0.0180555564949145,0.865277795560711,-0.0897971913218498,-0.331088960170746,0.240986332297325
0,0.477777786738398,-0.033333335301303,0.886111173809523,0.0522289797663689,-0.0287106670439243,0.266948103904724
0,0.447222262554524,-0.0194444453391775,0.902777779160856,0.0177150927484035,0.0717766657471657,0.298102229833603
0,0.452777781463682,-0.0125000003581147,0.880555606276507,0.0262672062963247,0.108428582549095,0.252898216247559
0,0.473611111088636,-0.0125000003581147,0.884722281926269,0.090408056974411,0.187535628676414,0.171347707509995
0,0.473611111088636,-0.0125000003581147,0.884722281926269,0.118507854640484,0.0992656052112579,0.109344877302647
0,0.476388894855144,-0.026388891079988,0.883333390043015,0.166155353188515,0.193644285202026,0.0934623852372169
0,0.458333348996699,-0.0222222230277034,0.911111130460381,0.190895393490791,0.275805652141571,0.0775798857212067
0,0.447222262554524,-0.0208333341834404,0.916666697993398,0.194560587406159,0.386983126401901,0.0335975885391235
0,0.426388884305712,-0.0111111115138517,0.906944454810619,0.203723564743996,0.58704149723053,0.0372627787292004
0,0.426388884305712,-0.0111111115138517,0.906944454810619,0.262672066688538,0.599869668483734,0.0439822971820831
0,0.44583337067127,-0.00138888893923146,0.911111130460381,0.350636661052704,0.518930017948151,0.0726929605007172
0,0.433333343721983,-0.00277777787846293,0.89166674134254,0.429132848978043,0.677449584007263,0.0824668109416962
0,0.433333343721983,-0.00277777787846293,0.89166674134254,0.336586743593216,0.546113550662994,0.424245923757553
0,0.372222246730376,0.0222222230277034,0.805555590452358,-0.454789161682129,-1.42637038230896,0.885143756866455
0,0.459722240879953,-0.00694444498106275,0.916666697993398,-0.0736092627048492,-0.13744467496872,0.435852348804474
0,0.459722240879953,-0.00694444498106275,0.916666697993398,0.328034639358521,0.288328409194946,0.566882967948914
0,0.394444468238583,0.0500000014324589,0.959722249126559,0.438295811414719,0.223882108926773,0.512515962123871
0,0.20972223675665,0.118055554801345,1.05833337834217,0.531147301197052,0.0146607663482428,0.937067270278931
0,0.20972223675665,0.118055554801345,1.05833337834217,0.488081336021423,-0.543975472450256,1.22478485107422
0,0.275000009398019,0.131944449321958,0.930555616825939,0.115758962929249,-0.50335294008255,1.30877876281738
0,0.373611114301701,0.0500000014324589,0.768055606852213,-0.232128798961639,-0.0885754600167274,1.3322970867157
0,0.515277818962402,-0.100000002864918,0.85138887672817,-0.165849909186363,0.249843880534172,1.09864115715027
0,0.515277818962402,-0.100000002864918,0.85138887672817,-0.0198531206697226,0.351247519254685,0.977078974246979
0,0.49166670557094,-0.111111119697004,0.877777822509998,-0.0827722400426865,0.187230199575424,0.959974706172943
0,0.459722240879953,-0.123611110178398,0.894444525109048,-0.247705861926079,-0.0235183127224445,1.02961337566376
0,0.473611111088636,-0.126388893944906,0.908333346693873,-0.353996396064758,0.0192422550171614,0.944092214107513
0,0.454166673346937,-0.112499999424294,0.872222254976982,-0.493884563446045,-0.204028993844986,0.875064492225647
0,0.413888905980283,-0.134722233088466,0.872222254976982,-0.473420560359955,-0.709825396537781,0.89949905872345
0,0.402777795226179,-0.144444451959316,0.923611157409668,-0.149661988019943,-0.871399283409119,0.843299448490143
0,0.427777776188966,-0.13750000469901,0.983333411141879,0.0717766657471657,-0.666453957557678,0.799317181110382
0,0.493055597454194,-0.144444451959316,0.99583334084345,0.145385921001434,-0.432492583990097,0.709825396537781
0,0.548611126912784,-0.175000000455119,0.916666697993398,-0.0675006061792374,-0.423940479755402,0.638048768043518
0,0.519444445988306,-0.181944447715425,0.786111152710659,-0.524122357368469,-0.890946984291077,0.582765460014343
0,0.505555575779623,-0.226388890731841,0.826388920077312,-0.265420943498612,-1.21134579181671,0.406225383281708
0,0.656944450687316,-0.281944444502361,0.894444525109048,0.128892570734024,-0.755334854125977,0.00427605677396059
0,0.65833334257057,-0.238888893369199,0.86805557932722,0.0616973899304867,-0.571769893169403,-0.162795588374138
0,0.661111126337078,-0.195833342236038,0.795833347269579,-0.216246291995048,-0.855516791343689,-0.315206468105316
0,0.715277812536273,-0.216666671860991,0.663888910103586,-1.02472639083862,-1.38574779033661,-0.0326812900602817
0,0.723611115211939,-0.305555557893823,0.652777823661411,-0.589790403842926,-1.19179809093475,0.532369077205658
0,0.68472223972854,-0.322222236180943,0.662500018220332,-0.359188765287399,-2.02196407318115,1.08520209789276
0,0.551388910679293,-0.266666682410424,0.629166710269949,-0.525038659572601,-2.5112669467926,1.10322260856628
0,0.6125000076709,-0.252777787889811,0.623611142736933,-0.334448724985123,-2.49966049194336,1.25838243961334
0,0.715277812536273,-0.341666673922643,0.434722235605237,-0.42271876335144,-4.85912752151489,0.970054030418396
0,0.787500044593913,-0.326388911830706,0.320833344297689,-0.761443555355072,-6.78610181808472,0.998459219932556
0,0.75694447178618,-0.288888903918631,0.463888916529715,-1.111163854599,-6.95867156982422,1.16827976703644
0,0.841666730793107,-0.348611133338914,0.680555564078778,-1.74707460403442,-4.9593095779419,1.46241140365601
0,0.880555606276507,-0.390277792588821,0.690277807261557,-1.69118046760559,-3.55615210533142,1.36406207084656
0,0.899999995394348,-0.402777795226179,0.558333370095563,-1.02716994285583,-3.28431701660156,0.931874930858612
0,0.837500055143345,-0.302777798439244,0.250000004123303,-0.720515549182892,-3.52957940101623,0.48197266459465
0,0.952777789710289,-0.327777779402031,0.16527778158427,-1.12154853343964,-4.43152189254761,-0.0372627787292004
0,0.941666654644256,-0.493055597454194,0.334722238818301,-1.1844676733017,-4.48649978637695,-0.362548530101776
0,0.89166674134254,-0.505555575779623,0.347222241455659,-0.903164267539978,-2.72476434707642,-0.245873257517815
0,0.886111173809523,-0.334722238818301,0.0361111129898289,-0.865901470184326,-1.8613064289093,-0.212581098079681
0,0.959722249126559,-0.288888903918631,-0.1194444466846,-1.49509263038635,-3.14473438262939,-1.04793930053711
0,0.880555606276507,-0.316666668647927,-0.0652777787193518,-1.17133414745331,-2.47278261184692,-0.922406494617462
0,1.00000001649321,-0.354166676560001,-0.0402777795226179,-0.127670839428902,-1.56106615066528,-0.733649134635925
0,1.12638888612619,-0.370833354847121,-0.0750000036681839,0.627053201198578,-0.62338799238205,-0.68630713224411
0,1.12499999424293,-0.351388892793493,-0.193055558469529,0.594982743263245,-0.203418120741844,-0.765719592571259
0,1.13055556177595,-0.327777779402031,-0.248611112240049,0.178678080439568,-0.43401974439621,-0.760832667350769
0,1.17777778855888,-0.352777784676747,-0.298611122789481,-0.11117747426033,-0.97830069065094,-0.769079327583313
0,1.01111115155925,-0.388888900705567,-0.220833347510754,0.0204639863222837,-0.563217759132385,-0.359188765287399
0,0.884722281926269,-0.350000000910239,-0.20972223675665,0.3378084897995,0.366824567317963,-0.167987942695618
0,0.856944444261187,-0.300000014672736,-0.198611113846581,-0.0815505087375641,0.176540061831474,-0.636216163635254
0,0.911111130460381,-0.256944463539574,-0.193055558469529,-0.636826992034912,1.12429749965668,-1.35031759738922
0,0.984722303025134,-0.254166679773066,-0.259722222994153,-0.993572294712067,0.292604446411133,-1.42423236370087
0,1.07083340529146,-0.33750002258481,-0.14722222356986,-0.489608496427536,-0.473420560359955,-0.94195419549942
0,0.888888957576031,-0.322222236180943,-0.25555557165632,-0.204945296049118,0.00244346098043024,0.0201585534960032
0,0.888888957576031,-0.322222236180943,-0.25555557165632,-0.0360410511493683,0.078801617026329,0.171958565711975
0,0.993055557076942,-0.140277788465518,-0.279166685047782,0.0821613743901253,0.0568104684352875,-0.416304677724838
0,1.02916674604155,-0.193055558469529,-0.323611128064198,0.231823354959488,0.208610475063324,-1.32191240787506
0,1.02916674604155,-0.193055558469529,-0.323611128064198,-0.76052725315094,-0.13225232064724,-0.883005738258362
0,1.15416672379127,-0.318055560531181,-0.286111120152123,-0.192422553896904,0.205861583352089,-0.531452775001526
0,1.09861114570882,-0.224999998848587,-0.334722238818301,0.186924770474434,0.646600842475891,-0.48197266459465
0,1.0361111082101,-0.180555567988136,-0.383333357484479,-0.233655959367752,0.554054796695709,-0.494800835847855
0,1.03888889197661,-0.166666673467524,-0.361111135976272,-0.0717766657471657,0.418442696332932,-0.439822971820831
0,1.00972225967599,-0.172222228844576,-0.268055574293678,-0.127365410327911,0.526260435581207,-0.42852196097374
0,0.899999995394348,-0.102777780553444,-0.243055569018962,-0.36529740691185,1.04702305793762,-0.408668845891953
0,0.87500003874349,-0.152777778946911,-0.154166670830166,-0.236710280179977,1.15392446517944,-0.673784375190735
0,0.837500055143345,-0.154166670830166,-0.118055554801345,-0.213802829384804,1.92208755016327,-0.199142068624496
0,0.962500032893068,-0.226388890731841,-0.131944449321958,0.0864374339580536,1.19454693794251,0.565355777740479
0,1.16666675074056,-0.0750000036681839,-0.230555566381603,0.334143280982971,-0.0852157026529312,0.579405665397644
0,1.0902777944093,-0.0541666679652478,-0.130555557438704,0.187230199575424,-0.24862214922905,0.471282541751862
0,1.04583335139288,-0.105555564319952,-0.0666666706026059,0.13744467496872,-0.326812893152237,0.477085769176483
0,0.902777779160856,-0.104166672436698,-0.13750000469901,0.0213802829384804,-0.429743707180023,0.333837866783142
0,1.12083341584089,-0.15555556271342,-0.133333341205212,-0.257479697465897,-0.712879717350006,-0.426078498363495
0,1.14444448060849,-0.163888889701015,-0.108333335930496,-0.196087747812271,-0.781602084636688,-0.113010071218014
0,1.14444448060849,-0.163888889701015,-0.108333335930496,-0.315817326307297,-0.76205438375473,0.256563395261765
0,1.05416670269241,-0.223611131277262,-0.0375000018340919,0.200363799929619,-0.759000062942505,0.0100792767480016
0,1.0361111082101,-0.144444451959316,-0.312500017310094,0.211664810776711,-0.548862397670746,-0.0821613743901253
0,1.04861113515939,-0.105555564319952,-0.293055555256465,0.184481307864189,0.0830776765942574,-0.0561996027827263
0,1.0361111082101,-0.113888891307548,-0.345833349572405,-0.0827722400426865,0.255036234855652,0.0360410511493683
0,1.01666671909226,-0.161111118090472,-0.229166674498349,-0.136222943663597,0.570548117160797,0.081855945289135
0,1.00694447590948,-0.175000000455119,-0.19166667874224,-0.00488692196086049,0.551305890083313,-0.0335975885391235
0,1.01527782720901,-0.154166670830166,-0.194444450352783,0.0167987942695618,0.629191219806671,-0.0378736443817616
0,1.01527782720901,-0.154166670830166,-0.194444450352783,0.146913096308708,1.23791837692261,-0.234572261571884
0,0.743055601577497,-0.00555555575692586,-0.212499996211229,-0.307265222072601,1.39521622657776,0.087659165263176
0,0.787500044593913,-0.0611111152255539,-0.0166666676506515,-0.126449108123779,0.717155814170837,0.138666406273842
0,0.745833336720147,-0.184722231481934,-0.0777777813567098,-0.0873537287116051,0.660956203937531,-0.0809396430850029
0,1.08888890252604,-0.212499996211229,-0.101388894748172,0.0968221426010132,0.499687761068344,-0.125838235020638
0,1.08888890252604,-0.212499996211229,-0.101388894748172,-0.0045814891345799,0.3961461186409,-0.125838235020638
0,1.11527784830787,-0.120833338567854,-0.120833338567854,-0.0748309940099716,0.255952537059784,-0.0372627787292004
0,1.04444445950963,-0.118055554801345,-0.100000002864918,-0.0427605658769607,0.198836639523506,-0.0122173046693206
0,1.04444445950963,-0.118055554801345,-0.100000002864918,-0.0403171069920063,-0.00794124789535999,0.0219911485910416
0,0.498611116363352,-0.159722226207217,0.029166668768514,0.177456349134445,-0.408057987689972,1.00792765617371
0,0.706944461236748,-0.197222234119292,-0.0236111118719664,0.0565050356090069,-0.177150920033455,1.1856894493103
0,1.10277782135859,-0.204166669223633,-0.0875000002275597,0.029626963660121,-0.399811297655106,0.652098655700684
0,1.10277782135859,-0.204166669223633,-0.0875000002275597,-0.011606439948082,-0.250149309635162,0.547029852867126
0,1.10277782135859,-0.204166669223633,-0.0875000002275597,0.107512280344963,-0.189062789082527,0.645684540271759
0,1.10277782135859,-0.204166669223633,-0.0875000002275597,0.131641462445259,-0.168598800897598,0.595593631267548
0,1.10277782135859,-0.254166679773066,-0.14583334384257,0.13225232064724,-0.0668897479772568,0.437379509210587
0,1.13472223742571,-0.266666682410424,-0.152777778946911,0.125532805919647,0.135001212358475,0.128587126731873
0,1.06250005399193,-0.238888893369199,-0.150000007336368,0.0653625801205635,0.28557950258255,0.197309479117393
0,0.934722292475701,-0.243055569018962,-0.12916666555545,-0.00152716308366507,0.236710280179977,0.128892570734024
0,0.934722292475701,-0.243055569018962,-0.12916666555545,-0.000916297896765172,0.198836639523506,-0.328645497560501
0,0.934722292475701,-0.243055569018962,-0.12916666555545,-0.10048733651638,0.310930401086807,-0.248927593231201
0,1.05277781080915,-0.223611131277262,-0.125000002061652,-0.00519235478714108,0.611476123332977,-0.225409269332886
0,0.983333411141879,-0.229166674498349,-0.120833338567854,-0.0913243517279625,0.663399636745453,-0.273056775331497
0,1.0361111082101,-0.229166674498349,-0.0791666671619817,-0.00946841109544039,0.609643518924713,-0.0928515195846558
0,1.05972227022542,-0.216666671860991,-0.0222222230277034,0.0167987942695618,0.0806342139840126,-0.209221348166466
0,1.1083333888916,-0.226388890731841,-0.0625000010308258,-0.0186313893646002,-0.00397062394768,-0.121256753802299
0,1.1083333888916,-0.226388890731841,-0.0625000010308258,-0.242818936705589,-0.157297804951668,-0.140804439783096
0,1.01111115155925,-0.243055569018962,-0.0791666671619817,-0.167377084493637,-0.24342979490757,-0.175929188728332
0,1.00694447590948,-0.230555566381603,-0.0347222241455659,-0.0797179117798805,-0.261144906282425,-0.151800006628036
0,0.984722303025134,-0.211111128639904,-0.0652777787193518,-0.0583376325666905,-0.263282924890518,-0.0943786799907684
0,0.984722303025134,-0.211111128639904,-0.0652777787193518,0.037568211555481,-0.027488935738802,-0.120645888149738
0,0.984722303025134,-0.211111128639904,-0.0652777787193518,0.146607652306557,0.130419731140137,-0.147829383611679
0,0.975000059842355,-0.15555556271342,-0.17361112072783,0.11636982858181,0.0033597587607801,-0.0342084541916847
0,1.09444447005906,-0.187500003092477,-0.0458333348996699,0.258395999670029,-0.173485726118088,-0.0253509078174829
0,1.17638889667562,-0.161111118090472,-0.106944444047242,0.419053554534912,0.0250454749912024,-0.0503963828086853
0,1.17638889667562,-0.161111118090472,-0.106944444047242,0.0885754600167274,1.25410640239716,-0.0265726372599602
0,0.983333411141879,-0.226388890731841,-0.152777778946911,-0.292299032211304,0.45998153090477,0.0641408488154411
0,0.85138887672817,-0.229166674498349,0.0944444474878658,0.0180205255746841,-0.0907134860754013,-0.0250454749912024
0,0.87500003874349,-0.200000005729836,-0.00833333382532574,-0.0534507073462009,-0.411417752504349,-0.0149661982432008
0,0.991666665193688,-0.18333333959868,-0.0652777787193518,-0.0335975885391235,-0.508850753307343,-0.0424551330506802
0,0.991666665193688,-0.18333333959868,-0.0652777787193518,0.259923160076141,1.45630276203155,0.0406225398182869
0,0.991666665193688,-0.18333333959868,-0.0652777787193518,-0.136528387665749,0.97830069065094,0.113620936870575
0,0.991666665193688,-0.18333333959868,-0.0652777787193518,0.0384845100343227,-0.0244346093386412,0.0210748501121998
0,0.962500032893068,-0.220833347510754,0.00277777787846293,-0.0100792767480016,0.0247400421649218,-0.0103847095742822
0,0.962500032893068,-0.220833347510754,0.00277777787846293,-0.0849102661013603,-0.0192422550171614,-0.0143553335219622
0,1.00416669214298,-0.195833342236038,-0.0250000007162294,-0.00427605677396059,-0.01588249579072,-0.000305432622553781
0,1.04861113515939,-0.202777789496344,-0.0458333348996699,0.0369573459029198,0.0360410511493683,-0.00519235478714108
0,1.04861113515939,-0.202777789496344,-0.0458333348996699,0.136528387665749,-0.18020524084568,0.0565050356090069
0,1.04861113515939,-0.202777789496344,-0.0458333348996699,0.147523954510689,-0.308181524276733,0.0855211317539215
0,1.04861113515939,-0.202777789496344,-0.0458333348996699,0.147523954510689,-0.308181524276733,0.0855211317539215
0,1.04861113515939,-0.202777789496344,-0.0458333348996699,0.147523954510689,-0.308181524276733,0.0855211317539215
0,1.04861113515939,-0.202777789496344,-0.0458333348996699,0.147523954510689,-0.308181524276733,0.0855211317539215
0,1.04861113515939,-0.202777789496344,-0.0458333348996699,0.153632611036301,-0.443182736635208,0.101709060370922
0,1.05277781080915,-0.170833336961321,-0.0680555564078778,0.286190360784531,-0.620333671569824,0.234266817569733
0,1.05277781080915,-0.170833336961321,-0.0680555564078778,0.107817716896534,0.225103840231896,0.129808858036995
0,1.11111117265811,-0.243055569018962,-0.159722226207217,0.0574213340878487,0.43860125541687,0.10567969083786
0,1.08472222687628,-0.238888893369199,-0.14722222356986,-0.0983493030071259,0.634078145027161,0.00183259579353034
0,1.09722225382557,-0.256944463539574,-0.0875000002275597,-0.28008171916008,0.574824213981628,-0.320398807525635
0,1.04861113515939,-0.259722222994153,-0.0416666683668809,-0.17470745742321,0.57757306098938,-0.221438646316528
0,0.979166735492117,-0.212499996211229,-0.0416666683668809,0.0470366254448891,0.459065228700638,-0.229685336351395
0,0.930555616825939,-0.163888889701015,0.0125000003581147,0.0626136884093285,0.210443079471588,0.0448985956609249
0,0.954166681593543,-0.161111118090472,0.0458333348996699,0.0632245540618896,-0.0650571510195732,0.0229074470698834
0,0.979166735492117,-0.202777789496344,0.00277777787846293,-0.0659734457731247,-0.196698606014252,-0.0308486949652433
0,0.98888888142718,-0.212499996211229,0.00972222266958873,-0.00549778714776039,-0.398284137248993,-0.0271835029125214
0,1.02916674604155,-0.179166676104882,-0.0111111115138517,0.0833831056952477,-0.368046313524246,0.0430659987032413
0,1.01944450285877,-0.181944447715425,-0.0125000003581147,0.0681114718317986,-0.452956587076187,0.0864374339580536
0,0.98888888142718,-0.205555561106887,-0.0152777788063885,0.0384845100343227,-0.564439475536346,0.0821613743901253
0,1.02083339474202,-0.212499996211229,-0.111111119697004,-0.0210748501121998,0.00855211354792118,-0.0027488935738802
0,1.02222228662528,-0.2194444556275,-0.0833333367337618,-0.0623082555830479,0.00733038317412138,-0.0360410511493683
0,1.03750000009336,-0.200000005729836,-0.0513888902767219,-0.133168622851372,-0.017409659922123,-0.0821613743901253
0,1.03194452980806,-0.18333333959868,-0.0388888906783549,0.0812450796365738,-0.176845490932465,-0.019547687843442
0,1.03194452980806,-0.18333333959868,-0.0388888906783549,0.126143679022789,0.204334422945976,0.0146607663482428
0,1.02638896227504,-0.19166667874224,-0.0694444482911319,-0.303905457258224,-0.468839079141617,0.0146607663482428
0,0.952777789710289,-0.202777789496344,-0.0194444453391775,-0.129808858036995,-0.445626199245453,0.0354301854968071
0,1.00972225967599,-0.212499996211229,-0.0763888894734557,0.0302378293126821,-0.0986547395586967,0.0656680166721344
0,1.10000003759208,-0.238888893369199,-0.108333335930496,0.644157409667969,0.983798503875732,0.00702495034784079
0,1.14166669684199,-0.176388892338373,-0.131944449321958,0.253509074449539,0.572686195373535,0.106901414692402
0,0.993055557076942,-0.170833336961321,-0.0222222230277034,0.0800233483314514,0.382096201181412,0.0574213340878487
0,0.89166674134254,-0.218055563744246,0.00138888893923146,-0.186313897371292,-0.08460483700037,-0.0647517144680023
0,0.955555573476797,-0.220833347510754,-0.0152777788063885,-0.150272846221924,-0.00824668072164059,-0.027488935738802
0,1.05277781080915,-0.211111128639904,-0.0486111125881959,-0.180816113948822,0.170431405305862,-0.0229074470698834
0,1.04861113515939,-0.18333333959868,-0.0513888902767219,-0.151800006628036,0.231517925858498,-0.0219911485910416
0,1.01944450285877,-0.166666673467524,-0.0444444460554069,-0.0931569486856461,0.136528387665749,-0.00488692196086049
0,1.00416669214298,-0.177777784221628,-0.0208333341834404,-0.0675006061792374,0.116675265133381,-0.0045814891345799
0,0.986111194908388,-0.20138889761309,0.00138888893923146,-0.120340451598167,-0.0897971913218498,-0.017409659922123
0,1.00555558402623,-0.216666671860991,-0.0458333348996699,-0.234572261571884,-0.18020524084568,-0.0571159012615681
0,1.02500007039179,-0.20138889761309,-0.055555559848502,-0.177761793136597,-0.168293371796608,-0.0293215326964855
0,1.03194452980806,-0.181944447715425,-0.0458333348996699,0.0766635909676552,-0.166460782289505,0.0219911485910416
0,1.06666672964169,-0.186111123365188,-0.0597222233422998,0.113926365971565,0.136222943663597,0.0604756586253643
0,1.04027778385987,-0.20972223675665,-0.0486111125881959,-0.0531452745199203,0.302989155054092,0.0222965814173222
0,0.96666670854283,-0.233333350148112,-0.0180555564949145,-0.204945296049118,0.0491746515035629,-0.0500909499824047
0,1.00555558402623,-0.202777789496344,-0.0430555572111439,-0.36987891793251,-0.225103840231896,-0.0308486949652433
0,1.06250005399193,-0.176388892338373,-0.0583333375370279,-0.0235183127224445,-0.0699440687894821,0.130114302039146
0,1.0513889189259,-0.187500003092477,-0.0875000002275597,0.0131336031481624,0.234572261571884,0.106595985591412
0,1.0513889189259,-0.187500003092477,-0.0875000002275597,0.00824668072164059,0.176845490932465,-0.0045814891345799
0,0.959722249126559,-0.233333350148112,-0.00555555575692586,-0.112093769013882,-0.307265222072601,-0.0687223374843597
0,0.983333411141879,-0.193055558469529,-0.027777779924251,-0.175318330526352,-0.356745302677154,-0.0140499006956816
0,0.983333411141879,-0.193055558469529,-0.027777779924251,-0.0665843114256859,-0.191506251692772,0.0271835029125214
0,1.08472222687628,-0.193055558469529,-0.0777777813567098,-0.0714712366461754,0.00397062394768,0.132557764649391
0,1.02500007039179,-0.194444450352783,-0.0916666697993398,-0.128892570734024,0.188757359981537,0.0439822971820831
0,1.02500007039179,-0.194444450352783,-0.0916666697993398,-0.25411993265152,0.0397062413394451,0.000610865245107561
0,0.991666665193688,-0.177777784221628,-0.0611111152255539,-0.172569438815117,-0.087659165263176,0.0244346093386412
0,0.990277773310434,-0.200000005729836,-0.0250000007162294,-0.105374254286289,-0.252592772245407,0.0207694191485643
0,0.990277773310434,-0.200000005729836,-0.0250000007162294,0.100792765617371,-0.234877690672875,0.078801617026329
0,1.00000001649321,-0.216666671860991,-0.00972222266958873,0.110261179506779,-0.192422553896904,0.0800233483314514
0,1.0361111082101,-0.243055569018962,-0.0402777795226179,0.161573857069016,0.00397062394768,0.0571159012615681
0,1.0361111082101,-0.243055569018962,-0.0402777795226179,0.293826192617416,0.0387899428606033,-0.0543670058250427
0,1.02361117850853,-0.250000004123303,-0.027777779924251,0.154243469238281,-0.0601702257990837,-0.0329867228865623
0,0.96666670854283,-0.248611112240049,-0.0486111125881959,0.00244346098043024,-0.329256355762482,-0.11117747426033
0,0.947222222177272,-0.220833347510754,-0.0458333348996699,-0.0210748501121998,-0.376293003559113,-0.122783914208412
0,1.02777785415829,-0.236111109602691,-0.0222222230277034,0.271224170923233,-0.0662788823246956,-0.124921940267086
0,1.12083341584089,-0.206944452990142,-0.0666666706026059,0.483194410800934,0.569020986557007,-0.0714712366461754
0,1.03194452980806,-0.224999998848587,-0.0375000018340919,0.359188765287399,0.264504641294479,0.0329867228865623
0,0.955555573476797,-0.213888888094483,-0.026388891079988,0.0690277740359306,-0.27000242471695,-0.0397062413394451
0,0.92083337364316,-0.168055565350778,-0.0416666683668809,-0.124921940267086,-0.448680520057678,-0.0531452745199203
0,0.991666665193688,-0.154166670830166,0.00138888893923146,-0.0561996027827263,-0.34941491484642,-0.0390953756868839
0,1.04861113515939,-0.156944454596674,-0.0486111125881959,-0.0613919571042061,-0.152716308832169,-0.00733038317412138
0,1.05416670269241,-0.156944454596674,-0.0833333367337618,-0.204028993844986,0.146607652306557,0.0247400421649218
0,1.02500007039179,-0.161111118090472,-0.055555559848502,-0.22174409031868,0.0919352173805237,0.0442877300083637
0,0.991666665193688,-0.180555567988136,-0.03194444645704,-0.212581098079681,-0.0745255574584007,0.064446285367012
0,0.987499989543926,-0.215277779977737,-0.0361111129898289,-0.17989981174469,-0.194560587406159,0.0531452745199203
0,0.98888888142718,-0.236111109602691,-0.0722222259796579,-0.114537231624126,-0.0934623852372169,0.0033597587607801
0,1.05277781080915,-0.216666671860991,-0.0930555616825939,-0.0620028227567673,-0.194255143404007,0.0339030213654041
0,1.10555560512509,-0.159722226207217,-0.134722233088466,0.105374254286289,-0.27458393573761,0.0656680166721344
0,0.994444448960196,-0.168055565350778,-0.25555557165632,0.0577267669141293,0.17470745742321,-0.00549778714776039
0,1.00833336779274,-0.258333331110899,-0.151388899219622,-0.0329867228865623,0.113620936870575,0.125227376818657
0,1.01805561097552,-0.277777793164528,-0.0847222225390337,0.0937678143382072,0.156076073646545,0.00305432616733015
0,0.965277816659576,-0.269444466176932,-0.00416666691266287,0.222660377621651,0.0250454749912024,-0.100792765617371
0,0.95000000594378,-0.259722222994153,-0.00972222266958873,0.258090555667877,-0.366519153118133,-0.0824668109416962
0,0.986111194908388,-0.229166674498349,-0.0458333348996699,0.408057987689972,-0.478002041578293,0.00641408516094089
0,1.06388894587519,-0.216666671860991,-0.168055565350778,0.427300244569778,-0.280998021364212,0.0742201283574104
0,1.07500008094122,-0.181944447715425,-0.184722231481934,0.230907067656517,0.165849909186363,0.0284052342176437
0,1.04722224327614,-0.18333333959868,-0.14583334384257,0.13744467496872,0.289244681596756,-0.03176499158144
0,0.993055557076942,-0.197222234119292,-0.0513888902767219,0.16920967400074,0.0436768643558025,-0.0180205255746841
0,0.972222276075846,-0.193055558469529,-0.030555557612777,0.154854342341423,-0.260228604078293,0.0201585534960032
0,0.994444448960196,-0.186111123365188,-0.0652777787193518,0.10567969083786,-0.247094988822937,0.0354301854968071
0,1.01944450285877,-0.186111123365188,-0.0986111170596459,0.0675006061792374,-0.0998764708638191,0.0311541277915239
0,1.03194452980806,-0.197222234119292,-0.0958333393711199,0.0397062413394451,0.00855211354792118,0.0280998013913631
0,1.01805561097552,-0.20972223675665,-0.0819444448505077,0.0134390350431204,0.0140499006956816,0.0253509078174829
0,1.00000001649321,-0.206944452990142,-0.0819444448505077,0.0204639863222837,-0.0525344125926495,0.0311541277915239
0,0.998611124609959,-0.200000005729836,-0.0791666671619817,0.02382374368608,-0.135612085461616,0.0222965814173222
0,1.01527782720901,-0.20138889761309,-0.102777780553444,-0.0167987942695618,-0.15332718193531,0.0146607663482428
0,1.01527782720901,-0.20138889761309,-0.102777780553444,-0.0681114718317986,-0.0626136884093285,-0.00885754637420177
0,1.04861113515939,-0.211111128639904,-0.0902777839940679,-0.0867428630590439,0.231517925858498,-0.0106901414692402
0,0.983333411141879,-0.170833336961321,-0.125000002061652,0.0235183127224445,-0.109955742955208,-0.0265726372599602
0,0.983333411141879,-0.170833336961321,-0.125000002061652,-0.26419922709465,0.0140499006956816,-0.021685715764761
0,1.0125000434425,-0.198611113846581,-0.115277783190802,0.0113010071218014,0.0678060427308083,0.017409659922123
0,1.0361111082101,-0.197222234119292,-0.12777778582816,-0.147829383611679,0.170125976204872,-0.0180205255746841
0,0.981944519258625,-0.238888893369199,-0.163888889701015,-0.362853944301605,-0.0332921557128429,-0.0971275717020035
0,0.986111194908388,-0.236111109602691,-0.0875000002275597,-0.0470366254448891,-0.0803287774324417,0.0201585534960032
0,1.04444445950963,-0.148611115453114,-0.0916666697993398,-0.189062789082527,0.264504641294479,0.00244346098043024
0,1.07777786470773,-0.151388899219622,-0.151388899219622,-0.305432617664337,0.0381790772080422,-0.0219911485910416
0,1.00000001649321,-0.188888894975731,-0.0416666683668809,-0.0250454749912024,-0.182037845253944,0.0662788823246956
0,1.04861113515939,-0.197222234119292,-0.108333335930496,-0.106290549039841,0.178067222237587,0.0723875313997269
0,1.0305556379248,-0.258333331110899,-0.16527778158427,-0.260534018278122,0.244651526212692,-0.017409659922123
0,0.993055557076942,-0.205555561106887,-0.0777777813567098,-0.0458148941397667,0.00946841109544039,-0.0445931628346443
0,0.990277773310434,-0.168055565350778,-0.0361111129898289,-0.0507018156349659,-0.198225766420364,0.0302378293126821
0,0.983333411141879,-0.200000005729836,-0.130555557438704,-0.230907067656517,-0.193644285202026,0.0284052342176437
0,1.04166667574312,-0.226388890731841,-0.138888896582264,-0.185703039169311,-0.0152716310694814,-0.0027488935738802
0,1.05972227022542,-0.233333350148112,-0.140277788465518,-0.257479697465897,-0.00641408516094089,-0.0897971913218498
0,0.990277773310434,-0.215277779977737,-0.13750000469901,-0.399200439453125,-0.44409903883934,-0.104763388633728
0,0.972222276075846,-0.204166669223633,-0.111111119697004,-0.29657506942749,-0.649655163288116,-0.103847093880177
0,0.99583334084345,-0.202777789496344,-0.122222230451108,-0.265420943498612,-0.713490605354309,-0.0867428630590439
0,0.993055557076942,-0.188888894975731,-0.13750000469901,-0.0626136884093285,-0.488386750221252,0.0421497002243996
0,1.00277780025972,-0.197222234119292,-0.125000002061652,-0.124616511166096,-0.610254406929016,0.00916297826915979
0,1.02916674604155,-0.226388890731841,-0.181944447715425,-0.164933621883392,-0.679282128810883,-0.0253509078174829
0,1.05277781080915,-0.223611131277262,-0.224999998848587,-0.164933621883392,-0.105374254286289,-0.0959058403968811
0,1.02083339474202,-0.223611131277262,-0.17361112072783,0.0433714315295219,-0.246484130620956,-0.00763581553474069
0,1.02916674604155,-0.176388892338373,-0.206944452990142,0.115453533828259,-0.167377084493637,0.01588249579072
0,1.02916674604155,-0.176388892338373,-0.206944452990142,-0.0372627787292004,-0.0574213340878487,-0.0326812900602817
0,0.972222276075846,-0.212499996211229,-0.14722222356986,0.011606439948082,-0.34330627322197,-0.129503428936005
0,0.979166735492117,-0.2194444556275,-0.144444451959316,0.223882108926773,-0.586125195026398,-0.136833816766739
0,1.00277780025972,-0.162500009973726,-0.223611131277262,0.440128415822983,-0.526260435581207,0.0027488935738802
0,0.983333411141879,-0.12777778582816,-0.250000004123303,0.234877690672875,-0.201890960335732,0.145691365003586
0,0.961111141009813,-0.177777784221628,-0.180555567988136,0.186008468270302,-0.320704251527786,0.0522289797663689
0,1.01527782720901,-0.236111109602691,-0.247222220356795,0.211053937673569,-0.153021737933159,-0.0653625801205635
0,1.04027778385987,-0.20972223675665,-0.243055569018962,0.274889349937439,-0.201890960335732,-0.0372627787292004
0,1.04027778385987,-0.20972223675665,-0.243055569018962,0.257479697465897,-0.0620028227567673,0.127670839428902
0,0.976388951725609,-0.12916666555545,-0.279166685047782,0.0198531206697226,0.365908294916153,0.179288953542709
0,0.98888888142718,-0.197222234119292,-0.20972223675665,-0.202196389436722,0.289244681596756,0.0381790772080422
0,0.977777843608863,-0.234722242031366,-0.156944454596674,-0.0488692186772823,0.00671951752156019,0.0479529201984406
0,0.987499989543926,-0.212499996211229,-0.198611113846581,0.0763581544160843,-0.138055548071861,0.0543670058250427
0,1.00972225967599,-0.190277786858986,-0.241666677135707,0.0681114718317986,-0.0497855171561241,0.00122173049021512
0,1.0333333244436,-0.200000005729836,-0.2194444556275,0.157603234052658,0.0723875313997269,-0.029626963660121
0,1.0125000434425,-0.195833342236038,-0.193055558469529,0.210748508572578,0.0574213340878487,-0.0726929605007172
0,0.96666670854283,-0.181944447715425,-0.18333333959868,0.273667633533478,-0.10048733651638,0.0207694191485643
0,0.963888924776322,-0.156944454596674,-0.202777789496344,0.149661988019943,-0.207999616861343,0.0601702257990837
0,0.993055557076942,-0.17361112072783,-0.237500001485945,0.0815505087375641,-0.153021737933159,0.0800233483314514
0,1.01944450285877,-0.218055563744246,-0.252777787889811,0.102014496922493,-0.0839939713478088,0.0409279726445675
0,1.00972225967599,-0.248611112240049,-0.226388890731841,0.16371189057827,0.114537231624126,0.00366519158706069
0,0.977777843608863,-0.227777782615095,-0.220833347510754,0.0531452745199203,0.218384325504303,0.0149661982432008
0,0.976388951725609,-0.205555561106887,-0.213888888094483,-0.0653625801205635,0.166766211390495,-0.00824668072164059
0,0.973611167959101,-0.197222234119292,-0.208333344873396,-0.0983493030071259,0.151800006628036,-0.0671951770782471
0,1.00277780025972,-0.20972223675665,-0.25555557165632,0.0659734457731247,0.350942075252533,0.00427605677396059
0,1.05416670269241,-0.222222239394008,-0.220833347510754,0.0745255574584007,0.945924818515778,-0.0696386396884918
0,1.0361111082101,-0.215277779977737,-0.143055560076062,0.0348193198442459,0.959058463573456,-0.151800006628036
0,1.0361111082101,-0.215277779977737,-0.143055560076062,0.0201585534960032,0.784045517444611,-0.121867619454861
0,0.976388951725609,-0.197222234119292,-0.108333335930496,-0.0262672062963247,0.464868456125259,-0.0513126812875271
0,0.947222222177272,-0.179166676104882,-0.0944444474878658,-0.112399205565453,0.0357356183230877,0.0320704244077206
0,0.947222222177272,-0.166666673467524,-0.130555557438704,-0.125532805919647,-0.0742201283574104,0.00977384392172098
0,1.06111116210868,-0.186111123365188,-0.16527778158427,-0.0232128798961639,0.199752941727638,-0.000610865245107561
5,1.09444447005906,-0.200000005729836,-0.206944452990142,-0.0204639863222837,0.41813725233078,-0.0140499006956816
5,1.01527782720901,-0.200000005729836,-0.150000007336368,-0.00916297826915979,0.229379892349243,0.0103847095742822
5,0.961111141009813,-0.187500003092477,-0.118055554801345,-0.0201585534960032,0.00916297826915979,0.0641408488154411
5,0.926388941176177,-0.200000005729836,-0.0986111170596459,0.0455094613134861,-0.350636661052704,0.159741267561913
5,1.02222228662528,-0.188888894975731,-0.0833333367337618,0.0427605658769607,-0.0946841165423393,0.0332921557128429
5,1.00972225967599,-0.206944452990142,-0.166666673467524,-0.0204639863222837,0.0888808965682983,0.0513126812875271
5,1.07222229717471,-0.231944458264858,-0.206944452990142,-0.0482583530247212,0.586430609226227,-0.0363464802503586
5,1.01388893532575,-0.202777789496344,-0.130555557438704,0.0629191175103188,0.417220950126648,0.0180205255746841
5,0.956944465360051,-0.184722231481934,-0.0777777813567098,0.0366519130766392,0.0613919571042061,0.0513126812875271
5,0.959722249126559,-0.194444450352783,-0.0625000010308258,0.0226020142436027,-0.259312301874161,0.0277943685650826
5,0.998611124609959,-0.202777789496344,-0.108333335930496,0.0198531206697226,-0.211664810776711,0.0210748501121998
5,1.03194452980806,-0.206944452990142,-0.130555557438704,0.017409659922123,0.0571159012615681,0.0100792767480016
5,1.0333333244436,-0.200000005729836,-0.14722222356986,-0.00427605677396059,0.156992360949516,0.0167987942695618
5,1.02083339474202,-0.200000005729836,-0.12777778582816,0.000610865245107561,0.0830776765942574,0.013744467869401
5,0.997222232726705,-0.202777789496344,-0.10972222781375,0.0180205255746841,-0.0100792767480016,0.0229074470698834
5,1.00277780025972,-0.212499996211229,-0.105555564319952,0.0149661982432008,-0.0226020142436027,0.0302378293126821
5,1.01111115155925,-0.211111128639904,-0.105555564319952,-0.00397062394768,-0.013744467869401,0.0332921557128429
5,1.01388893532575,-0.202777789496344,-0.120833338567854,-0.00305432616733015,0.00519235478714108,0.0335975885391235
5,1.00972225967599,-0.206944452990142,-0.118055554801345,0.0033597587607801,0.0134390350431204,0.0302378293126821
5,1.00972225967599,-0.213888888094483,-0.123611110178398,0.015577063895762,-0.00183259579353034,0.0280998013913631
5,1.00833336779274,-0.213888888094483,-0.126388893944906,0.0256563406437635,-0.013744467869401,0.0284052342176437
5,1.00972225967599,-0.213888888094483,-0.12916666555545,0.0308486949652433,-0.000305432622553781,0.0232128798961639
5,1.01805561097552,-0.208333344873396,-0.154166670830166,0.0122173046693206,0.00244346098043024,0.01588249579072
5,1.02083339474202,-0.212499996211229,-0.13750000469901,0.0164933614432812,0.027488935738802,0.00763581553474069
5,1.02500007039179,-0.212499996211229,-0.122222230451108,0.0503963828086853,0.0885754600167274,-0.00580321997404099
5,1.00972225967599,-0.215277779977737,-0.106944444047242,0.0665843114256859,0.101098194718361,-0.00763581553474069
5,0.993055557076942,-0.197222234119292,-0.0972222251763917,0.0488692186772823,0.0561996027827263,0.0106901414692402
5,0.991666665193688,-0.176388892338373,-0.0944444474878658,0.0323758572340012,-0.0387899428606033,0.0241291765123606
5,1.00277780025972,-0.184722231481934,-0.108333335930496,0.00946841109544039,-0.105374254286289,0.0280998013913631
5,1.01388893532575,-0.208333344873396,-0.125000002061652,0.0250454749912024,-0.078801617026329,0.0302378293126821
5,1.01944450285877,-0.223611131277262,-0.123611110178398,0.0366519130766392,-0.0247400421649218,0.0250454749912024
5,1.0125000434425,-0.230555566381603,-0.131944449321958,0.0409279726445675,0.00152716308366507,0.0219911485910416
5,1.0125000434425,-0.226388890731841,-0.125000002061652,0.0244346093386412,-0.00397062394768,0.00427605677396059
5,1.0125000434425,-0.223611131277262,-0.118055554801345,0.0106901414692402,-0.0143553335219622,0.0033597587607801
5,1.01527782720901,-0.213888888094483,-0.125000002061652,-0.00855211354792118,-0.00885754637420177,0.0103847095742822
5,1.01388893532575,-0.216666671860991,-0.120833338567854,-0.0152716310694814,0.02382374368608,0.000916297896765172
5,1.00972225967599,-0.211111128639904,-0.113888891307548,-0.0299323964864016,0.0452040284872055,0.00794124789535999
5,1.00972225967599,-0.211111128639904,-0.113888891307548,-0.0448985956609249,0.00824668072164059,0.029626963660121
5,1.00277780025972,-0.206944452990142,-0.10972222781375,-0.0742201283574104,-0.0589484944939613,0.0351247526705265
5,1.0125000434425,-0.208333344873396,-0.120833338567854,-0.0858265683054924,-0.0503963828086853,0.0320704244077206
5,1.0125000434425,-0.208333344873396,-0.120833338567854,-0.0986547395586967,-0.0339030213654041,0.0354301854968071
5,1.00555558402623,-0.211111128639904,-0.120833338567854,-0.110261179506779,-0.0442877300083637,0.0445931628346443
5,1.01388893532575,-0.212499996211229,-0.130555557438704,-0.112093769013882,-0.0436768643558025,0.0461203269660473
5,1.01111115155925,-0.220833347510754,-0.134722233088466,-0.111788339912891,-0.0226020142436027,0.0555887371301651
5,1.00972225967599,-0.215277779977737,-0.12777778582816,-0.10598511993885,-0.00183259579353034,0.0623082555830479
5,1.00972225967599,-0.213888888094483,-0.130555557438704,-0.114231802523136,-0.00610865233466029,0.0635299831628799
5,1.00972225967599,-0.213888888094483,-0.130555557438704,-0.106290549039841,-0.0198531206697226,0.0531452745199203
5,1.00833336779274,-0.220833347510754,-0.131944449321958,-0.113010071218014,-0.0357356183230877,0.0485637858510017
5,1.00277780025972,-0.226388890731841,-0.133333341205212,-0.101709060370922,-0.02382374368608,0.0439822971820831
5,1.00555558402623,-0.231944458264858,-0.136111112815755,-0.0894917547702789,0.0134390350431204,0.0335975885391235
5,1.0125000434425,-0.229166674498349,-0.13750000469901,-0.0882700309157372,0.0284052342176437,0.0277943685650826
5,1.00694447590948,-0.2194444556275,-0.125000002061652,-0.0959058403968811,0.0207694191485643,0.0302378293126821
5,1.00277780025972,-0.216666671860991,-0.122222230451108,-0.101403631269932,0.0128281703218818,0.0339030213654041
5,1.00277780025972,-0.204166669223633,-0.125000002061652,-0.120645888149738,0.0143553335219622,0.037568211555481
5,1.00555558402623,-0.206944452990142,-0.120833338567854,-0.138360977172852,-0.0140499006956816,0.0320704244077206
5,1.00277780025972,-0.208333344873396,-0.120833338567854,-0.148134827613831,-0.0351247526705265,0.0323758572340012
5,1.00277780025972,-0.206944452990142,-0.125000002061652,-0.154243469238281,-0.0458148941397667,0.0500909499824047
5,1.01111115155925,-0.20972223675665,-0.125000002061652,-0.150578290224075,-0.0354301854968071,0.0534507073462009
5,1.0125000434425,-0.218055563744246,-0.134722233088466,-0.171347707509995,-0.00824668072164059,0.0522289797663689
5,1.00972225967599,-0.218055563744246,-0.13750000469901,-0.183259576559067,-0.00152716308366507,0.0525344125926495
5,1.00972225967599,-0.2194444556275,-0.140277788465518,-0.195476874709129,-0.015577063895762,0.0500909499824047
5,1.00555558402623,-0.2194444556275,-0.134722233088466,-0.220827788114548,-0.0109955742955208,0.0421497002243996
5,1.01111115155925,-0.2194444556275,-0.13750000469901,-0.217468023300171,0.0128281703218818,0.0360410511493683
5,1.01388893532575,-0.216666671860991,-0.140277788465518,-0.226631000638008,0.0534507073462009,0.0372627787292004
5,1.00555558402623,-0.215277779977737,-0.12916666555545,-0.22724187374115,0.0351247526705265,0.0473420582711697
5,1.00277780025972,-0.2194444556275,-0.125000002061652,-0.229379892349243,-0.0189368221908808,0.0360410511493683
5,1.00833336779274,-0.223611131277262,-0.131944449321958,-0.246484130620956,-0.0235183127224445,0.0271835029125214
5,1.0125000434425,-0.218055563744246,-0.141666668192807,-0.23243422806263,0.0122173046693206,0.019547687843442
5,1.0125000434425,-0.2194444556275,-0.14583334384257,-0.235183119773865,0.0479529201984406,0.0271835029125214
5,1.00694447590948,-0.222222239394008,-0.141666668192807,-0.244651526212692,0.0329867228865623,0.0222965814173222
5,1.00416669214298,-0.223611131277262,-0.140277788465518,-0.255036234855652,0.0241291765123606,0.0149661982432008
5,1.00416669214298,-0.227777782615095,-0.136111112815755,-0.229074463248253,0.0131336031481624,0.0125227374956012
5,1.00555558402623,-0.230555566381603,-0.14722222356986,-0.215330004692078,0.0140499006956816,0.0259617734700441
5,1.00694447590948,-0.236111109602691,-0.13750000469901,-0.205861583352089,0.0421497002243996,0.0293215326964855
5,1.00138890837647,-0.236111109602691,-0.140277788465518,-0.204639852046967,0.0250454749912024,0.0250454749912024
5,0.993055557076942,-0.234722242031366,-0.13750000469901,-0.199142068624496,-0.0192422550171614,0.0268780700862408
5,0.993055557076942,-0.233333350148112,-0.144444451959316,-0.165239050984383,-0.0543670058250427,0.0314595587551594
5,1.00000001649321,-0.238888893369199,-0.156944454596674,-0.120951317250729,-0.0360410511493683,0.0308486949652433
5,1.00000001649321,-0.238888893369199,-0.154166670830166,-0.0992656052112579,-0.0164933614432812,0.0320704244077206
5,1.00138890837647,-0.24583335278547,-0.156944454596674,-0.0891863256692886,-0.0167987942695618,0.0226020142436027
5,1.00277780025972,-0.24583335278547,-0.163888889701015,-0.0607810914516449,-0.0247400421649218,0.0250454749912024
5,1.00000001649321,-0.238888893369199,-0.15555556271342,-0.0222965814173222,-0.0262672062963247,0.0164933614432812
5,1.00277780025972,-0.243055569018962,-0.156944454596674,-0.00122173049021512,-0.0320704244077206,0.0207694191485643
5,1.00555558402623,-0.236111109602691,-0.15555556271342,0.00916297826915979,-0.0213802829384804,0.0186313893646002
5,1.00555558402623,-0.236111109602691,-0.15555556271342,0.0277943685650826,-0.0131336031481624,0.0204639863222837
5,1.00416669214298,-0.227777782615095,-0.158333334323963,0.0308486949652433,0.00427605677396059,0.0268780700862408
5,1.00277780025972,-0.229166674498349,-0.162500009973726,0.0268780700862408,-0.0189368221908808,0.0268780700862408
5,1.00277780025972,-0.229166674498349,-0.162500009973726,0.0421497002243996,-0.0146607663482428,0.0198531206697226
5,1.00138890837647,-0.227777782615095,-0.172222228844576,0.0424551330506802,-0.0183259565383196,0.0213802829384804
5,1.00000001649321,-0.226388890731841,-0.161111118090472,0.0412334054708481,-0.027488935738802,0.0250454749912024
5,1.00972225967599,-0.226388890731841,-0.154166670830166,0.0387899428606033,-0.0207694191485643,0.0235183127224445
5,1.00972225967599,-0.229166674498349,-0.16527778158427,0.0470366254448891,0.0189368221908808,0.0045814891345799
5,1.00416669214298,-0.231944458264858,-0.154166670830166,0.0540615729987621,0.0140499006956816,0.0250454749912024
5,1.00138890837647,-0.236111109602691,-0.144444451959316,0.0626136884093285,-0.0189368221908808,0.0189368221908808
5,1.00000001649321,-0.231944458264858,-0.162500009973726,0.0458148941397667,-0.0369573459029198,0.00946841109544039
5,0.998611124609959,-0.233333350148112,-0.161111118090472,0.0369573459029198,-0.0171042270958424,0.00305432616733015
5,1.00138890837647,-0.237500001485945,-0.166666673467524,0.0329867228865623,-0.0219911485910416,0.0100792767480016
5,1.00277780025972,-0.234722242031366,-0.156944454596674,0.0430659987032413,-0.00794124789535999,0.00366519158706069
5,1.00000001649321,-0.230555566381603,-0.169444445078067,0.04764748737216,0.000305432622553781,-0.0033597587607801
5,1.00000001649321,-0.231944458264858,-0.163888889701015,0.0253509078174829,-0.0140499006956816,0.00152716308366507
5,1.00277780025972,-0.229166674498349,-0.159722226207217,0.0171042270958424,-0.029626963660121,0.0033597587607801
5,1.00277780025972,-0.233333350148112,-0.159722226207217,0.0189368221908808,-0.00549778714776039,-0.00519235478714108
5,1.00694447590948,-0.233333350148112,-0.154166670830166,0.01588249579072,0.0192422550171614,-0.00702495034784079
5,1.00277780025972,-0.230555566381603,-0.163888889701015,0.00916297826915979,0.0161879286170006,-0.00733038317412138
5,0.998611124609959,-0.229166674498349,-0.158333334323963,0.00305432616733015,-0.0109955742955208,-0.0045814891345799
5,0.994444448960196,-0.229166674498349,-0.154166670830166,-0.00488692196086049,-0.0394008085131645,0.00152716308366507
5,0.997222232726705,-0.230555566381603,-0.17361112072783,0.00519235478714108,-0.0348193198442459,-0.0021380283869803
5,1.00277780025972,-0.229166674498349,-0.170833336961321,-0.0033597587607801,-0.0128281703218818,0.00244346098043024
5,1.00555558402623,-0.237500001485945,-0.163888889701015,-0.000916297896765172,-0.00610865233466029,0.0033597587607801
5,0.997222232726705,-0.233333350148112,-0.170833336961321,0.0045814891345799,-0.00641408516094089,0.000916297896765172
5,0.99583334084345,-0.234722242031366,-0.166666673467524,0.0125227374956012,-0.0113010071218014,-0.0021380283869803
5,1.00000001649321,-0.236111109602691,-0.16527778158427,0.011606439948082,-0.0192422550171614,-0.00488692196086049
5,1.00000001649321,-0.236111109602691,-0.163888889701015,0.021685715764761,-0.0164933614432812,-0.00610865233466029
5,1.00000001649321,-0.229166674498349,-0.159722226207217,0.011606439948082,-0.00855211354792118,-0.00794124789535999
5,1.00000001649321,-0.229166674498349,-0.158333334323963,0.00977384392172098,0.00519235478714108,-0.00641408516094089
5,1.00277780025972,-0.229166674498349,-0.154166670830166,0.000916297896765172,-0.0027488935738802,0.000610865245107561
5,0.997222232726705,-0.226388890731841,-0.140277788465518,-0.0045814891345799,0.0033597587607801,-0.00519235478714108
5,0.99583334084345,-0.227777782615095,-0.154166670830166,0.00488692196086049,-0.01191187184304,-0.0045814891345799
5,0.997222232726705,-0.229166674498349,-0.150000007336368,0.00641408516094089,-0.000916297896765172,-0.00183259579353034
5,1.00416669214298,-0.229166674498349,-0.154166670830166,-0.00122173049021512,0.0232128798961639,-0.0106901414692402
5,1.00000001649321,-0.223611131277262,-0.154166670830166,-0.00183259579353034,0.015577063895762,-0.00488692196086049
5,1.00277780025972,-0.226388890731841,-0.150000007336368,0.00427605677396059,-0.000610865245107561,0.00397062394768
5,1.00138890837647,-0.233333350148112,-0.154166670830166,0.0143553335219622,-0.01191187184304,-0.000305432622553781
5,1.00000001649321,-0.233333350148112,-0.159722226207217,-0.0033597587607801,-0.00549778714776039,-0.000916297896765172
5,1.00000001649321,-0.227777782615095,-0.163888889701015,-0.000916297896765172,-0.0033597587607801,-0.0177150927484035
5,1.00277780025972,-0.233333350148112,-0.156944454596674,0.0100792767480016,0.00885754637420177,-0.0134390350431204
5,1.00555558402623,-0.226388890731841,-0.158333334323963,0.0271835029125214,0.0180205255746841,-0.00763581553474069
5,1.00000001649321,-0.226388890731841,-0.161111118090472,0.0177150927484035,0.00977384392172098,-0.00824668072164059
5,1.00000001649321,-0.226388890731841,-0.16527778158427,0.0186313893646002,-0.000916297896765172,-0.0109955742955208
5,1.00277780025972,-0.229166674498349,-0.162500009973726,0.0290160998702049,0.00794124789535999,-0.0149661982432008
5,1.00277780025972,-0.233333350148112,-0.166666673467524,0.0329867228865623,0.0183259565383196,-0.0229074470698834
5,1.00277780025972,-0.226388890731841,-0.159722226207217,0.0369573459029198,0.00977384392172098,-0.0213802829384804
5,1.00000001649321,-0.226388890731841,-0.158333334323963,0.0485637858510017,-0.00244346098043024,-0.019547687843442
5,0.998611124609959,-0.226388890731841,-0.154166670830166,0.0626136884093285,0.00671951752156019,-0.0171042270958424
5,1.00277780025972,-0.226388890731841,-0.154166670830166,0.0574213340878487,0.0021380283869803,-0.0244346093386412
5,1.00277780025972,-0.229166674498349,-0.154166670830166,0.0452040284872055,0.00916297826915979,-0.0198531206697226
5,1.00416669214298,-0.226388890731841,-0.163888889701015,0.0439822971820831,0.000610865245107561,-0.0183259565383196
5,1.00000001649321,-0.223611131277262,-0.150000007336368,0.0595593601465225,-0.00610865233466029,-0.0180205255746841
5,1.00000001649321,-0.223611131277262,-0.150000007336368,0.0503963828086853,-0.0277943685650826,-0.0109955742955208
5,1.00277780025972,-0.223611131277262,-0.163888889701015,0.0580321997404099,-0.0268780700862408,-0.0122173046693206
5,1.00277780025972,-0.223611131277262,-0.163888889701015,0.0653625801205635,-0.0027488935738802,-0.0207694191485643
5,1.00277780025972,-0.226388890731841,-0.162500009973726,0.0623082555830479,0.0235183127224445,-0.0198531206697226
5,1.00416669214298,-0.226388890731841,-0.163888889701015,0.0699440687894821,0.0171042270958424,-0.0183259565383196
5,0.998611124609959,-0.224999998848587,-0.154166670830166,0.0620028227567673,0.0021380283869803,-0.0262672062963247
5,0.998611124609959,-0.224999998848587,-0.151388899219622,0.0598647929728031,-0.00824668072164059,-0.0210748501121998
5,1.00277780025972,-0.220833347510754,-0.156944454596674,0.0500909499824047,-0.00305432616733015,-0.0207694191485643
5,1.00416669214298,-0.222222239394008,-0.162500009973726,0.0629191175103188,0.0229074470698834,-0.0256563406437635
5,1.00277780025972,-0.227777782615095,-0.152777778946911,0.0803287774324417,0.0342084541916847,-0.02382374368608
5,1.00277780025972,-0.224999998848587,-0.152777778946911,0.0766635909676552,0.0320704244077206,-0.0302378293126821
5,1.00138890837647,-0.216666671860991,-0.14722222356986,0.0635299831628799,-0.0045814891345799,-0.01588249579072
5,1.00277780025972,-0.216666671860991,-0.154166670830166,0.0711658000946045,-0.01588249579072,-0.0290160998702049
5,1.0125000434425,-0.222222239394008,-0.166666673467524,0.0733038261532784,0.0180205255746841,-0.0348193198442459
5,1.00555558402623,-0.223611131277262,-0.161111118090472,0.0580321997404099,0.0381790772080422,-0.0342084541916847
5,1.00555558402623,-0.216666671860991,-0.15555556271342,0.0494800843298435,0.0192422550171614,-0.0363464802503586
5,1.00138890837647,-0.216666671860991,-0.13750000469901,0.0568104684352875,0.0100792767480016,-0.0308486949652433
5,1.00277780025972,-0.212499996211229,-0.141666668192807,0.0653625801205635,0.0143553335219622,-0.0256563406437635
5,1.00277780025972,-0.212499996211229,-0.150000007336368,0.05283984541893,0.0146607663482428,-0.02382374368608
5,1.00555558402623,-0.213888888094483,-0.152777778946911,0.0442877300083637,0.0134390350431204,-0.0253509078174829
5,1.00972225967599,-0.216666671860991,-0.148611115453114,0.0455094613134861,0.0235183127224445,-0.0277943685650826
5,1.00833336779274,-0.2194444556275,-0.14583334384257,0.0488692186772823,0.0186313893646002,-0.0345138870179653
5,1.00555558402623,-0.216666671860991,-0.144444451959316,0.0534507073462009,0.0308486949652433,-0.0253509078174829
5,1.00416669214298,-0.215277779977737,-0.140277788465518,0.0632245540618896,0.0381790772080422,-0.0256563406437635
5,1.00833336779274,-0.211111128639904,-0.14722222356986,0.0668897479772568,0.021685715764761,-0.0247400421649218
5,1.00555558402623,-0.215277779977737,-0.144444451959316,0.0580321997404099,0.000305432622553781,-0.0262672062963247
5,1.00972225967599,-0.213888888094483,-0.14722222356986,0.0580321997404099,0.0204639863222837,-0.0308486949652433
5,1.00833336779274,-0.216666671860991,-0.161111118090472,0.0675006061792374,0.027488935738802,-0.0222965814173222
5,0.998611124609959,-0.216666671860991,-0.144444451959316,0.0690277740359306,0.0143553335219622,-0.0342084541916847
5,1.00000001649321,-0.212499996211229,-0.13750000469901,0.0852157026529312,-0.0161879286170006,-0.015577063895762
5,1.00416669214298,-0.20972223675665,-0.14722222356986,0.0772744566202164,-0.0241291765123606,-0.00946841109544039
5,1.01111115155925,-0.206944452990142,-0.14583334384257,0.0803287774324417,-0.00488692196086049,-0.021685715764761
5,1.01111115155925,-0.206944452990142,-0.14583334384257,0.0671951770782471,0.0284052342176437,-0.0262672062963247
5,1.01527782720901,-0.208333344873396,-0.156944454596674,0.0531452745199203,0.0516181141138077,-0.0256563406437635
5,1.0125000434425,-0.206944452990142,-0.151388899219622,0.0372627787292004,0.0421497002243996,-0.0320704244077206
5,1.00416669214298,-0.205555561106887,-0.140277788465518,0.04764748737216,0.0284052342176437,-0.0232128798961639
5,1.00277780025972,-0.200000005729836,-0.12777778582816,0.0442877300083637,-0.00122173049021512,-0.0280998013913631
5,1.00277780025972,-0.20138889761309,-0.134722233088466,0.0421497002243996,-0.00397062394768,-0.0241291765123606
5,1.00972225967599,-0.202777789496344,-0.143055560076062,0.0369573459029198,0.0161879286170006,-0.01588249579072
5,1.00972225967599,-0.204166669223633,-0.13750000469901,0.0366519130766392,0.029626963660121,-0.0167987942695618
5,1.01111115155925,-0.20138889761309,-0.144444451959316,0.0308486949652433,0.0384845100343227,-0.0146607663482428
5,1.00833336779274,-0.200000005729836,-0.130555557438704,0.0308486949652433,-0.0183259565383196,-0.0109955742955208
5,1.00833336779274,-0.206944452990142,-0.144444451959316,0.0284052342176437,-0.0103847095742822,-0.013744467869401
5,1.00972225967599,-0.208333344873396,-0.144444451959316,0.0189368221908808,0.03176499158144,-0.0268780700862408
5,1.0125000434425,-0.208333344873396,-0.14583334384257,0.000916297896765172,0.0403171069920063,-0.0250454749912024
5,1.00972225967599,-0.200000005729836,-0.140277788465518,-0.000305432622553781,0.0171042270958424,-0.0226020142436027
5,1.00833336779274,-0.202777789496344,-0.134722233088466,-0.000610865245107561,0.00610865233466029,-0.0232128798961639
5,1.00972225967599,-0.198611113846581,-0.141666668192807,-0.0103847095742822,0.0021380283869803,-0.00397062394768
5,1.00833336779274,-0.200000005729836,-0.144444451959316,-0.0131336031481624,0.0021380283869803,-0.00366519158706069
5,1.0125000434425,-0.202777789496344,-0.144444451959316,-0.0140499006956816,-0.00244346098043024,-0.0100792767480016
5,1.00555558402623,-0.208333344873396,-0.13750000469901,-0.0149661982432008,-0.00916297826915979,-0.000610865245107561
5,1.00138890837647,-0.208333344873396,-0.140277788465518,-0.0198531206697226,-0.00122173049021512,-0.00183259579353034
5,1.00694447590948,-0.198611113846581,-0.12916666555545,-0.0177150927484035,-0.00366519158706069,0.00366519158706069
5,1.00972225967599,-0.200000005729836,-0.12777778582816,-0.00977384392172098,0.00946841109544039,0.00794124789535999
5,1.00416669214298,-0.202777789496344,-0.131944449321958,-0.011606439948082,0.00549778714776039,0.00794124789535999
5,1.00555558402623,-0.202777789496344,-0.126388893944906,-0.0143553335219622,-0.0204639863222837,0.000610865245107561
5,1.00555558402623,-0.200000005729836,-0.12916666555545,-0.0265726372599602,-0.011606439948082,0.00763581553474069
5,1.00833336779274,-0.202777789496344,-0.134722233088466,-0.013744467869401,-0.0143553335219622,0.0171042270958424
5,1.01111115155925,-0.200000005729836,-0.131944449321958,-0.0152716310694814,-0.00549778714776039,0.00305432616733015
5,1.0125000434425,-0.202777789496344,-0.133333341205212,-0.0210748501121998,-0.00305432616733015,0.00549778714776039
5,1.00972225967599,-0.20138889761309,-0.136111112815755,-0.0146607663482428,-0.00671951752156019,0.0027488935738802
5,1.00972225967599,-0.206944452990142,-0.134722233088466,-0.0109955742955208,-0.0125227374956012,0.0146607663482428
5,1.0125000434425,-0.206944452990142,-0.13750000469901,-0.00244346098043024,-0.013744467869401,0.013744467869401
5,1.0125000434425,-0.208333344873396,-0.13750000469901,-0.000305432622553781,0.00244346098043024,-0.000916297896765172
5,1.0125000434425,-0.20972223675665,-0.12916666555545,-0.00305432616733015,-0.00122173049021512,-0.00305432616733015
5,1.00972225967599,-0.205555561106887,-0.12777778582816,-0.000305432622553781,-0.0183259565383196,0.00183259579353034
5,1.00972225967599,-0.204166669223633,-0.136111112815755,-0.00397062394768,-0.00733038317412138,0.00702495034784079
5,1.00972225967599,-0.202777789496344,-0.136111112815755,0.000916297896765172,-0.00366519158706069,0.00855211354792118
5,1.00555558402623,-0.20972223675665,-0.134722233088466,0.00427605677396059,-0.00580321997404099,-0.0021380283869803
5,1.00138890837647,-0.208333344873396,-0.140277788465518,0.00641408516094089,-0.01191187184304,0.00122173049021512
5,1.00833336779274,-0.204166669223633,-0.144444451959316,0.0143553335219622,-0.029626963660121,0.0106901414692402
5,1.0125000434425,-0.202777789496344,-0.138888896582264,0.0259617734700441,-0.0384845100343227,0.0149661982432008
5,1.00972225967599,-0.205555561106887,-0.14583334384257,0.0311541277915239,-0.019547687843442,0.00977384392172098
5,1.00972225967599,-0.205555561106887,-0.140277788465518,0.0152716310694814,-0.000610865245107561,0.011606439948082
5,1.00972225967599,-0.205555561106887,-0.140277788465518,0.00580321997404099,-0.0106901414692402,0.00702495034784079
5,1.00555558402623,-0.206944452990142,-0.131944449321958,0.0189368221908808,-0.029626963660121,0.0128281703218818
5,1.01111115155925,-0.200000005729836,-0.150000007336368,0.019547687843442,-0.0256563406437635,0.00610865233466029
5,1.01111115155925,-0.200000005729836,-0.150000007336368,0.0113010071218014,-0.01588249579072,0.0113010071218014
5,1.01527782720901,-0.206944452990142,-0.152777778946911,0.00763581553474069,-0.00305432616733015,0.013744467869401
5,1.01111115155925,-0.208333344873396,-0.14583334384257,0.00794124789535999,-0.000305432622553781,0.00488692196086049
5,1.01111115155925,-0.208333344873396,-0.14583334384257,0.00519235478714108,-0.000305432622553781,0.00305432616733015
5,1.00277780025972,-0.205555561106887,-0.144444451959316,0.00794124789535999,-0.0100792767480016,0.00488692196086049
5,1.00833336779274,-0.206944452990142,-0.14722222356986,0.00519235478714108,-0.00977384392172098,0.0134390350431204
5,1.00833336779274,-0.206944452990142,-0.14722222356986,0.0125227374956012,-0.00580321997404099,0.0045814891345799
5,1.00555558402623,-0.208333344873396,-0.144444451959316,0.0100792767480016,-0.0103847095742822,0.013744467869401
5,1.00555558402623,-0.208333344873396,-0.141666668192807,0.000610865245107561,-0.0183259565383196,0.00702495034784079
5,1.00555558402623,-0.208333344873396,-0.141666668192807,-0.00183259579353034,-0.0265726372599602,0.00549778714776039
5,1.00694447590948,-0.20972223675665,-0.140277788465518,-0.00152716308366507,-0.0183259565383196,0.0161879286170006
5,1.00694447590948,-0.20138889761309,-0.14722222356986,-0.00152716308366507,-0.00977384392172098,0.0204639863222837
5,1.00694447590948,-0.20138889761309,-0.14722222356986,-0.0033597587607801,-0.0143553335219622,0.0134390350431204
5,1.00555558402623,-0.205555561106887,-0.141666668192807,0.00152716308366507,-0.021685715764761,0.01191187184304
5,1.00555558402623,-0.205555561106887,-0.143055560076062,0.00519235478714108,-0.0146607663482428,0.01588249579072
5,1.00416669214298,-0.202777789496344,-0.140277788465518,0.0027488935738802,-0.00763581553474069,0.0131336031481624
5,1.00277780025972,-0.205555561106887,-0.141666668192807,-0.0131336031481624,-0.00885754637420177,0.0134390350431204
5,1.0125000434425,-0.200000005729836,-0.161111118090472,-0.0128281703218818,-0.00824668072164059,0.0183259565383196
5,1.00555558402623,-0.206944452990142,-0.144444451959316,-0.00763581553474069,0.0027488935738802,0.0122173046693206
5,1.00972225967599,-0.20972223675665,-0.14583334384257,-0.0103847095742822,0.00183259579353034,0.0167987942695618
5,1.00833336779274,-0.204166669223633,-0.13750000469901,-0.0180205255746841,-0.0106901414692402,0.0201585534960032
5,1.00972225967599,-0.202777789496344,-0.148611115453114,-0.00519235478714108,-0.0183259565383196,0.0250454749912024
5,1.00416669214298,-0.212499996211229,-0.156944454596674,-0.00152716308366507,0.00488692196086049,0.0198531206697226
5,1.00972225967599,-0.211111128639904,-0.161111118090472,-0.00519235478714108,0.0109955742955208,0.0271835029125214
5,1.00555558402623,-0.20972223675665,-0.150000007336368,0.00152716308366507,0.000916297896765172,0.0229074470698834
5,1.00138890837647,-0.205555561106887,-0.14722222356986,-0.000610865245107561,-0.0146607663482428,0.0253509078174829
5,1.00555558402623,-0.205555561106887,-0.161111118090472,-0.0113010071218014,-0.0192422550171614,0.0198531206697226
5,1.00694447590948,-0.20972223675665,-0.158333334323963,-0.0305432621389627,-0.0021380283869803,0.0189368221908808
5,1.01388893532575,-0.211111128639904,-0.13750000469901,-0.0256563406437635,0.0213802829384804,0.0177150927484035
5,1.00972225967599,-0.216666671860991,-0.143055560076062,-0.0152716310694814,0.0305432621389627,0.0134390350431204
5,1.00555558402623,-0.215277779977737,-0.150000007336368,-0.0152716310694814,0.0183259565383196,0.0189368221908808
5,1.00000001649321,-0.205555561106887,-0.14583334384257,-0.03176499158144,-0.0192422550171614,0.0271835029125214
5,1.00555558402623,-0.211111128639904,-0.156944454596674,-0.0342084541916847,-0.0171042270958424,0.0250454749912024
5,1.01111115155925,-0.223611131277262,-0.14722222356986,-0.0332921557128429,0.0161879286170006,0.0192422550171614
5,1.01111115155925,-0.223611131277262,-0.14722222356986,-0.0403171069920063,0.0271835029125214,0.0149661982432008
5,1.00000001649321,-0.216666671860991,-0.150000007336368,-0.0293215326964855,0.0201585534960032,0.0134390350431204
5,1.00000001649321,-0.2194444556275,-0.134722233088466,-0.0253509078174829,-0.00244346098043024,0.0186313893646002
5,1.00000001649321,-0.2194444556275,-0.134722233088466,-0.0183259565383196,-0.00671951752156019,0.0287106670439243
5,1.00000001649321,-0.2194444556275,-0.134722233088466,-0.0219911485910416,-0.00977384392172098,0.0186313893646002
5,1.00277780025972,-0.218055563744246,-0.154166670830166,-0.0247400421649218,0.0045814891345799,0.0146607663482428
5,1.00416669214298,-0.220833347510754,-0.158333334323963,-0.0180205255746841,0.00641408516094089,0.0183259565383196
5,1.00416669214298,-0.220833347510754,-0.158333334323963,-0.019547687843442,0.000305432622553781,0.00824668072164059
5,1.00416669214298,-0.220833347510754,-0.158333334323963,-0.0201585534960032,-0.01588249579072,0.00977384392172098
5,1.00416669214298,-0.216666671860991,-0.150000007336368,-0.0100792767480016,0.0045814891345799,0.0189368221908808
5,1.00416669214298,-0.216666671860991,-0.150000007336368,-0.00763581553474069,0.013744467869401,0.00641408516094089
5,1.00416669214298,-0.216666671860991,-0.150000007336368,-0.00244346098043024,0.00366519158706069,0.0134390350431204
5,1.00000001649321,-0.2194444556275,-0.143055560076062,-0.0021380283869803,-0.0161879286170006,0.0122173046693206
5,1.00277780025972,-0.223611131277262,-0.143055560076062,-0.00183259579353034,-0.0152716310694814,0.00946841109544039
5,1.00416669214298,-0.2194444556275,-0.15555556271342,-0.00519235478714108,-0.00244346098043024,0.00855211354792118
5,1.00555558402623,-0.222222239394008,-0.14722222356986,0.0027488935738802,0.00977384392172098,0.00122173049021512
5,1.00555558402623,-0.2194444556275,-0.141666668192807,0.00366519158706069,0.00733038317412138,0.0100792767480016
5,1.00555558402623,-0.2194444556275,-0.141666668192807,0.00397062394768,-0.0045814891345799,0.00763581553474069
5,1.00555558402623,-0.2194444556275,-0.141666668192807,0.0161879286170006,-0.0189368221908808,0.0167987942695618
5,1.00000001649321,-0.215277779977737,-0.148611115453114,0.0198531206697226,0.00763581553474069,0.00702495034784079
5,1.00000001649321,-0.215277779977737,-0.148611115453114,0.0177150927484035,0.013744467869401,0.00244346098043024
5,1.00000001649321,-0.215277779977737,-0.148611115453114,0.0235183127224445,-0.00946841109544039,0.00885754637420177
5,1.00000001649321,-0.215277779977737,-0.148611115453114,0.0302378293126821,-0.0229074470698834,0.00580321997404099
5,1.00000001649321,-0.215277779977737,-0.148611115453114,0.0213802829384804,-0.0201585534960032,0.0128281703218818
5,1.00000001649321,-0.215277779977737,-0.148611115453114,0.00641408516094089,0.000610865245107561,0.011606439948082
5,1.00000001649321,-0.215277779977737,-0.148611115453114,0.00580321997404099,0.0045814891345799,0.00977384392172098
5,1.00833336779274,-0.218055563744246,-0.151388899219622,0.0229074470698834,0.00610865233466029,-0.00183259579353034
5,1.00833336779274,-0.218055563744246,-0.151388899219622,0.0222965814173222,-0.00122173049021512,0.0045814891345799
5,1.00833336779274,-0.218055563744246,-0.151388899219622,0.0146607663482428,-0.0045814891345799,0.0103847095742822
5,1.00833336779274,-0.218055563744246,-0.151388899219622,0.0235183127224445,0.015577063895762,0.0100792767480016
5,1.00277780025972,-0.215277779977737,-0.14722222356986,0.00702495034784079,0.0213802829384804,-0.0033597587607801
5,1.00277780025972,-0.215277779977737,-0.14722222356986,0.00183259579353034,0.0045814891345799,0.00397062394768
5,1.00138890837647,-0.206944452990142,-0.156944454596674,0.00733038317412138,0.0109955742955208,0.00152716308366507
5,1.00694447590948,-0.222222239394008,-0.150000007336368,0.00946841109544039,0.0308486949652433,-0.00152716308366507
5,1.00416669214298,-0.2194444556275,-0.14722222356986,0.0180205255746841,0.0204639863222837,0.0027488935738802
5,1.00277780025972,-0.218055563744246,-0.14583334384257,0.00641408516094089,-0.000610865245107561,0.00366519158706069
5,1.00277780025972,-0.216666671860991,-0.148611115453114,0.00580321997404099,0.00885754637420177,0.00641408516094089
5,1.00555558402623,-0.2194444556275,-0.148611115453114,-0.00946841109544039,0.0256563406437635,-0.0027488935738802
5,1.00277780025972,-0.2194444556275,-0.14722222356986,-0.000305432622553781,0.0177150927484035,0.0021380283869803
5,1.01111115155925,-0.216666671860991,-0.158333334323963,-0.00397062394768,0.0204639863222837,0.0146607663482428
5,1.00694447590948,-0.216666671860991,-0.144444451959316,-0.00733038317412138,0.019547687843442,-0.0033597587607801
5,1.00416669214298,-0.222222239394008,-0.141666668192807,-0.00977384392172098,0.0167987942695618,0.0021380283869803
5,1.00694447590948,-0.2194444556275,-0.14722222356986,-0.0256563406437635,0.00763581553474069,-0.00152716308366507
5,1.00694447590948,-0.223611131277262,-0.150000007336368,-0.0262672062963247,0.0164933614432812,0.00855211354792118
5,1.00694447590948,-0.220833347510754,-0.158333334323963,-0.0235183127224445,0.0348193198442459,-0.0100792767480016
5,1.00694447590948,-0.216666671860991,-0.144444451959316,-0.0244346093386412,0.0363464802503586,-0.00549778714776039
5,1.00277780025972,-0.213888888094483,-0.144444451959316,-0.0180205255746841,0.0201585534960032,-0.00152716308366507
5,1.00277780025972,-0.222222239394008,-0.13750000469901,-0.0143553335219622,0.0210748501121998,-0.00733038317412138
5,1.00694447590948,-0.224999998848587,-0.140277788465518,0.00183259579353034,0.0320704244077206,-0.00305432616733015
5,1.00000001649321,-0.220833347510754,-0.14722222356986,0.00519235478714108,0.0262672062963247,-0.0106901414692402
5,1.00000001649321,-0.216666671860991,-0.140277788465518,0.0146607663482428,0.0226020142436027,-0.00519235478714108
5,1.00000001649321,-0.226388890731841,-0.13750000469901,0.0100792767480016,0.0204639863222837,-0.0100792767480016
5,1.00000001649321,-0.2194444556275,-0.125000002061652,0.0210748501121998,-0.00916297826915979,-0.0033597587607801
5,1.00138890837647,-0.223611131277262,-0.134722233088466,0.0201585534960032,-0.0109955742955208,-0.00152716308366507
5,1.00972225967599,-0.233333350148112,-0.141666668192807,0.0241291765123606,0.0128281703218818,-0.011606439948082
5,1.00694447590948,-0.223611131277262,-0.143055560076062,0.0164933614432812,0.03176499158144,-0.0134390350431204
5,1.00138890837647,-0.224999998848587,-0.141666668192807,0.0198531206697226,0.0219911485910416,-0.0140499006956816
5,1.00000001649321,-0.224999998848587,-0.133333341205212,0.0250454749912024,0.0143553335219622,-0.0161879286170006
5,1.00277780025972,-0.2194444556275,-0.138888896582264,0.0314595587551594,0.0259617734700441,-0.0131336031481624
5,1.00694447590948,-0.2194444556275,-0.143055560076062,0.0210748501121998,0.0271835029125214,-0.0106901414692402
5,1.00416669214298,-0.2194444556275,-0.138888896582264,0.0256563406437635,0.0207694191485643,-0.00916297826915979
5,1.00555558402623,-0.226388890731841,-0.130555557438704,0.0265726372599602,0.0177150927484035,-0.00916297826915979
5,1.00555558402623,-0.222222239394008,-0.131944449321958,0.0268780700862408,0.0235183127224445,-0.0161879286170006
5,1.00555558402623,-0.216666671860991,-0.133333341205212,0.0332921557128429,0.0229074470698834,-0.0109955742955208
5,1.00694447590948,-0.215277779977737,-0.13750000469901,0.0390953756868839,0.021685715764761,-0.0100792767480016
5,1.00972225967599,-0.218055563744246,-0.13750000469901,0.0366519130766392,0.0259617734700441,-0.0122173046693206
5,1.00555558402623,-0.2194444556275,-0.122222230451108,0.0452040284872055,0.00427605677396059,-0.00427605677396059
5,1.00555558402623,-0.222222239394008,-0.130555557438704,0.037568211555481,0.00397062394768,-0.0106901414692402
5,1.00416669214298,-0.2194444556275,-0.131944449321958,0.0366519130766392,0.000305432622553781,-0.00549778714776039
5,1.00555558402623,-0.216666671860991,-0.13750000469901,0.0467311926186085,0.00519235478714108,-0.0149661982432008
5,1.00555558402623,-0.211111128639904,-0.134722233088466,0.0299323964864016,0.017409659922123,-0.00641408516094089
5,1.00416669214298,-0.212499996211229,-0.144444451959316,0.0265726372599602,0.013744467869401,-0.0045814891345799
5,1.00555558402623,-0.216666671860991,-0.144444451959316,0.021685715764761,0.00305432616733015,-0.0033597587607801
5,1.00833336779274,-0.2194444556275,-0.134722233088466,0.01588249579072,-0.00122173049021512,-0.0113010071218014
5,1.00972225967599,-0.20972223675665,-0.140277788465518,0.0143553335219622,0.00305432616733015,-0.00702495034784079
5,1.00694447590948,-0.20972223675665,-0.140277788465518,0.0167987942695618,0.00610865233466029,-0.0143553335219622
5,1.00833336779274,-0.212499996211229,-0.13750000469901,0.00824668072164059,-0.00122173049021512,-0.00702495034784079
5,1.00277780025972,-0.223611131277262,-0.13750000469901,0.00702495034784079,-0.0109955742955208,-0.00519235478714108
5,1.00555558402623,-0.220833347510754,-0.12777778582816,0.00152716308366507,-0.0131336031481624,-0.00671951752156019
5,1.00277780025972,-0.2194444556275,-0.126388893944906,0.00183259579353034,-0.0149661982432008,-0.0021380283869803
5,1.00694447590948,-0.215277779977737,-0.134722233088466,0.0128281703218818,-0.00977384392172098,-0.00794124789535999
5,1.00694447590948,-0.2194444556275,-0.138888896582264,0.0171042270958424,-0.00519235478714108,-0.000305432622553781
5,1.00555558402623,-0.223611131277262,-0.125000002061652,0.0106901414692402,-0.0164933614432812,0.000916297896765172
5,1.00694447590948,-0.2194444556275,-0.12916666555545,0.0253509078174829,-0.0372627787292004,0.00549778714776039
5,1.0125000434425,-0.223611131277262,-0.134722233088466,0.0201585534960032,-0.0131336031481624,-0.00794124789535999
5,1.00833336779274,-0.216666671860991,-0.13750000469901,0.027488935738802,0.00427605677396059,-0.00183259579353034
5,1.00972225967599,-0.213888888094483,-0.130555557438704,0.01588249579072,-0.00549778714776039,-0.0113010071218014
5,1.00694447590948,-0.213888888094483,-0.12777778582816,0.0207694191485643,-0.0192422550171614,-0.00580321997404099
5,1.00555558402623,-0.215277779977737,-0.13750000469901,0.02382374368608,-0.015577063895762,-0.000916297896765172
5,1.00555558402623,-0.215277779977737,-0.13750000469901,0.0250454749912024,-0.00977384392172098,-0.00671951752156019
5,1.01111115155925,-0.215277779977737,-0.144444451959316,0.0128281703218818,-0.011606439948082,-0.0045814891345799
5,1.01111115155925,-0.213888888094483,-0.140277788465518,0.0149661982432008,-0.000610865245107561,-0.00916297826915979
5,1.0125000434425,-0.212499996211229,-0.143055560076062,0.0164933614432812,0.0027488935738802,-0.0113010071218014
5,1.00277780025972,-0.216666671860991,-0.12777778582816,0.0103847095742822,0.00244346098043024,-0.00977384392172098
5,1.00555558402623,-0.212499996211229,-0.13750000469901,0.0164933614432812,-0.0021380283869803,-0.000610865245107561
5,1.00416669214298,-0.211111128639904,-0.133333341205212,0.0235183127224445,0.00152716308366507,-0.000610865245107561
5,1.00277780025972,-0.213888888094483,-0.13750000469901,0.0186313893646002,-0.00855211354792118,-0.00183259579353034
5,1.00277780025972,-0.211111128639904,-0.13750000469901,0.0140499006956816,-0.0192422550171614,-0.00702495034784079
5,1.00277780025972,-0.212499996211229,-0.140277788465518,0.0143553335219622,-0.00366519158706069,-0.00702495034784079
5,1.00555558402623,-0.212499996211229,-0.140277788465518,0.0103847095742822,-0.00671951752156019,-0.00305432616733015
5,1.00972225967599,-0.208333344873396,-0.133333341205212,0.00824668072164059,-0.00946841109544039,0.0027488935738802
5,1.00555558402623,-0.206944452990142,-0.140277788465518,0.00916297826915979,-0.011606439948082,-0.00244346098043024
5,1.00555558402623,-0.20972223675665,-0.138888896582264,-0.0045814891345799,-0.013744467869401,-0.00152716308366507
5,1.00694447590948,-0.20972223675665,-0.140277788465518,-0.00977384392172098,-0.0186313893646002,0.000610865245107561
5,1.00833336779274,-0.211111128639904,-0.134722233088466,-0.01588249579072,-0.0149661982432008,-0.00397062394768
5,1.00555558402623,-0.208333344873396,-0.13750000469901,-0.011606439948082,0.000610865245107561,-0.00855211354792118
5,1.00972225967599,-0.206944452990142,-0.143055560076062,-0.0149661982432008,0.00702495034784079,-0.0027488935738802
5,1.00277780025972,-0.215277779977737,-0.130555557438704,-0.017409659922123,-0.00794124789535999,-0.00427605677396059
5,1.00416669214298,-0.212499996211229,-0.143055560076062,-0.0131336031481624,-0.0253509078174829,0.000916297896765172
5,1.00555558402623,-0.213888888094483,-0.144444451959316,-0.013744467869401,-0.0280998013913631,0.00977384392172098
5,1.00833336779274,-0.216666671860991,-0.14722222356986,-0.00641408516094089,-0.0180205255746841,0.00671951752156019
5,1.01111115155925,-0.213888888094483,-0.150000007336368,0.00305432616733015,0.00824668072164059,0.0027488935738802
5,1.01111115155925,-0.213888888094483,-0.150000007336368,-0.00794124789535999,0.0167987942695618,0.00152716308366507
5,1.00000001649321,-0.204166669223633,-0.134722233088466,0.00152716308366507,-0.0210748501121998,0.00244346098043024
5,1.01111115155925,-0.212499996211229,-0.140277788465518,0.00549778714776039,-0.019547687843442,0.0033597587607801
5,1.00833336779274,-0.206944452990142,-0.14722222356986,-0.00397062394768,-0.0146607663482428,-0.00305432616733015
5,1.00972225967599,-0.208333344873396,-0.14722222356986,-0.0149661982432008,0.00580321997404099,-0.000610865245107561
5,1.00972225967599,-0.208333344873396,-0.14722222356986,-0.0186313893646002,-0.0134390350431204,-0.00122173049021512
5,1.00833336779274,-0.213888888094483,-0.141666668192807,-0.00488692196086049,-0.0131336031481624,-0.0021380283869803
5,1.00972225967599,-0.213888888094483,-0.14722222356986,0.0122173046693206,0.011606439948082,0.0021380283869803
5,1.00972225967599,-0.213888888094483,-0.14722222356986,0.00916297826915979,0.021685715764761,0.00397062394768
5,1.00555558402623,-0.206944452990142,-0.140277788465518,0.00580321997404099,0.00824668072164059,0.00610865233466029
5,1.00833336779274,-0.208333344873396,-0.141666668192807,0.00824668072164059,0.00763581553474069,-0.00977384392172098
5,1.00972225967599,-0.211111128639904,-0.143055560076062,0.0177150927484035,0.0122173046693206,-0.0140499006956816
5,1.00972225967599,-0.211111128639904,-0.143055560076062,0.0210748501121998,0.0424551330506802,-0.017409659922123
5,1.00694447590948,-0.206944452990142,-0.148611115453114,0.0146607663482428,0.0568104684352875,-0.00916297826915979
5,1.00277780025972,-0.202777789496344,-0.134722233088466,0.0204639863222837,0.0109955742955208,-0.00122173049021512
5,1.00277780025972,-0.202777789496344,-0.134722233088466,0.0250454749912024,-0.0271835029125214,0.00366519158706069
5,1.00972225967599,-0.211111128639904,-0.14583334384257,0.017409659922123,-0.00916297826915979,0.00366519158706069
5,1.00833336779274,-0.20972223675665,-0.150000007336368,0.000610865245107561,0.0250454749912024,0.00641408516094089
5,1.00833336779274,-0.20972223675665,-0.150000007336368,-0.00671951752156019,0.0219911485910416,-0.00152716308366507
5,1.00555558402623,-0.20972223675665,-0.138888896582264,-0.0250454749912024,0.0149661982432008,0.00397062394768
5,1.00416669214298,-0.206944452990142,-0.136111112815755,-0.0247400421649218,0.00824668072164059,0.00671951752156019
5,1.00555558402623,-0.206944452990142,-0.134722233088466,-0.0125227374956012,0.00122173049021512,0.00763581553474069
5,1.00694447590948,-0.206944452990142,-0.13750000469901,-0.0177150927484035,-0.00244346098043024,0.00702495034784079
5,1.00694447590948,-0.20138889761309,-0.140277788465518,-0.0210748501121998,0.00519235478714108,-0.00183259579353034
5,1.00972225967599,-0.200000005729836,-0.130555557438704,-0.0226020142436027,-0.00244346098043024,0.0021380283869803
5,1.0125000434425,-0.205555561106887,-0.13750000469901,-0.0271835029125214,0.00305432616733015,0.00519235478714108
5,1.00972225967599,-0.205555561106887,-0.126388893944906,-0.0177150927484035,-0.000916297896765172,0.00702495034784079
5,1.00555558402623,-0.206944452990142,-0.133333341205212,-0.00733038317412138,-0.0232128798961639,0.00549778714776039
5,1.00555558402623,-0.212499996211229,-0.152777778946911,-0.0268780700862408,-0.0290160998702049,0.00824668072164059
5,1.01388893532575,-0.211111128639904,-0.13750000469901,-0.0201585534960032,-0.0164933614432812,0.00122173049021512
5,1.01527782720901,-0.208333344873396,-0.144444451959316,-0.0149661982432008,0.0189368221908808,-0.00549778714776039
5,1.00972225967599,-0.20972223675665,-0.134722233088466,-0.0122173046693206,0.0302378293126821,0.00488692196086049
5,1.00694447590948,-0.205555561106887,-0.133333341205212,0.000610865245107561,-0.00733038317412138,0.0186313893646002
5,0.998611124609959,-0.212499996211229,-0.12777778582816,-0.0171042270958424,-0.0262672062963247,0.0244346093386412
5,1.00277780025972,-0.218055563744246,-0.133333341205212,-0.0229074470698834,-0.0513126812875271,0.0149661982432008
5,1.00277780025972,-0.216666671860991,-0.13750000469901,-0.0259617734700441,-0.0152716310694814,0.00549778714776039
5,1.0125000434425,-0.218055563744246,-0.150000007336368,-0.0103847095742822,0.0219911485910416,-0.0033597587607801
5,1.00972225967599,-0.20972223675665,-0.148611115453114,0.0143553335219622,0.0366519130766392,0.00610865233466029
5,1.00277780025972,-0.205555561106887,-0.13750000469901,0.02382374368608,0.0180205255746841,0.0113010071218014
5,1.00555558402623,-0.213888888094483,-0.138888896582264,0.00855211354792118,-0.019547687843442,0.0109955742955208
5,1.00555558402623,-0.216666671860991,-0.13750000469901,0.00916297826915979,-0.0244346093386412,0.00733038317412138
5,1.01111115155925,-0.218055563744246,-0.140277788465518,0.02382374368608,0.0134390350431204,0.00427605677396059
5,1.00833336779274,-0.213888888094483,-0.14722222356986,0.0277943685650826,0.0284052342176437,0.00366519158706069
5,1.00555558402623,-0.213888888094483,-0.134722233088466,0.0329867228865623,0.000916297896765172,0.0109955742955208
5,1.00000001649321,-0.216666671860991,-0.12916666555545,0.0265726372599602,-0.0235183127224445,0.0122173046693206
5,1.00138890837647,-0.213888888094483,-0.138888896582264,0.0256563406437635,-0.027488935738802,0.0128281703218818
5,1.00972225967599,-0.213888888094483,-0.156944454596674,0.0403171069920063,-0.0113010071218014,0.00946841109544039
5,1.0125000434425,-0.215277779977737,-0.148611115453114,0.0311541277915239,0.0122173046693206,0.00885754637420177
5,1.00972225967599,-0.215277779977737,-0.134722233088466,0.0305432621389627,0.0177150927484035,0.0027488935738802
5,1.00694447590948,-0.20972223675665,-0.13750000469901,0.0308486949652433,-0.000305432622553781,0.0027488935738802
5,1.00277780025972,-0.20972223675665,-0.12916666555545,0.0290160998702049,-0.0171042270958424,0.0100792767480016
5,1.00416669214298,-0.211111128639904,-0.13750000469901,0.0277943685650826,-0.0305432621389627,0.0152716310694814
5,1.00555558402623,-0.213888888094483,-0.14722222356986,0.0287106670439243,-0.0354301854968071,0.0100792767480016
5,1.0125000434425,-0.211111128639904,-0.152777778946911,0.0256563406437635,-0.00733038317412138,0.0103847095742822
5,1.0125000434425,-0.211111128639904,-0.152777778946911,0.0226020142436027,0.0229074470698834,0.00855211354792118
5,1.00972225967599,-0.20972223675665,-0.143055560076062,0.0207694191485643,0.00977384392172098,0.00733038317412138
5,1.00833336779274,-0.208333344873396,-0.144444451959316,0.0152716310694814,-0.0192422550171614,0.00946841109544039
5,1.00833336779274,-0.208333344873396,-0.144444451959316,0.011606439948082,-0.015577063895762,0.00488692196086049
5,1.00555558402623,-0.212499996211229,-0.143055560076062,0.0027488935738802,-0.00885754637420177,0.0149661982432008
5,1.00972225967599,-0.216666671860991,-0.148611115453114,0.00549778714776039,-0.00183259579353034,0.0021380283869803
5,1.00972225967599,-0.216666671860991,-0.148611115453114,-0.000610865245107561,0.0100792767480016,0.00610865233466029
5,1.00694447590948,-0.213888888094483,-0.151388899219622,-0.0113010071218014,0.00488692196086049,0.00733038317412138
5,1.00138890837647,-0.212499996211229,-0.14583334384257,-0.00244346098043024,-0.0204639863222837,0.0109955742955208
5,1.00138890837647,-0.212499996211229,-0.14583334384257,0.00183259579353034,-0.011606439948082,0.00855211354792118
5,1.00555558402623,-0.216666671860991,-0.140277788465518,-0.00641408516094089,-0.0299323964864016,0.0045814891345799
5,1.00972225967599,-0.2194444556275,-0.154166670830166,-0.021685715764761,-0.0106901414692402,0.00916297826915979
5,1.01111115155925,-0.2194444556275,-0.14722222356986,-0.00733038317412138,0.0021380283869803,0.00580321997404099
5,1.00416669214298,-0.224999998848587,-0.150000007336368,-0.0021380283869803,0.01588249579072,0.00885754637420177
5,1.00694447590948,-0.2194444556275,-0.144444451959316,-0.00794124789535999,0.00244346098043024,0.00885754637420177
5,1.00416669214298,-0.2194444556275,-0.143055560076062,-0.0186313893646002,-0.0180205255746841,0.00580321997404099
5,1.00555558402623,-0.223611131277262,-0.151388899219622,-0.00397062394768,-0.0125227374956012,0.00855211354792118
5,1.00972225967599,-0.2194444556275,-0.144444451959316,-0.000305432622553781,0.00580321997404099,0.0134390350431204
5,1.0125000434425,-0.2194444556275,-0.141666668192807,-0.00519235478714108,0.0103847095742822,-0.000916297896765172
5,1.00555558402623,-0.220833347510754,-0.148611115453114,0.00519235478714108,0.00702495034784079,0.00580321997404099
5,1.00694447590948,-0.212499996211229,-0.144444451959316,0.0021380283869803,0.00519235478714108,0.00305432616733015
5,1.00277780025972,-0.216666671860991,-0.143055560076062,0.00183259579353034,-0.017409659922123,0.00855211354792118
5,1.00416669214298,-0.2194444556275,-0.150000007336368,0.0134390350431204,-0.0308486949652433,0.00794124789535999
5,1.00555558402623,-0.220833347510754,-0.150000007336368,0.0183259565383196,-0.0125227374956012,0.00885754637420177
5,1.00694447590948,-0.218055563744246,-0.14722222356986,0.0171042270958424,-0.0021380283869803,0.0100792767480016
5,1.00555558402623,-0.2194444556275,-0.156944454596674,0.00977384392172098,0.00397062394768,-0.000305432622553781
5,1.00555558402623,-0.2194444556275,-0.151388899219622,0.0109955742955208,0.00305432616733015,0.0103847095742822
5,1.00416669214298,-0.212499996211229,-0.14583334384257,0.015577063895762,-0.00397062394768,0.00916297826915979
5,1.00416669214298,-0.216666671860991,-0.140277788465518,0.0134390350431204,-0.00519235478714108,0.00946841109544039
5,1.00555558402623,-0.215277779977737,-0.151388899219622,0.0125227374956012,-0.00519235478714108,0.00641408516094089
5,1.00555558402623,-0.216666671860991,-0.150000007336368,0.0109955742955208,0.00549778714776039,0.00305432616733015
5,1.00416669214298,-0.216666671860991,-0.150000007336368,0.00549778714776039,-0.00366519158706069,0.00610865233466029
5,1.00277780025972,-0.2194444556275,-0.14583334384257,0.00244346098043024,-0.00855211354792118,0.00488692196086049
5,1.00416669214298,-0.216666671860991,-0.156944454596674,0.000305432622553781,-0.00946841109544039,0.000305432622553781
5,1.00277780025972,-0.212499996211229,-0.150000007336368,-0.00305432616733015,-0.00641408516094089,0.00733038317412138
5,1.00138890837647,-0.2194444556275,-0.144444451959316,0.00427605677396059,-0.00794124789535999,0.0027488935738802
5,1.00277780025972,-0.2194444556275,-0.154166670830166,-0.000305432622553781,-0.0021380283869803,0.00580321997404099
5,1.00555558402623,-0.216666671860991,-0.154166670830166,-0.000916297896765172,0.000610865245107561,-0.00305432616733015
5,1.00277780025972,-0.213888888094483,-0.15555556271342,-0.00519235478714108,-0.00610865233466029,0.0027488935738802
5,1.00277780025972,-0.213888888094483,-0.15555556271342,0.00519235478714108,-0.0201585534960032,0.00152716308366507
5,1.00694447590948,-0.212499996211229,-0.14722222356986,-0.00244346098043024,-0.0113010071218014,-0.00244346098043024
5,1.00416669214298,-0.222222239394008,-0.154166670830166,-0.0146607663482428,-0.0189368221908808,0.0021380283869803
5,1.00277780025972,-0.2194444556275,-0.15555556271342,-0.0259617734700441,-0.0167987942695618,-0.00244346098043024
5,1.00416669214298,-0.216666671860991,-0.154166670830166,-0.00549778714776039,-0.0033597587607801,-0.0045814891345799
5,1.00277780025972,-0.222222239394008,-0.156944454596674,0.00641408516094089,0.0045814891345799,0.000305432622553781
5,0.997222232726705,-0.2194444556275,-0.14583334384257,0.0131336031481624,-0.00427605677396059,0.000916297896765172
5,1.00555558402623,-0.223611131277262,-0.151388899219622,0.00488692196086049,-0.0128281703218818,0.000916297896765172
5,1.00833336779274,-0.220833347510754,-0.152777778946911,0.00488692196086049,-0.00610865233466029,-0.00549778714776039
5,1.00416669214298,-0.213888888094483,-0.161111118090472,0.015577063895762,0.00610865233466029,-0.0106901414692402
5,1.00277780025972,-0.216666671860991,-0.154166670830166,0.00733038317412138,0.00641408516094089,-0.00671951752156019
5,1.00555558402623,-0.215277779977737,-0.150000007336368,0.013744467869401,0.0128281703218818,-0.000916297896765172
5,1.00138890837647,-0.212499996211229,-0.154166670830166,0.013744467869401,0.000610865245107561,0.0027488935738802
5,1.00277780025972,-0.2194444556275,-0.14583334384257,0.0143553335219622,-0.021685715764761,0.0021380283869803
5,1.00972225967599,-0.212499996211229,-0.14583334384257,0.0109955742955208,-0.0256563406437635,0.00488692196086049
5,1.00972225967599,-0.2194444556275,-0.152777778946911,0.0219911485910416,-0.0131336031481624,-0.00610865233466029
5,1.00972225967599,-0.220833347510754,-0.14583334384257,0.021685715764761,0.0128281703218818,-0.00549778714776039
5,1.00416669214298,-0.212499996211229,-0.140277788465518,0.0161879286170006,0.00794124789535999,-0.00671951752156019
5,1.00138890837647,-0.212499996211229,-0.140277788465518,0.0210748501121998,-0.0033597587607801,-0.00122173049021512
5,1.00555558402623,-0.213888888094483,-0.143055560076062,0.0186313893646002,-0.00366519158706069,-0.00488692196086049
5,1.00972225967599,-0.213888888094483,-0.152777778946911,0.0241291765123606,-0.00152716308366507,-0.00855211354792118
5,1.00833336779274,-0.212499996211229,-0.15555556271342,0.0302378293126821,0.00305432616733015,-0.0100792767480016
5,1.00694447590948,-0.216666671860991,-0.161111118090472,0.0339030213654041,0.00122173049021512,-0.011606439948082
5,1.00555558402623,-0.218055563744246,-0.14722222356986,0.0280998013913631,-0.0021380283869803,-0.00977384392172098
5,1.00138890837647,-0.218055563744246,-0.138888896582264,0.0369573459029198,0.00305432616733015,-0.00427605677396059
5,1.00416669214298,-0.2194444556275,-0.152777778946911,0.0390953756868839,-0.0045814891345799,-0.00946841109544039
5,1.00972225967599,-0.2194444556275,-0.148611115453114,0.0424551330506802,0.00366519158706069,-0.0113010071218014
5,1.00833336779274,-0.218055563744246,-0.144444451959316,0.0372627787292004,0.0103847095742822,-0.00855211354792118
5,1.00694447590948,-0.20972223675665,-0.158333334323963,0.0427605658769607,0.0247400421649218,-0.00885754637420177
5,1.00277780025972,-0.212499996211229,-0.143055560076062,0.0390953756868839,0.0433714315295219,-0.0033597587607801
5,1.00000001649321,-0.20972223675665,-0.133333341205212,0.0351247526705265,0.00977384392172098,-0.000305432622553781
5,1.00555558402623,-0.212499996211229,-0.138888896582264,0.029626963660121,-0.0177150927484035,-0.00733038317412138
5,1.0125000434425,-0.20972223675665,-0.13750000469901,0.0244346093386412,-0.00183259579353034,-0.00702495034784079
5,1.01527782720901,-0.212499996211229,-0.151388899219622,0.0213802829384804,0.0113010071218014,-0.00519235478714108
5,1.01111115155925,-0.212499996211229,-0.144444451959316,0.00855211354792118,0.0363464802503586,-0.00244346098043024
5,1.00972225967599,-0.215277779977737,-0.13750000469901,0.0180205255746841,0.0390953756868839,-0.0122173046693206
5,1.00555558402623,-0.213888888094483,-0.133333341205212,0.0241291765123606,0.0210748501121998,-0.00733038317412138
5,1.00555558402623,-0.20972223675665,-0.140277788465518,0.0186313893646002,0.0143553335219622,0.00244346098043024
5,1.00555558402623,-0.212499996211229,-0.13750000469901,0.0143553335219622,0.0207694191485643,-0.00244346098043024
5,1.00833336779274,-0.211111128639904,-0.154166670830166,0.0253509078174829,0.0171042270958424,-0.01191187184304
5,1.00416669214298,-0.212499996211229,-0.151388899219622,0.0302378293126821,0.0323758572340012,-0.00427605677396059
5,1.00694447590948,-0.220833347510754,-0.144444451959316,0.0366519130766392,0.01191187184304,-0.00885754637420177
5,1.00555558402623,-0.2194444556275,-0.140277788465518,0.0378736443817616,0.00794124789535999,-0.00671951752156019
5,1.00277780025972,-0.215277779977737,-0.13750000469901,0.0513126812875271,0.011606439948082,-0.00183259579353034
5,1.00555558402623,-0.218055563744246,-0.140277788465518,0.0519235469400883,0.0106901414692402,-0.00183259579353034
5,1.00555558402623,-0.218055563744246,-0.140277788465518,0.0482583530247212,0.00366519158706069,-0.00519235478714108
5,0.998611124609959,-0.212499996211229,-0.144444451959316,0.0537561401724815,0.00366519158706069,-0.0106901414692402
5,1.00416669214298,-0.216666671860991,-0.14722222356986,0.0387899428606033,0.00671951752156019,-0.00610865233466029
5,1.00416669214298,-0.216666671860991,-0.14722222356986,0.0427605658769607,-0.00733038317412138,0.00152716308366507
5,1.00277780025972,-0.208333344873396,-0.148611115453114,0.0519235469400883,-0.0146607663482428,0.00427605677396059
5,1.00972225967599,-0.20972223675665,-0.141666668192807,0.0378736443817616,-0.017409659922123,0.000305432622553781
5,1.00972225967599,-0.20972223675665,-0.141666668192807,0.0320704244077206,-0.0128281703218818,-0.00397062394768
5,1.0125000434425,-0.212499996211229,-0.161111118090472,0.0198531206697226,-0.00824668072164059,0.0021380283869803
5,1.00972225967599,-0.20972223675665,-0.150000007336368,0.0207694191485643,-0.0167987942695618,-0.000610865245107561
5,1.00555558402623,-0.20972223675665,-0.133333341205212,0.0207694191485643,-0.019547687843442,0.00580321997404099
5,1.00555558402623,-0.206944452990142,-0.141666668192807,0.01191187184304,-0.0171042270958424,-0.0033597587607801
5,1.00555558402623,-0.208333344873396,-0.141666668192807,0.00427605677396059,-0.00977384392172098,-0.00122173049021512
5,1.00972225967599,-0.206944452990142,-0.140277788465518,0.00794124789535999,-0.00824668072164059,-0.00427605677396059
5,1.00694447590948,-0.20972223675665,-0.144444451959316,0.00733038317412138,0.0045814891345799,-0.00824668072164059
5,1.00555558402623,-0.20972223675665,-0.144444451959316,-0.00305432616733015,0.0033597587607801,-0.00610865233466029
5,1.00277780025972,-0.211111128639904,-0.131944449321958,0.00152716308366507,-0.0241291765123606,-0.0021380283869803
5,1.00833336779274,-0.215277779977737,-0.144444451959316,0.00366519158706069,-0.0271835029125214,-0.00152716308366507
5,1.01111115155925,-0.216666671860991,-0.15555556271342,-0.00702495034784079,0.0125227374956012,-0.00885754637420177
5,1.00972225967599,-0.212499996211229,-0.144444451959316,-0.0109955742955208,0.01191187184304,-0.0109955742955208
5,1.00972225967599,-0.206944452990142,-0.143055560076062,-0.017409659922123,-0.0045814891345799,-0.00946841109544039
5,1.00000001649321,-0.206944452990142,-0.14583334384257,-0.0113010071218014,-0.00641408516094089,-0.00397062394768
5,1.00833336779274,-0.208333344873396,-0.14583334384257,-0.0100792767480016,0.00702495034784079,-0.01191187184304
5,1.01527782720901,-0.218055563744246,-0.151388899219622,-0.0131336031481624,0.0293215326964855,-0.00977384392172098
5,1.00833336779274,-0.216666671860991,-0.150000007336368,-0.017409659922123,0.0412334054708481,-0.0204639863222837
5,1.00555558402623,-0.212499996211229,-0.144444451959316,-0.0210748501121998,0.0363464802503586,-0.0164933614432812
5,1.00416669214298,-0.206944452990142,-0.150000007336368,-0.0131336031481624,0.0271835029125214,-0.017409659922123
5,1.00277780025972,-0.208333344873396,-0.148611115453114,-0.0125227374956012,0.0201585534960032,-0.0192422550171614
5,1.00694447590948,-0.208333344873396,-0.14722222356986,-0.00427605677396059,0.0262672062963247,-0.0167987942695618
5,1.00694447590948,-0.204166669223633,-0.140277788465518,0.00977384392172098,0.0455094613134861,-0.00885754637420177
5,1.00833336779274,-0.212499996211229,-0.138888896582264,0.0210748501121998,0.0479529201984406,-0.00427605677396059
5,1.00138890837647,-0.213888888094483,-0.158333334323963,0.0128281703218818,0.0381790772080422,-0.00580321997404099
5,1.00277780025972,-0.212499996211229,-0.143055560076062,0.00427605677396059,0.0265726372599602,-0.000916297896765172
5,1.00277780025972,-0.20972223675665,-0.141666668192807,-0.00549778714776039,0.0021380283869803,0.00183259579353034
5,1.00416669214298,-0.200000005729836,-0.140277788465518,-0.00946841109544039,-0.0134390350431204,0.0109955742955208
5,1.00555558402623,-0.204166669223633,-0.144444451959316,-0.00885754637420177,-0.0265726372599602,0.0128281703218818
5,1.00277780025972,-0.200000005729836,-0.134722233088466,-0.00946841109544039,-0.0455094613134861,0.0256563406437635
5,1.00000001649321,-0.20972223675665,-0.131944449321958,-0.00855211354792118,-0.0510072484612465,0.0235183127224445
5,1.00138890837647,-0.206944452990142,-0.144444451959316,-0.0134390350431204,-0.0717766657471657,0.0219911485910416
5,1.00416669214298,-0.208333344873396,-0.144444451959316,-0.01191187184304,-0.0742201283574104,0.0287106670439243
5,1.00833336779274,-0.20972223675665,-0.133333341205212,-0.021685715764761,-0.0720821022987366,0.0284052342176437
5,1.00972225967599,-0.212499996211229,-0.134722233088466,-0.0152716310694814,-0.0592539273202419,0.0311541277915239
5,1.01111115155925,-0.212499996211229,-0.141666668192807,-0.01191187184304,-0.0583376325666905,0.0229074470698834
5,1.01111115155925,-0.212499996211229,-0.140277788465518,-0.00733038317412138,-0.0558941699564457,0.0180205255746841
5,1.01388893532575,-0.20972223675665,-0.14722222356986,-0.00397062394768,-0.0271835029125214,0.0146607663482428
5,1.00972225967599,-0.20972223675665,-0.13750000469901,-0.00610865233466029,-0.0109955742955208,0.0125227374956012
5,1.00833336779274,-0.20972223675665,-0.12777778582816,-0.00641408516094089,-0.0354301854968071,0.0161879286170006
5,1.0125000434425,-0.20972223675665,-0.136111112815755,-0.00427605677396059,-0.0293215326964855,0.000305432622553781
5,1.01527782720901,-0.211111128639904,-0.154166670830166,-0.00733038317412138,-0.00519235478714108,-0.00244346098043024
5,1.01111115155925,-0.20972223675665,-0.148611115453114,-0.0305432621389627,0.0103847095742822,-0.0033597587607801
5,1.01111115155925,-0.20972223675665,-0.148611115453114,-0.0201585534960032,0.015577063895762,-0.0100792767480016
5,1.00972225967599,-0.211111128639904,-0.14722222356986,-0.00885754637420177,0.0222965814173222,-0.0183259565383196
5,1.00416669214298,-0.206944452990142,-0.144444451959316,-0.00519235478714108,0.0262672062963247,-0.0106901414692402
5,1.00555558402623,-0.20972223675665,-0.148611115453114,-0.00244346098043024,0.0357356183230877,-0.00610865233466029
5,1.00277780025972,-0.211111128639904,-0.144444451959316,-0.0021380283869803,0.0415388382971287,-0.00549778714776039
5,1.00416669214298,-0.215277779977737,-0.150000007336368,0.00549778714776039,0.0461203269660473,-0.0113010071218014
5,1.00000001649321,-0.213888888094483,-0.144444451959316,0.00733038317412138,0.0335975885391235,-0.00763581553474069
5,1.00000001649321,-0.215277779977737,-0.141666668192807,0.00702495034784079,-0.000305432622553781,0.000916297896765172
5,1.00000001649321,-0.215277779977737,-0.141666668192807,0.00916297826915979,-0.0131336031481624,0.00702495034784079
5,0.998611124609959,-0.215277779977737,-0.151388899219622,0.0134390350431204,-0.0149661982432008,0.00519235478714108
5,1.00277780025972,-0.216666671860991,-0.15555556271342,0.0180205255746841,-0.0293215326964855,0.0167987942695618
5,1.00277780025972,-0.2194444556275,-0.148611115453114,0.00855211354792118,-0.0311541277915239,0.0103847095742822
5,1.00000001649321,-0.212499996211229,-0.154166670830166,0.0192422550171614,-0.0500909499824047,0.0204639863222837
5,1.00138890837647,-0.212499996211229,-0.156944454596674,0.0262672062963247,-0.0620028227567673,0.0177150927484035
5,1.00138890837647,-0.208333344873396,-0.166666673467524,0.0332921557128429,-0.0601702257990837,0.01191187184304
5,1.00833336779274,-0.218055563744246,-0.151388899219622,0.0351247526705265,-0.0543670058250427,0.0152716310694814
5,1.01111115155925,-0.216666671860991,-0.148611115453114,0.0287106670439243,-0.0503963828086853,0.0192422550171614
5,1.00972225967599,-0.216666671860991,-0.154166670830166,0.03176499158144,-0.0409279726445675,0.00946841109544039
5,1.00972225967599,-0.215277779977737,-0.158333334323963,0.0219911485910416,-0.0329867228865623,0.00855211354792118
5,1.00694447590948,-0.20972223675665,-0.156944454596674,0.0161879286170006,-0.0177150927484035,-0.00519235478714108
5,1.0125000434425,-0.208333344873396,-0.150000007336368,0.00733038317412138,-0.00733038317412138,-0.00580321997404099
5,1.0125000434425,-0.20972223675665,-0.150000007336368,0.00885754637420177,0.00855211354792118,-0.00702495034784079
5,1.00972225967599,-0.20972223675665,-0.150000007336368,0.00580321997404099,0.0180205255746841,-0.00397062394768
5,1.00833336779274,-0.215277779977737,-0.158333334323963,-0.000610865245107561,0.0232128798961639,-0.00916297826915979
5,1.00416669214298,-0.20972223675665,-0.162500009973726,-0.00763581553474069,0.0259617734700441,-0.0109955742955208
5,1.00694447590948,-0.20972223675665,-0.14722222356986,-0.0171042270958424,0.0280998013913631,-0.00977384392172098
5,1.00416669214298,-0.206944452990142,-0.14722222356986,-0.00855211354792118,0.0247400421649218,-0.0109955742955208
5,1.00277780025972,-0.20972223675665,-0.151388899219622,-0.00946841109544039,0.0305432621389627,-0.0171042270958424
5,1.00000001649321,-0.208333344873396,-0.166666673467524,-0.0140499006956816,0.0256563406437635,-0.00671951752156019
5,0.99583334084345,-0.211111128639904,-0.152777778946911,-0.0277943685650826,0.0259617734700441,-0.0134390350431204
5,1.00138890837647,-0.212499996211229,-0.156944454596674,-0.0207694191485643,0.0180205255746841,0.00244346098043024
5,1.00972225967599,-0.20972223675665,-0.150000007336368,-0.0134390350431204,0.0164933614432812,0.0027488935738802
5,1.00972225967599,-0.20972223675665,-0.150000007336368,-0.00671951752156019,0.0180205255746841,0.00183259579353034
5,1.00416669214298,-0.212499996211229,-0.152777778946911,-0.00519235478714108,0.00244346098043024,0.00824668072164059
5,1.00416669214298,-0.212499996211229,-0.152777778946911,-0.00733038317412138,-0.00671951752156019,0.00488692196086049
5,1.00277780025972,-0.211111128639904,-0.148611115453114,-0.0177150927484035,-0.02382374368608,0.00763581553474069
5,1.00277780025972,-0.211111128639904,-0.14722222356986,-0.0271835029125214,-0.0348193198442459,0.01191187184304
5,1.00277780025972,-0.211111128639904,-0.14722222356986,-0.017409659922123,-0.0390953756868839,0.011606439948082
5,1.00972225967599,-0.208333344873396,-0.152777778946911,-0.0171042270958424,-0.00855211354792118,0.00794124789535999
5,1.00555558402623,-0.212499996211229,-0.158333334323963,-0.00641408516094089,-0.0103847095742822,0.00702495034784079
5,1.00277780025972,-0.206944452990142,-0.148611115453114,-0.00916297826915979,-0.0140499006956816,0.0122173046693206
5,1.00416669214298,-0.211111128639904,-0.154166670830166,-0.0192422550171614,-0.0161879286170006,0.0100792767480016
5,1.00972225967599,-0.206944452990142,-0.150000007336368,-0.013744467869401,-0.0113010071218014,-0.0045814891345799
5,1.00972225967599,-0.208333344873396,-0.150000007336368,-0.00855211354792118,0.00885754637420177,-0.00366519158706069
5,1.01805561097552,-0.205555561106887,-0.143055560076062,-0.000610865245107561,0.0232128798961639,-0.0021380283869803
5,1.01111115155925,-0.205555561106887,-0.151388899219622,-0.00244346098043024,0.0210748501121998,-0.000610865245107561
5,1.00694447590948,-0.205555561106887,-0.150000007336368,0.00152716308366507,0.0250454749912024,-0.00855211354792118
5,1.00555558402623,-0.202777789496344,-0.14583334384257,-0.00671951752156019,0.0161879286170006,-0.000916297896765172
5,1.00416669214298,-0.204166669223633,-0.15555556271342,-0.00610865233466029,0.0167987942695618,-0.00580321997404099
5,1.00555558402623,-0.20972223675665,-0.154166670830166,-0.0033597587607801,0.0152716310694814,-0.0045814891345799
5,1.00416669214298,-0.211111128639904,-0.154166670830166,-0.00610865233466029,0.0167987942695618,-0.00580321997404099
5,1.00555558402623,-0.212499996211229,-0.154166670830166,-0.00549778714776039,0.0125227374956012,0.00244346098043024
5,1.00416669214298,-0.212499996211229,-0.151388899219622,0.00824668072164059,0.015577063895762,0.00488692196086049
5,1.00972225967599,-0.211111128639904,-0.154166670830166,0.0131336031481624,0.0204639863222837,-0.00152716308366507
5,1.00972225967599,-0.212499996211229,-0.148611115453114,0.00610865233466029,0.0277943685650826,-0.00122173049021512
5,1.00833336779274,-0.206944452990142,-0.144444451959316,0.00794124789535999,-0.0033597587607801,-0.000610865245107561
5,1.00416669214298,-0.20972223675665,-0.14722222356986,0.00977384392172098,-0.00427605677396059,0.00610865233466029
5,1.00138890837647,-0.205555561106887,-0.156944454596674,0.0128281703218818,0.00152716308366507,0.0103847095742822
5,1.00694447590948,-0.212499996211229,-0.158333334323963,0.00916297826915979,0.00549778714776039,0.0021380283869803
5,1.00555558402623,-0.216666671860991,-0.152777778946911,0.0122173046693206,0.00183259579353034,0.000305432622553781
5,1.00416669214298,-0.215277779977737,-0.14722222356986,0.017409659922123,-0.00397062394768,0.00794124789535999
5,1.00833336779274,-0.20972223675665,-0.151388899219622,0.0198531206697226,0.00580321997404099,-0.00366519158706069
5,1.01111115155925,-0.204166669223633,-0.152777778946911,0.0143553335219622,0.00244346098043024,-0.00427605677396059
5,1.00972225967599,-0.205555561106887,-0.154166670830166,0.0180205255746841,-0.00794124789535999,-0.000916297896765172
5,1.00972225967599,-0.216666671860991,-0.15555556271342,0.0229074470698834,0.00305432616733015,-0.000916297896765172
5,1.00972225967599,-0.212499996211229,-0.156944454596674,0.0277943685650826,0.0192422550171614,-0.00488692196086049
5,1.00833336779274,-0.211111128639904,-0.150000007336368,0.03176499158144,0.0335975885391235,0.000610865245107561
5,1.00277780025972,-0.206944452990142,-0.13750000469901,0.0339030213654041,0.013744467869401,0.00122173049021512
5,1.00277780025972,-0.208333344873396,-0.143055560076062,0.029626963660121,0.01191187184304,-0.00763581553474069
5,1.00555558402623,-0.208333344873396,-0.14722222356986,0.027488935738802,0.01191187184304,0.00152716308366507
5,1.00972225967599,-0.206944452990142,-0.150000007336368,0.0314595587551594,0.0250454749912024,-0.00152716308366507
5,1.01111115155925,-0.206944452990142,-0.151388899219622,0.03176499158144,0.0314595587551594,-0.011606439948082
5,1.00416669214298,-0.205555561106887,-0.15555556271342,0.0329867228865623,0.0387899428606033,-0.00580321997404099
5,1.00416669214298,-0.205555561106887,-0.14722222356986,0.0354301854968071,0.0259617734700441,-0.00733038317412138
5,1.00694447590948,-0.204166669223633,-0.141666668192807,0.0305432621389627,0.015577063895762,-0.00305432616733015
5,1.00555558402623,-0.204166669223633,-0.14583334384257,0.027488935738802,0.0219911485910416,-0.0045814891345799
5,1.00694447590948,-0.208333344873396,-0.13750000469901,0.0201585534960032,0.0250454749912024,-0.0103847095742822
5,1.00555558402623,-0.20972223675665,-0.134722233088466,0.0299323964864016,0.0235183127224445,-0.00366519158706069
5,1.00416669214298,-0.206944452990142,-0.143055560076062,0.0314595587551594,0.0128281703218818,-0.00183259579353034
5,1.00694447590948,-0.206944452990142,-0.138888896582264,0.0323758572340012,0.015577063895762,0.00122173049021512
5,1.00555558402623,-0.208333344873396,-0.14722222356986,0.0311541277915239,0.0204639863222837,-0.000305432622553781
5,1.00555558402623,-0.208333344873396,-0.14722222356986,0.0284052342176437,0.00763581553474069,0.00977384392172098
5,1.00416669214298,-0.202777789496344,-0.150000007336368,0.0397062413394451,0.00916297826915979,0.00916297826915979
5,1.00555558402623,-0.202777789496344,-0.14722222356986,0.0351247526705265,0.0363464802503586,0.00794124789535999
5,1.00555558402623,-0.202777789496344,-0.14722222356986,0.0284052342176437,0.0143553335219622,0.015577063895762
5,1.00555558402623,-0.202777789496344,-0.13750000469901,0.0262672062963247,-0.0332921557128429,0.0164933614432812
5,1.00277780025972,-0.206944452990142,-0.13750000469901,0.0207694191485643,-0.0290160998702049,0.0100792767480016
5,1.00833336779274,-0.20138889761309,-0.148611115453114,0.01588249579072,0.0222965814173222,0.00549778714776039
5,1.00833336779274,-0.200000005729836,-0.143055560076062,0.0167987942695618,0.0164933614432812,0.00305432616733015
5,1.00555558402623,-0.198611113846581,-0.140277788465518,0.0152716310694814,-0.000610865245107561,0.00763581553474069
5,1.00138890837647,-0.205555561106887,-0.14583334384257,0.0109955742955208,-0.000305432622553781,0.00916297826915979
5,1.00833336779274,-0.208333344873396,-0.144444451959316,0.0103847095742822,-0.000305432622553781,0.00855211354792118
5,1.00833336779274,-0.204166669223633,-0.140277788465518,0.00855211354792118,0.013744467869401,-0.000305432622553781
5,1.00972225967599,-0.212499996211229,-0.13750000469901,0.015577063895762,0.0271835029125214,-0.00916297826915979
5,1.00972225967599,-0.215277779977737,-0.140277788465518,0.015577063895762,0.0326812900602817,-0.00183259579353034
5,1.00277780025972,-0.215277779977737,-0.144444451959316,0.0122173046693206,0.0226020142436027,0.00488692196086049
5,1.00000001649321,-0.211111128639904,-0.138888896582264,0.0125227374956012,0.00946841109544039,0.00671951752156019
5,1.00555558402623,-0.206944452990142,-0.148611115453114,0.0164933614432812,0.0146607663482428,0.000916297896765172
5,1.00277780025972,-0.213888888094483,-0.13750000469901,0.00671951752156019,0.00733038317412138,0.00794124789535999
5,1.00277780025972,-0.208333344873396,-0.136111112815755,0.00733038317412138,0.000305432622553781,0.015577063895762
5,1.00555558402623,-0.206944452990142,-0.12777778582816,-0.000916297896765172,-0.0021380283869803,0.0171042270958424
5,1.00555558402623,-0.20972223675665,-0.138888896582264,-0.0113010071218014,-0.00244346098043024,0.0143553335219622
5,1.00277780025972,-0.198611113846581,-0.130555557438704,-0.019547687843442,-0.00977384392172098,0.0149661982432008
5,1.00555558402623,-0.197222234119292,-0.150000007336368,-0.0167987942695618,-0.011606439948082,0.0244346093386412
5,1.00277780025972,-0.204166669223633,-0.143055560076062,-0.0207694191485643,-0.0131336031481624,0.0235183127224445
5,1.01388893532575,-0.20972223675665,-0.143055560076062,-0.0244346093386412,-0.0113010071218014,0.0171042270958424
5,1.00972225967599,-0.205555561106887,-0.13750000469901,-0.0351247526705265,-0.0113010071218014,0.0146607663482428
5,1.00833336779274,-0.20972223675665,-0.138888896582264,-0.0470366254448891,-0.0253509078174829,0.00580321997404099
5,1.00694447590948,-0.20972223675665,-0.13750000469901,-0.0360410511493683,-0.0232128798961639,0.0167987942695618
5,1.00555558402623,-0.206944452990142,-0.141666668192807,-0.0452040284872055,-0.0284052342176437,0.011606439948082
5,1.00972225967599,-0.215277779977737,-0.143055560076062,-0.0439822971820831,-0.013744467869401,0.0201585534960032
5,1.0125000434425,-0.20972223675665,-0.13750000469901,-0.0436768643558025,-0.0241291765123606,0.0167987942695618
5,1.00972225967599,-0.20972223675665,-0.134722233088466,-0.0381790772080422,0.00427605677396059,0.0033597587607801
5,1.01111115155925,-0.20972223675665,-0.14583334384257,-0.0491746515035629,0.0140499006956816,0.00519235478714108
5,1.00555558402623,-0.212499996211229,-0.14722222356986,-0.0430659987032413,-0.00488692196086049,0.00671951752156019
5,1.00416669214298,-0.2194444556275,-0.13750000469901,-0.029626963660121,-0.0171042270958424,0.00244346098043024
5,1.00694447590948,-0.212499996211229,-0.148611115453114,-0.0342084541916847,0.00366519158706069,-0.00152716308366507
5,1.00138890837647,-0.218055563744246,-0.143055560076062,-0.0461203269660473,0.011606439948082,0.000305432622553781
5,1.00694447590948,-0.213888888094483,-0.13750000469901,-0.0384845100343227,0.00183259579353034,0.000305432622553781
5,1.00694447590948,-0.215277779977737,-0.14583334384257,-0.0247400421649218,0.00763581553474069,0.00763581553474069
5,1.00416669214298,-0.218055563744246,-0.14583334384257,-0.0180205255746841,0.011606439948082,0.00641408516094089
5,1.00555558402623,-0.213888888094483,-0.151388899219622,-0.0204639863222837,-0.00885754637420177,0.0109955742955208
5,1.00555558402623,-0.216666671860991,-0.140277788465518,-0.0207694191485643,-0.00641408516094089,0.0125227374956012
5,1.00555558402623,-0.2194444556275,-0.144444451959316,-0.00397062394768,-0.00794124789535999,0.00916297826915979
5,1.00694447590948,-0.223611131277262,-0.144444451959316,-0.00152716308366507,-0.00549778714776039,0.0100792767480016
5,1.00000001649321,-0.223611131277262,-0.14722222356986,-0.00152716308366507,-0.0280998013913631,0.00366519158706069
5,1.00277780025972,-0.220833347510754,-0.144444451959316,0.00977384392172098,-0.0241291765123606,0.0122173046693206
5,1.00138890837647,-0.215277779977737,-0.14722222356986,0.0189368221908808,-0.0351247526705265,0.0198531206697226
5,1.00416669214298,-0.216666671860991,-0.140277788465518,0.0198531206697226,-0.037568211555481,0.0259617734700441
5,1.00694447590948,-0.2194444556275,-0.143055560076062,0.0143553335219622,-0.0326812900602817,0.00671951752156019
5,1.00972225967599,-0.216666671860991,-0.150000007336368,0.0183259565383196,-0.0189368221908808,0.00702495034784079
5,1.00555558402623,-0.211111128639904,-0.14722222356986,0.013744467869401,-0.00946841109544039,0.00305432616733015
5,1.00555558402623,-0.216666671860991,-0.140277788465518,0.0171042270958424,-0.00305432616733015,0.00305432616733015
5,1.00694447590948,-0.212499996211229,-0.140277788465518,0.0109955742955208,-0.0134390350431204,0.00397062394768
5,1.00555558402623,-0.212499996211229,-0.14722222356986,0.00183259579353034,-0.00244346098043024,0.00580321997404099
5,1.00694447590948,-0.212499996211229,-0.148611115453114,0.00397062394768,0.0152716310694814,0.01191187184304
5,1.00416669214298,-0.213888888094483,-0.14722222356986,-0.011606439948082,0.00977384392172098,0.00824668072164059
5,1.00416669214298,-0.213888888094483,-0.14722222356986,-0.00397062394768,0.00671951752156019,0.000916297896765172
5,1.00277780025972,-0.213888888094483,-0.14722222356986,-0.00488692196086049,0.00305432616733015,0.00488692196086049
5,1.00277780025972,-0.20972223675665,-0.14722222356986,-0.00763581553474069,0.000610865245107561,0.00916297826915979
5,1.00277780025972,-0.20972223675665,-0.14722222356986,-0.0109955742955208,-0.00946841109544039,0.00671951752156019
5,1.00555558402623,-0.215277779977737,-0.151388899219622,-0.00885754637420177,-0.00305432616733015,0.00855211354792118
5,1.00277780025972,-0.212499996211229,-0.148611115453114,-0.0164933614432812,-0.00152716308366507,0.00641408516094089
5,1.00277780025972,-0.212499996211229,-0.148611115453114,-0.0128281703218818,-0.0259617734700441,0.0100792767480016
5,1.00277780025972,-0.216666671860991,-0.14583334384257,-0.00733038317412138,-0.0424551330506802,0.0229074470698834
5,1.00555558402623,-0.220833347510754,-0.14583334384257,-0.00916297826915979,-0.0253509078174829,0.0122173046693206
5,1.00277780025972,-0.213888888094483,-0.154166670830166,-0.0204639863222837,-0.0149661982432008,0.00733038317412138
5,1.00555558402623,-0.213888888094483,-0.156944454596674,-0.0241291765123606,-0.0161879286170006,-0.00183259579353034
5,1.00694447590948,-0.213888888094483,-0.150000007336368,-0.0235183127224445,-0.0152716310694814,0.00641408516094089
5,1.00833336779274,-0.216666671860991,-0.156944454596674,-0.00702495034784079,0.00824668072164059,0.00152716308366507
5,1.00000001649321,-0.215277779977737,-0.158333334323963,-0.00702495034784079,0.00549778714776039,-0.000610865245107561
5,1.00555558402623,-0.212499996211229,-0.148611115453114,-0.00671951752156019,-0.015577063895762,-0.00366519158706069
5,1.00972225967599,-0.216666671860991,-0.144444451959316,-0.00641408516094089,-0.00824668072164059,-0.00305432616733015
5,1.00833336779274,-0.220833347510754,-0.150000007336368,0.00488692196086049,0.0134390350431204,-0.000305432622553781
5,1.00277780025972,-0.216666671860991,-0.151388899219622,-0.00183259579353034,0.01191187184304,0.0033597587607801
5,1.00277780025972,-0.215277779977737,-0.16527778158427,0.00733038317412138,0.015577063895762,0.00183259579353034
5,1.00277780025972,-0.216666671860991,-0.154166670830166,0.00794124789535999,0.00366519158706069,-0.000610865245107561
5,1.00277780025972,-0.215277779977737,-0.144444451959316,0.00794124789535999,-0.0171042270958424,0.0045814891345799
5,1.00277780025972,-0.218055563744246,-0.156944454596674,0.00763581553474069,-0.0213802829384804,-0.00641408516094089
5,1.00416669214298,-0.216666671860991,-0.156944454596674,0.00977384392172098,-0.00885754637420177,0.000610865245107561
5,1.00277780025972,-0.216666671860991,-0.156944454596674,0.0167987942695618,0.00488692196086049,-0.00580321997404099
5,1.00277780025972,-0.212499996211229,-0.15555556271342,0.0186313893646002,-0.000916297896765172,-0.00183259579353034
5,1.00277780025972,-0.215277779977737,-0.159722226207217,0.0198531206697226,-0.00977384392172098,0.000610865245107561
5,1.00138890837647,-0.216666671860991,-0.156944454596674,0.01191187184304,-0.00916297826915979,0.000305432622553781
5,1.00833336779274,-0.2194444556275,-0.14722222356986,0.0149661982432008,-0.0171042270958424,0.00610865233466029
5,1.00972225967599,-0.216666671860991,-0.154166670830166,0.0152716310694814,-0.0164933614432812,-0.00855211354792118
5,1.00694447590948,-0.212499996211229,-0.144444451959316,0.019547687843442,-0.00763581553474069,-0.00305432616733015
5,1.00416669214298,-0.213888888094483,-0.144444451959316,0.0219911485910416,0.00397062394768,-0.00549778714776039
5,1.00555558402623,-0.216666671860991,-0.166666673467524,0.0229074470698834,-0.00671951752156019,-0.0033597587607801
5,1.00416669214298,-0.218055563744246,-0.156944454596674,0.00977384392172098,-0.0140499006956816,0.00305432616733015
5,1.00277780025972,-0.213888888094483,-0.150000007336368,0.0189368221908808,-0.0045814891345799,-0.00794124789535999
5,1.00555558402623,-0.215277779977737,-0.15555556271342,0.0207694191485643,0.011606439948082,-0.00946841109544039
5,1.00972225967599,-0.212499996211229,-0.15555556271342,0.0207694191485643,0.00549778714776039,-0.00519235478714108
5,1.00972225967599,-0.206944452990142,-0.14722222356986,0.0360410511493683,-0.00305432616733015,-0.00916297826915979
5,1.00555558402623,-0.216666671860991,-0.154166670830166,0.0323758572340012,-0.0192422550171614,-0.00824668072164059
5,1.00833336779274,-0.216666671860991,-0.151388899219622,0.0259617734700441,-0.019547687843442,0.00549778714776039
5,1.00972225967599,-0.215277779977737,-0.14722222356986,0.0256563406437635,0.00122173049021512,-0.011606439948082
5,1.00972225967599,-0.216666671860991,-0.14722222356986,0.0387899428606033,0.0229074470698834,-0.00977384392172098
5,1.00277780025972,-0.218055563744246,-0.144444451959316,0.0482583530247212,0.0171042270958424,-0.011606439948082
5,1.00277780025972,-0.212499996211229,-0.143055560076062,0.0497855171561241,0.00824668072164059,-0.0164933614432812
5,1.00416669214298,-0.208333344873396,-0.14722222356986,0.0387899428606033,-0.00671951752156019,-0.00733038317412138
5,1.01388893532575,-0.216666671860991,-0.150000007336368,0.0436768643558025,0.00305432616733015,-0.0045814891345799
