Activity,acc_x,acc_y,acc_z,gyro_x,gyro_y,gyro_z
0,0.343055565805897,0.0250000007162294,0.956944465360051,-0.0305432621389627,-0.138971850275993,-0.295353353023529
0,0.341666673922643,0.0180555564949145,0.95000000594378,-0.138360977172852,-0.254425376653671,-0.247094988822937
0,0.323611128064198,0.03194444645704,0.934722292475701,-0.156686931848526,-0.160046696662903,-0.208305045962334
0,0.326388911830706,0.029166668768514,0.936111184358955,-0.103541657328606,-0.0888808965682983,-0.213191971182823
0,0.33750002258481,0.0194444453391775,0.92083337364316,-0.118507854640484,-0.120035022497177,-0.17989981174469
0,0.344444457689151,0.0111111115138517,0.919444481759906,-0.109039448201656,-0.129808858036995,-0.150883719325066
0,0.344444457689151,0.0111111115138517,0.919444481759906,-0.00977384392172098,0.0308486949652433,0.000610865245107561
0,0.350000000910239,0.0416666683668809,0.948611114060526,-0.0497855171561241,-0.0522289797663689,-0.021685715764761
0,0.354166676560001,0.0361111129898289,0.940277860008718,-0.0507018156349659,-0.0885754600167274,-0.0482583530247212
0,0.354166676560001,0.0361111129898289,0.940277860008718,0.0665843114256859,0.00824668072164059,-0.0925460830330849
0,0.369444462963867,0.033333335301303,0.916666697993398,0.134084925055504,0.0232128798961639,-0.0772744566202164
0,0.404166687109433,0.0361111129898289,0.93750007624221,0.0360410511493683,-0.0113010071218014,0.0693332031369209
0,0.404166687109433,0.0361111129898289,0.93750007624221,0.107512280344963,0.0910189226269722,0.00305432616733015
0,0.391666684472075,0.0486111125881959,0.95000000594378,0.132863193750381,0.152105450630188,-0.029626963660121
0,0.368055571080613,0.055555559848502,0.944444438410764,0.0311541277915239,0.0849102661013603,-0.0763581544160843
0,0.368055571080613,0.055555559848502,0.944444438410764,-0.00916297826915979,-0.0244346093386412,-0.0381790772080422
0,0.366666679197359,0.0375000018340919,0.938888968125464,0.0940732508897781,-0.00946841109544039,-0.0103847095742822
0,0.362500003547597,0.0361111129898289,0.945833330294018,0.120645888149738,0.01191187184304,-0.0836885422468185
0,0.350000000910239,0.0569444456537738,0.948611114060526,0.0681114718317986,0.0729983970522881,-0.152410879731178
0,0.33750002258481,0.0625000010308258,0.954166681593543,0.0164933614432812,0.137750118970871,-0.182037845253944
0,0.333333346935047,0.0583333375370279,0.956944465360051,0.0464257597923279,0.103847093880177,-0.142637029290199
0,0.344444457689151,0.0388888906783549,0.933333400592447,0.037568211555481,0.0345138870179653,-0.0733038261532784
0,0.333333346935047,0.0250000007162294,0.93750007624221,0.0394008085131645,0.0287106670439243,-0.00916297826915979
0,0.312500017310094,0.0222222230277034,0.933333400592447,0.0711658000946045,0.029626963660121,0.015577063895762
0,0.297222230906227,0.0361111129898289,0.940277860008718,0.0558941699564457,-0.0253509078174829,0.0134390350431204
0,0.325000019947452,0.0625000010308258,0.940277860008718,0.058643065392971,0.0421497002243996,-0.0369573459029198
0,0.338888890156135,0.0722222259796579,0.93750007624221,0.0699440687894821,0.12675453722477,-0.208915919065475
0,0.352777784676747,0.0763888894734557,0.93750007624221,0.0632245540618896,0.137750118970871,-0.189979091286659
0,0.377777789951463,0.0652777787193518,0.922222265526414,-0.0219911485910416,0.0390953756868839,-0.0888808965682983
0,0.406944470875941,0.0583333375370279,0.919444481759906,-0.0858265683054924,-0.00122173049021512,-0.00794124789535999
0,0.406944470875941,0.0541666679652478,0.922222265526414,0.0394008085131645,0.0439822971820831,0.0739146918058395
0,0.390277792588821,0.0458333348996699,0.933333400592447,0.12156218290329,-0.00244346098043024,0.0995710343122482
0,0.372222246730376,0.0541666679652478,0.944444438410764,0.101403631269932,-0.0671951770782471,0.130114302039146
0,0.375000006184955,0.052777782159976,0.956944465360051,0.0897971913218498,-0.0232128798961639,0.120951317250729
0,0.368055571080613,0.0569444456537738,0.965277816659576,0.0803287774324417,0.171653136610985,0.0946841165423393
0,0.329166671285285,0.0513888902767219,0.975000059842355,-0.0204639863222837,0.132557764649391,0.105374254286289
0,0.306944449777077,0.0375000018340919,0.979166735492117,-0.110261179506779,0.0253509078174829,0.135917514562607
0,0.29166668768514,0.029166668768514,0.976388951725609,-0.0781907513737679,-0.00122173049021512,0.12156218290329
0,0.272222225631511,0.03194444645704,0.975000059842355,-0.0384845100343227,-0.029626963660121,0.0455094613134861
0,0.25555557165632,0.0388888906783549,0.976388951725609,-0.0357356183230877,-0.0381790772080422,-0.0488692186772823
0,0.259722222994153,0.0458333348996699,0.984722303025134,-0.0180205255746841,-0.00580321997404099,-0.156686931848526
0,0.288888903918631,0.0694444482911319,0.993055557076942,-0.0189368221908808,-0.058643065392971,-0.340251952409744
0,0.375000006184955,0.101388894748172,0.979166735492117,-0.117896988987923,-0.181732416152954,-0.499076902866364
0,0.516666662221798,0.0930555616825939,0.94305554652751,-0.218078896403313,-0.266031801700592,-0.474031418561935
0,0.634722229179108,0.0569444456537738,0.915277806110144,-0.232128798961639,-0.141415297985077,-0.102014496922493
0,0.669444477636603,0.0208333341834404,0.869444471210474,-0.0986547395586967,0.0109955742955208,0.333532422780991
0,0.6319444454126,0.00555555575692586,0.855555552377932,0.0513126812875271,0.0647517144680023,0.729983985424042
0,0.54722223502953,0.0125000003581147,0.854166660494678,0.137139245867729,-0.0384845100343227,0.998459219932556
0,0.434722235605237,0.0250000007162294,0.870833363093728,0.182954147458077,-0.210443079471588,1.06473815441132
0,0.368055571080613,0.0208333341834404,0.876388930626744,0.212886542081833,-0.473726004362106,0.999986410140991
0,0.170833336961321,-0.029166668768514,0.902777779160856,0.286495804786682,-0.88361656665802,0.959669291973114
0,0.120833338567854,-0.0236111118719664,0.927777833059431,0.31154128909111,-0.788321614265442,0.774577140808105
0,0.0194444453391775,-0.00277777787846293,1.00000001649321,0.328340083360672,-0.255952537059784,0.495106279850006
0,-0.140277788465518,0.0222222230277034,1.06805562152495,0.212581098079681,0.0418442711234093,0.143553331494331
0,-0.176388892338373,0.0430555572111439,1.07361118905796,-0.219911485910416,-0.153021737933159,-0.57574051618576
0,-0.125000002061652,0.0875000002275597,1.0513889189259,-0.495106279850006,-0.213802829384804,-1.24036192893982
0,-0.125000002061652,0.0875000002275597,1.0513889189259,-0.459676086902618,-0.0641408488154411,-1.72935950756073
0,0.452777781463682,0.0819444448505077,0.969444492309338,-0.364991992712021,-0.0464257597923279,-1.71561503410339
0,0.805555590452358,0.0388888906783549,0.887500065692777,-0.324064016342163,-0.0302378293126821,-0.906524002552032
0,1.04722224327614,0.0458333348996699,0.834722271376837,-0.164322748780251,0.00549778714776039,-0.223882108926773
0,1.147222264375,0.0597222233422998,0.800000022919342,-0.000916297896765172,0.078801617026329,0.404698222875595
0,1.09305557817581,0.0513888902767219,0.791666671619817,0.0488692186772823,0.26419922709465,1.04060900211334
0,0.906944454810619,0.0444444460554069,0.801388914802596,0.0931569486856461,0.377209275960922,1.63711881637573
0,0.5930555699292,0.026388891079988,0.808333374218867,0.0400116741657257,0.163406446576118,1.92453098297119
0,0.2194444556275,0.0111111115138517,0.863888903677457,0.140804439783096,-0.198531210422516,1.82984685897827
0,-0.0986111170596459,0.0569444456537738,0.973611167959101,0.335670441389084,-0.440739274024963,1.12918436527252
0,-0.265277790527169,0.0972222251763917,1.0694445134082,0.300240278244019,-0.409890592098236,0.184786736965179
0,-0.294444447139719,0.0819444448505077,1.14027780495873,0.0033597587607801,-0.329561799764633,-0.606589198112488
0,-0.216666671860991,0.0680555564078778,1.12638888612619,-0.386066824197769,-0.213497400283814,-1.18874371051788
0,-0.0222222230277034,0.0750000036681839,1.03194452980806,-0.659429013729095,-0.0537561401724815,-1.77761781215668
0,0.319444452414435,0.0875000002275597,0.911111130460381,-0.625220596790314,-0.0723875313997269,-2.04364967346191
0,0.719444488186035,0.0388888906783549,0.779166693294388,-0.450513124465942,-0.150883719325066,-1.83778810501099
0,0.972222276075846,-0.0152777788063885,0.690277807261557,-0.0894917547702789,0.0357356183230877,-0.835969090461731
0,1.03194452980806,-0.0194444453391775,0.676388937052873,0.248316720128059,0.376903861761093,-0.0180205255746841
0,0.944444438410764,0.0208333341834404,0.688888915378302,0.397367835044861,0.656985580921173,0.565661191940308
0,0.752777796136418,0.0486111125881959,0.745833336720147,0.410806864500046,0.603534877300262,1.04030346870422
0,0.752777796136418,0.0486111125881959,0.745833336720147,0.357967019081116,0.433714330196381,1.16369831562042
0,0.476388894855144,0.0472222237439329,0.82222224442755,0.466090172529221,0.0113010071218014,1.20218276977539
0,0.144444451959316,0.0222222230277034,0.972222276075846,0.471893399953842,-0.344527989625931,0.850018978118896
0,-0.104166672436698,0.0847222225390337,1.09583336194232,0.0928515195846558,-0.239153742790222,-0.132557764649391
0,-0.187500003092477,0.12916666555545,1.18750003174166,-0.225409269332886,0.0332921557128429,-0.911410927772522
0,-0.134722233088466,0.111111119697004,1.18750003174166,-0.552222192287445,0.0390953756868839,-1.44836151599884
0,0.0694444482911319,0.113888891307548,1.07916665934326,-0.678976714611053,-0.0885754600167274,-1.78311562538147
0,0.394444468238583,0.0819444448505077,0.933333400592447,-0.495717138051987,-0.189062789082527,-1.52960658073425
0,0.713888920653019,0.030555557612777,0.781944477060896,-0.137139245867729,-0.150883719325066,-0.941037893295288
0,0.89722221162784,0.00972222266958873,0.719444488186035,0.229379892349243,-0.0458148941397667,-0.286190360784531
0,0.936111184358955,0.0222222230277034,0.720833380069289,0.457232624292374,0.24312436580658,0.328034639358521
0,0.847222298326124,0.0375000018340919,0.752777796136418,0.503047525882721,0.502742111682892,0.703105926513672
0,0.759722255552688,0.0486111125881959,0.78333336894415,0.435852348804474,0.25961771607399,0.989907145500183
0,0.387500008822313,0.0694444482911319,0.89722221162784,0.259312301874161,-0.225103840231896,0.946230292320251
0,0.286111120152123,0.0930555616825939,0.940277860008718,0.2165517359972,-0.119424156844616,0.457843512296677
0,0.141666668192807,0.0986111170596459,1.01944450285877,0.184481307864189,0.0925460830330849,0.0754418596625328
0,0.0819444448505077,0.0833333367337618,1.07777786470773,-0.01191187184304,0.0675006061792374,-0.218995183706284
0,0.0902777839940679,0.0680555564078778,1.06805562152495,-0.275500237941742,0.0897971913218498,-0.537256002426147
0,0.144444451959316,0.0583333375370279,1.0333333244436,-0.327118337154388,0.142026171088219,-0.717461228370667
0,0.223611131277262,0.0583333375370279,0.958333357243305,-0.313373863697052,0.0946841165423393,-0.700357019901276
0,0.387500008822313,0.027777779924251,0.886111173809523,-0.357356160879135,-0.0516181141138077,-0.485943287611008
0,0.423611149163062,0.0222222230277034,0.86805557932722,-0.281303435564041,-0.00519235478714108,-0.292909890413284
0,0.472222219205382,0.0125000003581147,0.848611190209378,-0.102625362575054,0.115453533828259,-0.159435823559761
0,0.476388894855144,0.026388891079988,0.844444514559616,-0.00641408516094089,0.198531210422516,-0.0693332031369209
0,0.459722240879953,0.0388888906783549,0.865277795560711,-0.0140499006956816,0.0879645943641663,0.0204639863222837
0,0.440277803138253,0.0472222237439329,0.890277849459286,-0.0580321997404099,-0.0204639863222837,0.0754418596625328
0,0.431944451838729,0.055555559848502,0.915277806110144,0.011606439948082,0.0821613743901253,0.115453533828259
0,0.411111122213775,0.0611111152255539,0.933333400592447,0.017409659922123,0.155770644545555,0.136833816766739
0,0.397222227693163,0.0583333375370279,0.930555616825939,-0.0436768643558025,-0.0598647929728031,0.112704634666443
0,0.380555573717971,0.0597222233422998,0.922222265526414,0.0687223374843597,-0.252898216247559,0.0241291765123606
0,0.390277792588821,0.055555559848502,0.94305554652751,0.207083314657211,-0.219911485910416,-0.0736092627048492
0,0.420833365396554,0.0541666679652478,0.962500032893068,0.107817716896534,-0.193949714303017,-0.0229074470698834
0,0.440277803138253,0.0583333375370279,0.975000059842355,-0.0629191175103188,-0.259312301874161,0.0503963828086853
0,0.473611111088636,0.0625000010308258,0.986111194908388,-0.00641408516094089,-0.153021737933159,0.0546724386513233
0,0.488888921804431,0.052777782159976,0.979166735492117,0.0033597587607801,-0.0717766657471657,0.0647517144680023
0,0.49444444071359,0.0750000036681839,0.986111194908388,-0.231212496757507,-0.108734011650086,0.0699440687894821
0,0.495833332596844,0.0625000010308258,0.96666670854283,-0.305127203464508,-0.161879286170006,0.122173048555851
0,0.495833332596844,0.0500000014324589,0.94305554652751,-0.284357786178589,-0.260839462280273,0.229990765452385
0,0.487500029921177,0.0416666683668809,0.916666697993398,-0.318260788917542,-0.403171062469482,0.260839462280273
0,0.481944462388161,0.0347222241455659,0.913888914226889,-0.349109500646591,-0.4544837474823,0.319177091121674
0,0.466666700296224,0.0250000007162294,0.894444525109048,-0.31703907251358,-0.356134444475174,0.356745302677154
0,0.449999997697174,0.0138888899621255,0.87500003874349,-0.164933621883392,-0.141109868884087,0.365908294916153
0,0.4194444735133,0.00694444498106275,0.863888903677457,-0.121256753802299,-0.0198531206697226,0.326507478952408
0,0.383333357484479,0.00694444498106275,0.862500011794203,-0.120951317250729,-0.021685715764761,0.315511912107468
0,0.370833354847121,-0.00555555575692586,0.870833363093728,-0.218689754605293,-0.0949895456433296,0.261450320482254
0,0.358333352209763,-0.0111111115138517,0.86805557932722,-0.195476874709129,-0.0928515195846558,0.213191971182823
0,0.363888895430851,-0.0166666676506515,0.890277849459286,-0.125838235020638,-0.0821613743901253,0.0965167060494423
0,0.369444462963867,-0.0250000007162294,0.893055633225794,-0.0705549344420433,-0.148440256714821,0.0736092627048492
0,0.408333338447267,-0.027777779924251,0.913888914226889,0.000610865245107561,-0.191811680793762,0.0974330082535744
0,0.411111122213775,-0.0222222230277034,0.915277806110144,-0.05283984541893,-0.223576679825783,0.0901026204228401
0,0.412500014097029,-0.00555555575692586,0.927777833059431,-0.0980438739061356,-0.242818936705589,0.0894917547702789
0,0.416666689746791,-0.00555555575692586,0.92083337364316,-0.102014496922493,-0.152105450630188,0.00519235478714108
0,0.426388884305712,-0.00555555575692586,0.918055589876652,-0.0812450796365738,-0.0485637858510017,-0.0488692186772823
0,0.430555559955475,-0.0125000003581147,0.911111130460381,-0.126143679022789,-0.0720821022987366,-0.0381790772080422
0,0.430555559955475,-0.0194444453391775,0.879166714393253,-0.118813291192055,-0.141109868884087,-0.00610865233466029
0,0.447222262554524,-0.027777779924251,0.84583340644287,-0.0873537287116051,-0.152105450630188,-0.00519235478714108
0,0.44583337067127,-0.0541666679652478,0.848611190209378,-0.0424551330506802,-0.112093769013882,0.0152716310694814
0,0.430555559955475,-0.0583333375370279,0.849999984844916,-0.167682513594627,-0.219911485910416,0.0726929605007172
0,0.440277803138253,-0.0722222259796579,0.858333336144441,-0.17440202832222,-0.356134444475174,0.0690277740359306
0,0.461111132763207,-0.0902777839940679,0.863888903677457,0.0229074470698834,-0.164322748780251,0.0180205255746841
0,0.461111132763207,-0.0902777839940679,0.863888903677457,0.17989981174469,-0.0394008085131645,-0.0400116741657257
0,0.488888921804431,-0.0652777787193518,0.906944454810619,0.22204951941967,-0.0907134860754013,-0.137750118970871
0,0.50138890012986,-0.0513888902767219,0.926388941176177,0.229990765452385,-0.157908663153648,-0.24312436580658
0,0.50138890012986,-0.0513888902767219,0.926388941176177,0.102319926023483,-0.191506251692772,-0.279776275157929
0,0.531944472937593,-0.027777779924251,0.968055600426084,-0.108428582549095,-0.230907067656517,-0.206472456455231
0,0.558333370095563,-0.0194444453391775,0.976388951725609,-0.113926365971565,-0.144164204597473,-0.132557764649391
0,0.559722261978817,-0.0472222237439329,0.93750007624221,0.0167987942695618,-0.0250454749912024,-0.0351247526705265
0,0.550000018796039,-0.0388888906783549,0.933333400592447,-0.0268780700862408,-0.105068825185299,-0.00641408516094089
0,0.515277818962402,0.00972222266958873,0.916666697993398,-0.00824668072164059,-0.168293371796608,-0.00885754637420177
0,0.512500035195893,-0.0125000003581147,0.884722281926269,-0.0922406539320946,-0.196087747812271,0.0210748501121998
0,0.502777792013115,-0.0111111115138517,0.879166714393253,-0.193949714303017,-0.306654363870621,0.0736092627048492
0,0.509722251429385,-0.0138888899621255,0.847222298326124,-0.164322748780251,-0.244956970214844,0.0571159012615681
0,0.511111143312639,-0.0166666676506515,0.816666676894533,-0.0601702257990837,-0.200363799929619,0.0448985956609249
0,0.500000008246606,-0.0222222230277034,0.823611136310804,-0.0568104684352875,-0.33292156457901,0.0781907513737679
0,0.505555575779623,-0.0375000018340919,0.825000028194058,-0.0598647929728031,-0.367740869522095,0.0959058403968811
0,0.493055597454194,-0.0583333375370279,0.798611131036088,0.0839939713478088,-0.585819780826569,0.209221348166466
0,0.505555575779623,-0.0986111170596459,0.761111147435943,0.274278491735458,-1.19088184833527,0.276416510343552
0,0.525000013521323,-0.0819444448505077,0.762500039319197,0.318871647119522,-1.50486648082733,0.234572261571884
0,0.570833348420992,-0.026388891079988,0.787500044593913,0.261450320482254,-0.927293419837952,-0.0241291765123606
0,0.590277786162692,-0.00555555575692586,0.811111157985375,0.278859972953796,-0.224798411130905,-0.152105450630188
0,0.584722267253534,-0.00277777787846293,0.816666676894533,0.324064016342163,0.0913243517279625,-0.24312436580658
0,0.602777813111979,-0.0166666676506515,0.805555590452358,0.390953749418259,0.10048733651638,-0.225103840231896
0,0.625000034620187,-0.029166668768514,0.818055568777787,0.388510286808014,0.0167987942695618,-0.156381502747536
0,0.625000034620187,-0.0194444453391775,0.833333379493583,0.1795943826437,-0.0568104684352875,-0.0284052342176437
0,0.602777813111979,0.0194444453391775,0.841666730793107,-0.109955742955208,-0.20616702735424,0.0308486949652433
0,0.5930555699292,-0.0111111115138517,0.831944487610329,-0.0424551330506802,-0.280692577362061,0.0351247526705265
0,0.620833358970425,-0.0111111115138517,0.798611131036088,0.145385921001434,-0.346971452236175,0.00397062394768
0,0.613888899554154,0.0388888906783549,0.805555590452358,0.289855569601059,0.152716308832169,-0.0372627787292004
0,0.61944446708717,0.03194444645704,0.847222298326124,0.377820163965225,0.718072116374969,-0.126449108123779
0,0.627777818386695,0.0208333341834404,0.866666687443965,0.288633823394775,0.901331663131714,-0.101403631269932
0,0.623611142736933,0.0222222230277034,0.888888957576031,0.00122173049021512,0.898888230323792,-0.0540615729987621
0,0.608333332021137,0.029166668768514,0.894444525109048,-0.255647093057633,0.768163025379181,-0.00549778714776039
0,0.591666678045946,0.030555557612777,0.895833319744586,-0.443793594837189,0.69730269908905,0.0775798857212067
0,0.598611137462217,0.00972222266958873,0.847222298326124,-0.636826992034912,0.540310323238373,0.133474051952362
0,0.54722223502953,0.030555557612777,0.809722266102121,-0.540310323238373,0.565966665744781,-0.0668897479772568
0,0.508333359546131,0.0166666676506515,0.769444450111609,-0.447153359651566,0.477391183376312,-0.0650571510195732
0,0.47500000297189,0.00277777787846293,0.738888925927735,-0.484110713005066,0.0778853222727776,-0.0864374339580536
0,0.441666695021508,-0.0125000003581147,0.745833336720147,-0.410196006298065,0.064446285367012,-0.244346097111702
0,0.412500014097029,-0.0347222241455659,0.751388904253164,-0.0171042270958424,0.348498612642288,-0.485332429409027
0,0.379166681834717,-0.029166668768514,0.763888931202451,0.109344877302647,0.101403631269932,-0.728151381015778
0,0.355555568443255,-0.0416666683668809,0.766666714968959,0.104763388633728,-0.553138494491577,-0.955393254756927
0,0.358333352209763,-0.0236111118719664,0.766666714968959,0.17470745742321,-1.24280536174774,-1.25105202198029
0,0.370833354847121,0.00277777787846293,0.777777801411134,-0.0192422550171614,-1.65208506584168,-1.60596477985382
0,0.379166681834717,0.0250000007162294,0.761111147435943,-0.220216915011406,-1.93338847160339,-2.01249551773071
0,0.44583337067127,-0.00694444498106275,0.765277823085705,-0.445626199245453,-2.23882102966309,-2.11084485054016
0,0.461111132763207,0.00972222266958873,0.781944477060896,-0.510377883911133,-2.39184284210205,-2.77119016647339
0,0.56666667277123,-0.055555559848502,0.858333336144441,-0.87262099981308,-2.50271487236023,-2.98957443237305
0,0.637500012945616,-0.03194444645704,0.858333336144441,-1.6157386302948,-2.93551301956177,-3.04974484443665
0,0.763888931202451,0.0444444460554069,0.798611131036088,-1.62765049934387,-2.37596035003662,-2.75897288322449
0,0.763888931202451,0.0444444460554069,0.798611131036088,-1.58733332157135,-1.48409712314606,-2.46025967597961
0,0.976388951725609,0.0458333348996699,0.752777796136418,-1.31916344165802,-0.885754585266113,-1.82068383693695
0,1.03472221632685,0.111111119697004,0.740277817810989,-1.41201496124268,-0.656985580921173,-1.4001030921936
0,1.01527782720901,0.154166670830166,0.615277791437408,-1.22997713088989,-0.43401974439621,-1.05160450935364
0,0.977777843608863,0.138888896582264,0.504166683896369,-0.646906316280365,-0.365908294916153,-0.757167458534241
0,0.972222276075846,0.00555555575692586,0.433333343721983,-0.485943287611008,-0.376903861761093,-0.889725208282471
0,0.862500011794203,0.0208333341834404,0.444444478788016,-0.822835505008698,-1.10658240318298,-0.757167458534241
0,0.762500039319197,0.0875000002275597,0.573611132187501,-1.46332764625549,-1.18721663951874,-1.03419482707977
0,0.741666709694243,0.125000002061652,0.480555570504907,-2.46270322799683,-2.43643593788147,-0.974330067634583
0,0.89722221162784,0.03194444645704,0.443055586904762,-3.23239350318909,-3.34937405586243,-1.0989465713501
0,1.08194444310977,0.0180555564949145,0.344444457689151,-2.88053512573242,-2.86862325668335,-1.61024081707001
0,1.00416669214298,0.1194444466846,0.208333344873396,-3.61662769317627,-2.50882363319397,-1.58183550834656
0,0.848611190209378,0.120833338567854,0.377777789951463,-3.947105884552,-3.01462006568909,-0.842383146286011
0,0.820833352544296,0.100000002864918,0.430555559955475,-4.14349889755249,-5.13798761367798,-0.021685715764761
0,0.969444492309338,0.0986111170596459,0.365277787314105,-4.06683540344238,-5.93211221694946,0.426078498363495
0,1.0513889189259,0.0402777795226179,0.187500003092477,-3.8414261341095,-5.79833269119263,0.606894612312317
0,1.13472223742571,0.0652777787193518,0.226388890731841,-3.71314430236816,-5.17922115325928,1.01403629779816
0,1.17222222102586,-0.0680555564078778,0.120833338567854,-2.59892606735229,-2.45415115356445,1.21867620944977
0,1.10694449700835,-0.0694444482911319,-0.0722222259796579,-2.44590449333191,-2.72232103347778,0.983798503875732
0,1.10694449700835,-0.0694444482911319,-0.0722222259796579,-1.59863436222076,-2.25256562232971,0.693942904472351
0,1.29583340414004,-0.0986111170596459,-0.133333341205212,-1.06687617301941,-2.65420937538147,0.40775254368782
0,1.19722227492443,-0.0402777795226179,-0.272222225631511,-0.841466903686523,-2.89672303199768,0.275194793939591
0,1.12777777800944,0.0111111115138517,-0.341666673922643,-0.846353769302368,-3.26782369613648,0.194560587406159
0,1.03888889197661,0.0750000036681839,-0.406944470875941,-1.23516952991486,-4.16976594924927,0.253814518451691
0,0.972222276075846,0.0208333341834404,-0.330555563168539,-1.16339290142059,-3.01492547988892,0.461508691310883
0,0.89722221162784,-0.00972222266958873,-0.415277797863537,-0.890030682086945,-3.55248689651489,0.441655576229096
0,0.926388941176177,-0.00277777787846293,-0.508333359546131,-0.742201268672943,-3.59127688407898,0.430965423583984
0,0.986111194908388,-0.029166668768514,-0.531944472937593,-0.655458390712738,-3.6169331073761,-0.0592539273202419
0,0.913888914226889,-0.055555559848502,-0.659722234453824,-0.201585531234741,-3.63770246505737,-0.0122173046693206
0,0.666666693870094,-0.0222222230277034,-0.487500029921177,0.213497400283814,-2.71407437324524,0.150272846221924
0,0.572222240304247,0.03194444645704,-0.463888916529715,0.539394021034241,-1.23700213432312,0.372322380542755
0,0.536111148587356,0.0638888929140799,-0.462500024646461,1.04427409172058,-0.521373510360718,0.977995276451111
0,0.605555596878487,-0.0152777788063885,-0.606944488761742,1.09925198554993,-0.445320755243301,1.01831233501434
0,0.722222271952543,-0.112499999424294,-0.680555564078778,0.958142161369324,-0.527176678180695,0.782823801040649
0,0.77638890952788,-0.10972222781375,-0.700000001820477,0.509767055511475,-0.316428184509277,0.256563395261765
0,0.759722255552688,-0.0847222225390337,-0.647222256128395,0.215024560689926,0.0968221426010132,-0.0473420582711697
0,0.78333336894415,-0.104166672436698,-0.670833369519857,-0.0503963828086853,0.191811680793762,-0.00549778714776039
0,0.844444514559616,-0.177777784221628,-0.733333358394718,-0.231517925858498,0.159130394458771,-0.00702495034784079
0,0.830555595727074,-0.120833338567854,-0.70416667747024,-0.392786353826523,0.0833831056952477,0.0400116741657257
0,0.743055601577497,-0.033333335301303,-0.795833347269579,-0.908662080764771,-0.711047172546387,0.0675006061792374
0,0.800000022919342,-0.0486111125881959,-0.718055596302781,-1.02839159965515,-0.760221779346466,0.0131336031481624
0,0.68472223972854,-0.150000007336368,-0.68472223972854,-0.759000062942505,-0.116675265133381,0.113315500319004
0,0.651388931778157,-0.12777778582816,-0.656944450687316,-0.308486938476563,-0.409279704093933,0.318566232919693
0,0.591666678045946,-0.0916666697993398,-0.708333353120002,-0.213191971182823,-1.20096111297607,0.372016936540604
0,0.569444456537738,-0.10972222781375,-0.877777822509998,-0.477696627378464,-0.611781537532806,0.38576140999794
0,0.505555575779623,-0.136111112815755,-0.955555573476797,-0.815505087375641,0.0604756586253643,0.553138494491577
0,0.433333343721983,-0.176388892338373,-0.838888947026599,-0.795346558094025,0.92607170343399,1.18110799789429
0,0.759722255552688,-0.115277783190802,-0.723611115211939,-0.57604593038559,1.56503677368164,0.815199673175812
0,0.886111173809523,-0.0708333340964038,-0.702777785586986,-0.29596421122551,1.58091926574707,0.264810085296631
0,0.886111173809523,-0.0708333340964038,-0.702777785586986,-0.0488692186772823,1.53388261795044,-0.0326812900602817
0,0.775000017644626,-0.0722222259796579,-0.71111113688651,0.122783914208412,1.75318324565887,-0.0384845100343227
0,0.715277812536273,-0.033333335301303,-0.644444472361887,0.250760197639465,1.95415794849396,-0.0326812900602817
0,0.715277812536273,-0.033333335301303,-0.644444472361887,0.379041880369186,2.07510924339294,0.0546724386513233
0,0.715277812536273,-0.033333335301303,-0.644444472361887,0.0836885422468185,2.16337919235229,0.364381104707718
0,0.884722281926269,-0.144444451959316,-0.706944461236748,-0.0873537287116051,3.00331902503967,0.0937678143382072
0,0.834722271376837,-0.230555566381603,-0.536111148587356,0.215635433793068,3.80233073234558,0.176234617829323
0,0.834722271376837,-0.230555566381603,-0.536111148587356,0.217468023300171,3.009122133255,0.255341678857803
0,0.655555558804062,-0.0652777787193518,-0.42916666807222,0.490830212831497,2.56777215003967,1.02961337566376
0,0.655555558804062,-0.0652777787193518,-0.42916666807222,-0.126143679022789,1.1878274679184,1.06351637840271
0,0.655555558804062,-0.0652777787193518,-0.42916666807222,-0.144164204597473,-0.0748309940099716,1.22356307506561
0,1.29166672849028,-0.200000005729836,-0.554166694445801,-0.352163821458816,1.28312242031097,-0.621555387973785
0,1.11805563207438,-0.17361112072783,-0.423611149163062,-0.304821759462357,1.22845005989075,-0.614835858345032
0,1.00138890837647,-0.175000000455119,-0.377777789951463,-0.206777885556221,1.48837316036224,-0.651487767696381
0,1.00138890837647,-0.175000000455119,-0.377777789951463,-0.154243469238281,1.46027338504791,-0.625831425189972
0,0.959722249126559,-0.0583333375370279,-0.293055555256465,-0.129503428936005,1.26601827144623,-0.647822618484497
0,1.01388893532575,-0.0180555564949145,-0.298611122789481,-0.181121543049812,0.926682591438293,-0.422107875347138
0,1.01527782720901,-0.0583333375370279,-0.273611117514765,-0.113926365971565,0.902247965335846,-0.193338856101036
0,1.01527782720901,-0.0583333375370279,-0.273611117514765,-0.0934623852372169,0.829249560832977,-0.0687223374843597
0,1.00138890837647,-0.0666666706026059,-0.224999998848587,0.0910189226269722,1.16858518123627,-0.0565050356090069
0,1.00972225967599,-0.0875000002275597,-0.20138889761309,0.213497400283814,1.37658488750458,0.0140499006956816
0,1.02222228662528,-0.0777777813567098,-0.187500003092477,0.228463605046272,1.53479897975922,0.0021380283869803
0,1.02222228662528,-0.0777777813567098,-0.187500003092477,0.154548913240433,1.65849912166596,-0.03176499158144
0,1.00694447590948,-0.0972222251763917,-0.202777789496344,-0.0800233483314514,1.24219453334808,-0.0222965814173222
0,1.00555558402623,-0.0722222259796579,-0.130555557438704,-0.167987942695618,1.35764801502228,-0.0531452745199203
0,1.00416669214298,-0.0652777787193518,-0.13750000469901,-0.339946508407593,1.04702305793762,-0.120035022497177
0,1.00416669214298,-0.0652777787193518,-0.13750000469901,-0.35430184006691,0.663705110549927,-0.0485637858510017
0,1.04583335139288,-0.0708333340964038,-0.030555557612777,-0.334143280982971,0.450513124465942,-0.0354301854968071
0,1.03888889197661,-0.0777777813567098,-0.030555557612777,-0.260839462280273,0.312763005495071,-0.0131336031481624
0,1.02500007039179,-0.0708333340964038,-0.030555557612777,-0.107206851243973,0.277332812547684,-0.00641408516094089
0,1.02500007039179,-0.0708333340964038,-0.030555557612777,-0.0467311926186085,0.185703039169311,0.0198531206697226
0,1.02500007039179,-0.0708333340964038,-0.030555557612777,-0.0482583530247212,0.156686931848526,0.0100792767480016
0,1.0361111082101,-0.0680555564078778,0.00694444498106275,-0.0222965814173222,0.145080491900444,-0.00549778714776039
0,1.0361111082101,-0.0680555564078778,0.00694444498106275,-0.0277943685650826,0.251371055841446,0.0681114718317986
0,1.0125000434425,-0.0500000014324589,0.0138888899621255,-0.0662788823246956,0.0888808965682983,0.00488692196086049
0,1.01388893532575,-0.0625000010308258,-0.00277777787846293,-0.0149661982432008,0.0455094613134861,-0.0293215326964855
0,1.02500007039179,-0.055555559848502,-0.00694444498106275,-0.0873537287116051,-0.081855945289135,-0.0033597587607801
0,1.02500007039179,-0.055555559848502,-0.00694444498106275,-0.0809396430850029,-0.0314595587551594,0.0161879286170006
0,1.01944450285877,-0.0500000014324589,-0.00138888893923146,-0.0406225398182869,0.145996794104576,-0.0122173046693206
0,1.01666671909226,-0.0763888894734557,-0.0194444453391775,-0.0681114718317986,0.186924770474434,-0.0277943685650826
0,1.01666671909226,-0.0763888894734557,-0.0194444453391775,-0.0797179117798805,0.124921940267086,-0.0329867228865623
0,1.04305556762637,-0.0472222237439329,-0.0208333341834404,-0.122173048555851,-0.00763581553474069,-0.00671951752156019
0,1.03888889197661,-0.0416666683668809,0.029166668768514,-0.0601702257990837,0.249233022332191,0.0210748501121998
0,1.03888889197661,-0.0416666683668809,0.029166668768514,-0.108123145997524,0.168598800897598,0.0100792767480016
0,1.02638896227504,-0.0902777839940679,0.00694444498106275,-0.00671951752156019,0.16951510310173,0.00305432616733015
0,1.02916674604155,-0.0736111117849297,0.0250000007162294,0.0897971913218498,0.0937678143382072,0.00610865233466029
0,1.02916674604155,-0.0736111117849297,0.0250000007162294,0.128281697630882,-0.101709060370922,0.0369573459029198
0,1.03472221632685,-0.0458333348996699,0.027777779924251,0.135001212358475,-0.157908663153648,0.150883719325066
0,1.00833336779274,-0.0833333367337618,0.0347222241455659,0.203112691640854,-0.352163821458816,0.102930791676045
0,1.00833336779274,-0.0833333367337618,0.0347222241455659,0.181426972150803,-0.404392778873444,0.0748309940099716
0,1.02222228662528,-0.100000002864918,0.0111111115138517,0.173485726118088,-0.590401232242584,0.0436768643558025
0,1.02222228662528,-0.100000002864918,0.0111111115138517,0.218995183706284,-0.493884563446045,0.0189368221908808
0,1.02500007039179,-0.0819444448505077,-0.0180555564949145,0.244651526212692,-0.386372268199921,-0.0045814891345799
0,1.00555558402623,-0.101388894748172,-0.0541666679652478,0.263588339090347,-0.234266817569733,-0.0574213340878487
0,1.00555558402623,-0.101388894748172,-0.0541666679652478,0.34941491484642,-0.00977384392172098,-0.0974330082535744
0,1.02777785415829,-0.190277786858986,-0.0472222237439329,0.577878534793854,0.485637873411179,-0.058643065392971
0,1.01805561097552,-0.052777782159976,-0.0486111125881959,0.386983126401901,-0.0925460830330849,-0.112093769013882
0,1.01805561097552,-0.052777782159976,-0.0486111125881959,0.408057987689972,0.123394779860973,-0.16920967400074
0,1.03194452980806,-0.126388893944906,-0.00833333382532574,0.542448341846466,0.304210901260376,-0.260839462280273
0,1.05000002704265,-0.0958333393711199,-0.0791666671619817,0.422413319349289,-0.133168622851372,-0.402865618467331
0,0.955555573476797,-0.0152777788063885,-0.113888891307548,0.180510684847832,-0.350025773048401,-1.49784159660339
0,0.794444455386325,-0.0680555564078778,-0.0541666679652478,0.00183259579353034,-0.507629036903381,-1.97584366798401
0,0.976388951725609,0.0250000007162294,-0.0638888929140799,-0.0201585534960032,-0.187841057777405,-1.44378006458282
0,1.13055556177595,-0.00694444498106275,-0.0416666683668809,0.0781907513737679,-0.252898216247559,-1.02106130123138
0,1.0305556379248,0.0458333348996699,-0.0513888902767219,-0.0653625801205635,-0.476169466972351,-1.28770399093628
0,0.986111194908388,0.122222230451108,-0.0625000010308258,-0.368962615728378,-0.0244346093386412,-0.980438709259033
0,1.00000001649321,0.193055558469529,-0.0708333340964038,-0.405309081077576,0.401338458061218,-0.671951770782471
0,1.0361111082101,0.125000002061652,0.0152777788063885,-0.317955374717712,0.412944912910461,-0.764803290367126
0,1.09166668629255,0.126388893944906,-0.106944444047242,-0.027488935738802,0.694859206676483,-0.524733245372772
0,1.09444447005906,0.163888889701015,-0.0111111115138517,0.265420943498612,1.24463796615601,-0.159130394458771
0,1.02916674604155,-0.00138888893923146,0.055555559848502,-0.113926365971565,0.265115529298782,0.215635433793068
0,1.06805562152495,0.187500003092477,-0.0513888902767219,0.0629191175103188,0.162184715270996,0.440128415822983
0,0.959722249126559,0.0944444474878658,0.0625000010308258,0.121867619454861,-0.388815730810165,0.724486172199249
0,0.6319444454126,0.0944444474878658,0.0138888899621255,0.465173870325089,-0.569937288761139,2.52226257324219
0,1.11250006454136,0.0569444456537738,0.029166668768514,-0.0186313893646002,-0.344527989625931,1.39277279376984
0,1.52083340298863,0.00416666691266287,0.0180555564949145,-0.0106901414692402,-0.703105926513672,0.339946508407593
0,1.15833339944103,0.026388891079988,-0.0444444460554069,-0.0247400421649218,-0.580932855606079,0.266642689704895
0,1.04027778385987,0.0166666676506515,-0.0652777787193518,-0.120340451598167,-0.326812893152237,0.127976268529892
0,0.99583334084345,0.00694444498106275,-0.0694444482911319,-0.12675453722477,-0.02382374368608,0.101098194718361
0,0.89722221162784,0.030555557612777,-0.00555555575692586,0.176540061831474,0.156992360949516,0.286190360784531
0,0.833333379493583,0.0125000003581147,-0.0125000003581147,0.423940479755402,0.384234249591827,0.657901883125305
0,0.894444525109048,0.0541666679652478,-0.0625000010308258,0.305432617664337,0.514653980731964,1.05252087116241
0,1.02638896227504,0.0194444453391775,-0.0416666683668809,0.118813291192055,0.583987176418304,1.15972769260406
0,1.02083339474202,0.0250000007162294,-0.027777779924251,0.0210748501121998,0.726013362407684,0.907134890556335
0,1.2972222960233,-0.118055554801345,-0.030555557612777,0.213497400283814,0.796568274497986,0.226631000638008
0,1.18055557232538,-0.100000002864918,0.0138888899621255,0.192422553896904,0.756862044334412,0.15851953625679
0,0.976388951725609,-0.0750000036681839,0.0361111129898289,-0.0442877300083637,0.790154218673706,0.147829383611679
0,0.78333336894415,-0.0944444474878658,0.0930555616825939,-0.0241291765123606,0.701884150505066,0.0268780700862408
0,0.855555552377932,-0.0486111125881959,0.0930555616825939,-0.00397062394768,0.80481493473053,0.222965821623802
0,1.10277782135859,-0.118055554801345,0.0833333367337618,0.0748309940099716,0.56657749414444,-0.0616973899304867
0,1.17638889667562,-0.0638888929140799,0.0791666671619817,-0.0555887371301651,0.29657506942749,0.171653136610985
0,1.05555559457566,-0.0625000010308258,0.100000002864918,-0.183870434761047,0.0757472887635231,0.121256753802299
0,1.08750001064279,-0.0791666671619817,0.106944444047242,-0.110261179506779,0.0253509078174829,0.0849102661013603
0,1.07638897282447,-0.0819444448505077,0.0944444474878658,-0.155770644545555,-0.00488692196086049,0.118813291192055
0,1.03750000009336,-0.0930555616825939,0.104166672436698,-0.208305045962334,-0.213802829384804,-0.145691365003586
0,0.968055600426084,-0.0986111170596459,0.112499999424294,-0.151494577527046,-0.267253547906876,-0.167377084493637
0,0.976388951725609,-0.0708333340964038,0.10972222781375,-0.168598800897598,-0.468533635139465,-0.154548913240433
0,1.04027778385987,-0.0819444448505077,0.0597222233422998,-0.148440256714821,-0.300240278244019,-0.197920337319374
0,0.969444492309338,-0.0777777813567098,0.0861111144222878,-0.141109868884087,-0.373849540948868,0.145996794104576
0,1.04444445950963,-0.0513888902767219,0.0541666679652478,-0.101403631269932,-0.288939267396927,0.150272846221924
0,0.976388951725609,-0.0583333375370279,0.0388888906783549,-0.0106901414692402,-0.120645888149738,0.240986332297325
0,1.03750000009336,-0.0847222225390337,0.029166668768514,0.0122173046693206,0.03176499158144,0.186924770474434
0,1.12499999424293,-0.0916666697993398,0.027777779924251,0.0378736443817616,0.266031801700592,0.0424551330506802
0,0.970833384192592,-0.101388894748172,0.029166668768514,-0.0714712366461754,0.438295811414719,-0.0149661982432008
0,1.06388894587519,-0.108333335930496,0.0722222259796579,-0.081855945289135,0.328950941562653,-0.233350530266762
0,1.05555559457566,-0.0972222251763917,0.101388894748172,-0.0604756586253643,-0.104763388633728,-0.178678080439568
0,1.05555559457566,-0.0833333367337618,0.0972222251763917,-0.0280998013913631,-0.289855569601059,-0.0842994004487991
0,1.04027778385987,-0.0972222251763917,0.0791666671619817,0.0293215326964855,-0.356134444475174,-0.090408056974411
0,1.03750000009336,-0.0986111170596459,0.0750000036681839,0.0394008085131645,-0.499076902866364,-0.078801617026329
0,1.0305556379248,-0.0805555590452358,0.0638888929140799,0.18020524084568,-0.398589581251144,-0.0745255574584007
0,1.04027778385987,-0.0611111152255539,0.0166666676506515,0.200363799929619,-0.421497017145157,-0.117896988987923
0,1.05416670269241,-0.0611111152255539,0.00277777787846293,0.159130394458771,-0.206777885556221,-0.0616973899304867
0,1.05694448645892,-0.0847222225390337,-0.0375000018340919,0.127976268529892,0.0045814891345799,-0.0445931628346443
0,1.04305556762637,-0.0777777813567098,0.00138888893923146,0.209221348166466,0.248927593231201,-0.00519235478714108
0,1.02500007039179,-0.0819444448505077,0.0250000007162294,0.169820532202721,0.406530827283859,0.058643065392971
0,1.03888889197661,-0.0819444448505077,0.033333335301303,0.0699440687894821,0.314290165901184,0.0244346093386412
0,1.0513889189259,-0.0875000002275597,0.026388891079988,0.0335975885391235,0.28496864438057,0.00763581553474069
0,1.02083339474202,-0.0722222259796579,0.033333335301303,-0.00427605677396059,0.310014098882675,-0.0335975885391235
0,1.0125000434425,-0.0652777787193518,0.0569444456537738,0.0412334054708481,0.337197601795196,-0.00519235478714108
0,1.01944450285877,-0.0611111152255539,0.0486111125881959,0.0849102661013603,0.470366239547729,-0.00397062394768
0,1.02222228662528,-0.0513888902767219,0.0680555564078778,0.0403171069920063,0.710741698741913,0.0552833043038845
0,1.02222228662528,-0.0625000010308258,0.116666675074056,-0.0436768643558025,0.335365027189255,0.013744467869401
0,1.0361111082101,-0.0666666706026059,0.102777780553444,-0.0647517144680023,0.206777885556221,-0.0354301854968071
0,1.0305556379248,-0.0763888894734557,0.0986111170596459,-0.145691365003586,0.254730820655823,-0.0473420582711697
0,1.03194452980806,-0.0847222225390337,0.104166672436698,-0.135001212358475,0.314595609903336,-0.0665843114256859
0,1.02916674604155,-0.0625000010308258,0.101388894748172,-0.160962998867035,0.28008171916008,-0.0571159012615681
0,0.998611124609959,-0.0388888906783549,0.143055560076062,-0.0302378293126821,0.146607652306557,0.0259617734700441
0,0.998611124609959,-0.0986111170596459,0.152777778946911,-0.0794124826788902,-0.00519235478714108,0.00855211354792118
0,0.979166735492117,-0.0861111144222878,0.148611115453114,-0.135306656360626,-0.0885754600167274,-0.0372627787292004
0,1.00000001649321,-0.052777782159976,0.140277788465518,-0.144469633698463,-0.148745685815811,-0.0360410511493683
0,1.04166667574312,-0.0652777787193518,0.144444451959316,0.120645888149738,-0.184786736965179,0.0467311926186085
0,1.05833337834217,-0.0750000036681839,0.100000002864918,0.11087204515934,-0.265726387500763,0.0351247526705265
0,1.08194444310977,-0.0902777839940679,0.0847222225390337,0.0418442711234093,-0.275194793939591,-0.0235183127224445
0,1.02500007039179,-0.0805555590452358,0.0930555616825939,-0.0574213340878487,-0.330478101968765,-0.058643065392971
0,0.986111194908388,-0.0875000002275597,0.102777780553444,-0.021685715764761,-0.0952949747443199,-0.0940732508897781
0,0.986111194908388,-0.0875000002275597,0.102777780553444,-0.00733038317412138,0.140499010682106,-0.129197999835014
0,1.04166667574312,-0.0930555616825939,0.108333335930496,0.0284052342176437,-0.0687223374843597,-0.131336033344269
0,1.00000001649321,-0.0583333375370279,0.0777777813567098,-0.0348193198442459,-0.131641462445259,-0.081855945289135
0,1.00000001649321,-0.0583333375370279,0.0777777813567098,0.0849102661013603,-0.0189368221908808,0.0656680166721344
0,1.00000001649321,-0.0666666706026059,0.0750000036681839,0.181732416152954,0.109955742955208,0.0442877300083637
0,1.0305556379248,-0.0805555590452358,0.0777777813567098,0.114842668175697,0.349720358848572,-0.0390953756868839
0,1.0305556379248,-0.0805555590452358,0.0777777813567098,0.0302378293126821,0.251676470041275,-0.126449108123779
0,1.01944450285877,-0.055555559848502,0.0819444448505077,-0.0693332031369209,0.316122770309448,-0.0265726372599602
0,1.0125000434425,-0.0847222225390337,0.156944454596674,-0.0329867228865623,0.271224170923233,0.027488935738802
0,1.0125000434425,-0.0847222225390337,0.156944454596674,0.0409279726445675,0.189673662185669,-0.0870482996106148
0,1.03472221632685,-0.0819444448505077,0.151388899219622,0.0882700309157372,0.136833816766739,-0.119118720293045
0,1.00972225967599,-0.0166666676506515,0.136111112815755,-0.0598647929728031,-0.0974330082535744,-0.0589484944939613
0,1.00972225967599,-0.0166666676506515,0.136111112815755,-0.0812450796365738,-0.228463605046272,0.0433714315295219
0,1.02777785415829,-0.0444444460554069,0.154166670830166,0.0937678143382072,-0.260534018278122,-0.011606439948082
0,1.04583335139288,-0.0500000014324589,0.12777778582816,0.127365410327911,-0.273667633533478,-0.05283984541893
0,1.0333333244436,-0.0486111125881959,0.1194444466846,0.0247400421649218,-0.199752941727638,-0.0723875313997269
0,1.04583335139288,-0.0513888902767219,0.0541666679652478,-0.140193566679955,0.0397062413394451,-0.0305432621389627
0,1.03888889197661,-0.0472222237439329,0.0583333375370279,-0.00366519158706069,0.173485726118088,0.0027488935738802
0,1.01111115155925,-0.0486111125881959,0.13750000469901,0.078801617026329,0.0751364231109619,-0.0507018156349659
0,0.997222232726705,-0.0416666683668809,0.125000002061652,0.00244346098043024,0.0128281703218818,-0.070249505341053
0,1.03750000009336,-0.0416666683668809,0.055555559848502,-0.0977384373545647,0.0616973899304867,-0.00855211354792118
0,1.0125000434425,-0.0541666679652478,0.111111119697004,0.0219911485910416,0.164933621883392,0.0109955742955208
0,1.04305556762637,-0.0625000010308258,0.0972222251763917,0.0693332031369209,0.22174409031868,0.00794124789535999
0,1.02222228662528,-0.0458333348996699,0.108333335930496,0.0678060427308083,0.0861319974064827,0.015577063895762
0,1.00277780025972,-0.0458333348996699,0.1194444466846,0.0406225398182869,0.070249505341053,0.0244346093386412
0,1.01666671909226,-0.0180555564949145,0.0583333375370279,-0.213802829384804,0.237626582384109,0.0131336031481624
0,1.01666671909226,-0.0180555564949145,0.0583333375370279,-0.0965167060494423,-0.0305432621389627,0.00916297826915979
0,0.969444492309338,-0.0486111125881959,0.200000005729836,0.0882700309157372,-0.508850753307343,-0.0348193198442459
0,1.03194452980806,-0.0402777795226179,0.148611115453114,0.197614908218384,-0.689972281455994,-0.0409279726445675
0,1.05833337834217,-0.0416666683668809,0.100000002864918,0.196393176913261,-0.485332429409027,-0.0262672062963247
0,1.08194444310977,-0.0444444460554069,0.0541666679652478,-0.00763581553474069,-0.0360410511493683,-0.0299323964864016
0,1.05972227022542,-0.0569444456537738,0.0430555572111439,0.0998764708638191,0.284663200378418,-0.112093769013882
0,1.0513889189259,-0.0416666683668809,0.0625000010308258,-0.0372627787292004,0.140499010682106,-0.166155353188515
0,1.00555558402623,-0.0416666683668809,0.104166672436698,-0.12675453722477,-0.0745255574584007,-0.140499010682106
0,0.98888888142718,-0.0250000007162294,0.111111119697004,-0.309403240680695,-0.427605658769607,-0.147218525409698
0,0.958333357243305,-0.00277777787846293,0.0777777813567098,-0.0974330082535744,-0.371100634336472,0.0360410511493683
0,1.04861113515939,-0.029166668768514,0.113888891307548,0.0458148941397667,-0.534201681613922,-0.155465200543404
0,1.10555560512509,-0.0444444460554069,0.0583333375370279,0.00702495034784079,-0.551000475883484,-0.265115529298782
0,1.0305556379248,-0.033333335301303,0.0472222237439329,-0.0726929605007172,-0.492968261241913,-0.192422553896904
0,1.01805561097552,-0.033333335301303,0.0236111118719664,0.0143553335219622,-0.128587126731873,-0.0949895456433296
0,0.958333357243305,-0.027777779924251,0.0583333375370279,0.212275668978691,0.123089343309402,0.0229074470698834
0,0.938888968125464,-0.0152777788063885,0.0847222225390337,0.314595609903336,0.125532805919647,0.0861319974064827
0,1.03888889197661,-0.026388891079988,0.03194444645704,0.27458393573761,0.16890424489975,-0.0189368221908808
0,1.07916665934326,-0.0347222241455659,0.0152777788063885,0.123700208961964,0.111788339912891,0.0183259565383196
0,1.05833337834217,-0.03194444645704,0.0416666683668809,0.01191187184304,0.0424551330506802,0.0775798857212067
0,1.02500007039179,-0.0222222230277034,0.0444444460554069,-0.00183259579353034,0.160046696662903,0.0565050356090069
0,1.00972225967599,-0.0486111125881959,0.0458333348996699,0.00794124789535999,0.26419922709465,-0.011606439948082
0,1.00555558402623,-0.03194444645704,0.0750000036681839,0.0800233483314514,0.335975885391235,0.0146607663482428
0,1.02222228662528,-0.0180555564949145,0.104166672436698,0.0708603709936142,-0.0687223374843597,0.100792765617371
0,1.0361111082101,-0.033333335301303,0.0902777839940679,0.0754418596625328,-0.175929188728332,0.0668897479772568
0,1.01944450285877,-0.0541666679652478,0.0722222259796579,0.0729983970522881,-0.183259576559067,0.00794124789535999
0,1.00000001649321,-0.0402777795226179,0.0708333340964038,0.117591559886932,-0.0821613743901253,0.0409279726445675
0,1.03750000009336,-0.0361111129898289,0.0444444460554069,0.10567969083786,-0.0662788823246956,0.0445931628346443
0,1.0361111082101,-0.0402777795226179,0.0486111125881959,0.194255143404007,0.0409279726445675,0.113926365971565
0,1.01527782720901,-0.029166668768514,0.0430555572111439,0.175929188728332,0.0980438739061356,0.111482910811901
0,1.02222228662528,-0.0208333341834404,0.0500000014324589,0.0106901414692402,0.149051114916802,0.0146607663482428
0,1.02916674604155,-0.03194444645704,0.052777782159976,-0.0910189226269722,0.140499010682106,0.0186313893646002
0,1.02916674604155,-0.0402777795226179,0.0666666706026059,-0.138055548071861,0.124005645513535,0.0125227374956012
0,1.00555558402623,-0.0416666683668809,0.0888888921108138,-0.10048733651638,0.124616511166096,-0.0122173046693206
0,1.00416669214298,-0.0361111129898289,0.0916666697993398,-0.147523954510689,0.0183259565383196,-0.0106901414692402
0,1.01944450285877,-0.033333335301303,0.0819444448505077,-0.277638256549835,-0.0601702257990837,-0.0363464802503586
0,1.0513889189259,-0.055555559848502,0.0652777787193518,-0.281608879566193,0.013744467869401,-0.0259617734700441
0,1.07500008094122,-0.0638888929140799,0.0416666683668809,-0.0827722400426865,0.358883321285248,-0.0204639863222837
0,1.06250005399193,-0.0680555564078778,0.030555557612777,0.0580321997404099,0.719904720783234,0.00946841109544039
0,1.06111116210868,-0.0597222233422998,0.0513888902767219,0.144469633698463,1.02594816684723,0.0977384373545647
0,1.01527782720901,-0.0111111115138517,0.101388894748172,0.0277943685650826,0.806953012943268,-0.0299323964864016
0,1.00972225967599,-0.0458333348996699,0.168055565350778,-0.0458148941397667,0.541837453842163,-0.0928515195846558
0,1.04166667574312,-0.027777779924251,0.169444445078067,-0.0045814891345799,0.236099421977997,0.0720821022987366
0,1.00277780025972,-0.00972222266958873,0.170833336961321,-0.0305432621389627,-0.0345138870179653,0.150578290224075
0,0.987499989543926,-0.029166668768514,0.179166676104882,-0.0140499006956816,-0.218689754605293,0.078801617026329
0,0.987499989543926,-0.029166668768514,0.179166676104882,0.22724187374115,0.122173048555851,0.0879645943641663
0,0.99583334084345,-0.0500000014324589,0.152777778946911,0.0986547395586967,0.0427605658769607,0.00946841109544039
0,0.993055557076942,-0.0458333348996699,0.13750000469901,0.0171042270958424,0.0329867228865623,-0.0171042270958424
0,0.993055557076942,-0.0458333348996699,0.13750000469901,-0.029626963660121,0.117286130785942,-0.00122173049021512
0,1.00694447590948,-0.029166668768514,0.163888889701015,0.0430659987032413,0.0549778714776039,0.0131336031481624
0,0.997222232726705,-0.0208333341834404,0.166666673467524,0.0284052342176437,-0.104763388633728,0.0293215326964855
0,0.997222232726705,-0.0208333341834404,0.166666673467524,0.0598647929728031,-0.0021380283869803,0.0592539273202419
0,1.04583335139288,-0.0486111125881959,0.12777778582816,-0.0650571510195732,0.0244346093386412,0.02382374368608
0,1.02083339474202,-0.0444444460554069,0.144444451959316,-0.0549778714776039,0.0461203269660473,-0.011606439948082
0,1.02083339474202,-0.0444444460554069,0.144444451959316,-0.0161879286170006,0.04764748737216,-0.015577063895762
0,1.01805561097552,-0.03194444645704,0.148611115453114,-0.00794124789535999,0.0485637858510017,-0.0256563406437635
0,1.00277780025972,-0.033333335301303,0.16527778158427,0.00488692196086049,-0.0357356183230877,0.015577063895762
0,1.01805561097552,-0.0361111129898289,0.148611115453114,0.00366519158706069,0.00794124789535999,0.0198531206697226
0,1.02222228662528,-0.0388888906783549,0.13750000469901,-0.0226020142436027,0.0192422550171614,0.0177150927484035
0,1.02222228662528,-0.0430555572111439,0.143055560076062,-0.0250454749912024,0.00916297826915979,0.027488935738802
0,1.0125000434425,-0.03194444645704,0.15555556271342,-0.00122173049021512,-0.0482583530247212,0.134695783257484
0,1.0125000434425,-0.0513888902767219,0.115277783190802,-0.139582708477974,-0.0308486949652433,0.0433714315295219
0,1.01805561097552,-0.0750000036681839,0.154166670830166,-0.0772744566202164,0.0103847095742822,-0.0464257597923279
0,1.00972225967599,-0.0819444448505077,0.143055560076062,-0.0830776765942574,0.115453533828259,-0.133474051952362
0,1.01527782720901,-0.0750000036681839,0.148611115453114,0.00366519158706069,0.0247400421649218,-0.0937678143382072
0,1.02916674604155,-0.0500000014324589,0.14722222356986,-0.0226020142436027,-0.0262672062963247,-0.0589484944939613
0,1.02222228662528,-0.0361111129898289,0.148611115453114,0.0140499006956816,-0.103847093880177,-0.0345138870179653
0,1.02222228662528,-0.03194444645704,0.122222230451108,-0.0149661982432008,0.00366519158706069,-0.0143553335219622
0,1.02222228662528,-0.0416666683668809,0.12916666555545,0.00244346098043024,0.0864374339580536,-0.0128281703218818
0,1.01527782720901,-0.0361111129898289,0.156944454596674,-0.027488935738802,-0.00855211354792118,-0.017409659922123
0,1.00138890837647,-0.029166668768514,0.15555556271342,-0.0690277740359306,-0.0772744566202164,-0.00702495034784079
0,1.02222228662528,-0.0388888906783549,0.141666668192807,-0.104763388633728,0.019547687843442,-0.0543670058250427
0,1.01944450285877,-0.0500000014324589,0.154166670830166,-0.206777885556221,-0.108734011650086,-0.109039448201656
0,1.01527782720901,-0.0416666683668809,0.17361112072783,-0.156992360949516,-0.262366622686386,-0.123089343309402
0,1.0125000434425,-0.0222222230277034,0.166666673467524,-0.0781907513737679,-0.196087747812271,-0.0616973899304867
0,1.02500007039179,-0.0111111115138517,0.143055560076062,-0.0339030213654041,-0.0232128798961639,-0.0555887371301651
0,1.01805561097552,-0.0125000003581147,0.13750000469901,0.011606439948082,0.117896988987923,-0.00122173049021512
0,1.02222228662528,-0.033333335301303,0.125000002061652,-0.101403631269932,0.221133217215538,-0.0959058403968811
0,1.0305556379248,-0.0361111129898289,0.136111112815755,-0.107817716896534,0.207083314657211,-0.0977384373545647
0,1.02777785415829,-0.03194444645704,0.123611110178398,-0.0531452745199203,0.366213709115982,-0.0500909499824047
0,1.0361111082101,-0.0444444460554069,0.111111119697004,-0.105374254286289,0.333532422780991,-0.098960168659687
0,1.0125000434425,-0.0569444456537738,0.156944454596674,-0.101709060370922,0.100792765617371,-0.145691365003586
0,0.998611124609959,-0.0583333375370279,0.18333333959868,-0.0525344125926495,-0.151189148426056,-0.132557764649391
0,0.975000059842355,-0.0569444456537738,0.180555567988136,0.015577063895762,-0.241902634501457,-0.117896988987923
0,0.962500032893068,-0.029166668768514,0.158333334323963,0.0403171069920063,-0.171958565711975,-0.0726929605007172
0,1.0333333244436,-0.0194444453391775,0.108333335930496,0.0113010071218014,-0.118813291192055,0.0232128798961639
0,0.987499989543926,-0.0750000036681839,0.216666671860991,0.0733038261532784,-0.117286130785942,-0.193338856101036
0,1.0513889189259,-0.055555559848502,0.108333335930496,0.154243469238281,0.431270867586136,-0.111788339912891
0,1.07916665934326,-0.0486111125881959,0.144444451959316,0.142637029290199,0.281608879566193,0.0021380283869803
0,1.0361111082101,-0.0347222241455659,0.134722233088466,0.223882108926773,0.512515962123871,0.0387899428606033
0,0.986111194908388,-0.0194444453391775,0.202777789496344,0.193338856101036,0.0311541277915239,0.0641408488154411
0,0.981944519258625,-0.0111111115138517,0.187500003092477,0.109955742955208,-0.16371189057827,0.103847093880177
0,1.00138890837647,-0.0222222230277034,0.166666673467524,0.106901414692402,-0.121256753802299,0.136833816766739
0,0.973611167959101,0.00416666691266287,0.187500003092477,0.214413702487946,-0.128587126731873,0.220216915011406
0,0.976388951725609,-0.026388891079988,0.161111118090472,0.204028993844986,-0.175318330526352,0.0500909499824047
0,1.02361117850853,-0.0472222237439329,0.175000000455119,0.316733628511429,-0.149051114916802,0.0378736443817616
0,0.976388951725609,-0.0375000018340919,0.226388890731841,0.270918726921081,-0.693942904472351,0.166155353188515
0,1.02777785415829,-0.0250000007162294,0.12777778582816,0.194560587406159,-0.674700677394867,0.177150920033455
0,1.04027778385987,-0.0250000007162294,0.0763888894734557,0.256868839263916,-0.437379509210587,0.207388743758202
0,1.06805562152495,-0.0430555572111439,0.052777782159976,0.143247902393341,0.021685715764761,0.145385921001434
0,1.05000002704265,-0.0250000007162294,0.0944444474878658,0.169820532202721,0.228769034147263,0.0290160998702049
0,1.03750000009336,-0.026388891079988,0.0986111170596459,0.0934623852372169,0.288939267396927,-0.00733038317412138
0,1.06388894587519,-0.026388891079988,0.106944444047242,0.148440256714821,0.5128213763237,-0.0247400421649218
0,1.00000001649321,-0.0222222230277034,0.120833338567854,-0.0513126812875271,0.35491269826889,-0.0323758572340012
0,1.00138890837647,-0.0125000003581147,0.140277788465518,-0.233961388468742,0.0183259565383196,-0.0366519130766392
0,1.00000001649321,-0.0416666683668809,0.175000000455119,0.0207694191485643,0.209221348166466,-0.0329867228865623
0,0.952777789710289,-0.00416666691266287,0.169444445078067,-0.0488692186772823,-0.116675265133381,0.0433714315295219
0,0.98888888142718,-0.0138888899621255,0.161111118090472,-0.0833831056952477,-0.0171042270958424,0.0299323964864016
0,1.02361117850853,-0.0250000007162294,0.154166670830166,0.0235183127224445,0.0464257597923279,0.0342084541916847
0,1.01111115155925,-0.0416666683668809,0.138888896582264,-0.0607810914516449,0.0229074470698834,0.0394008085131645
0,1.02500007039179,-0.0680555564078778,0.141666668192807,-0.0247400421649218,0.0345138870179653,-0.000305432622553781
0,1.02916674604155,-0.0611111152255539,0.14722222356986,-0.0540615729987621,0.0339030213654041,-0.0455094613134861
0,1.00000001649321,-0.0347222241455659,0.159722226207217,-0.135917514562607,-0.0800233483314514,-0.0626136884093285
0,0.975000059842355,-0.027777779924251,0.175000000455119,-0.150272846221924,-0.111788339912891,-0.0705549344420433
0,1.04027778385987,-0.0652777787193518,0.233333350148112,0.341779112815857,0.0830776765942574,-0.00794124789535999
0,1.00694447590948,-0.0208333341834404,0.0625000010308258,0.257174253463745,-0.382707089185715,0.218078896403313
0,1.00416669214298,-0.0222222230277034,0.108333335930496,-0.0531452745199203,-0.090408056974411,0.0262672062963247
0,1.06527783775844,-0.029166668768514,0.10972222781375,0.0458148941397667,-0.0415388382971287,0.00397062394768
0,1.04305556762637,-0.027777779924251,0.115277783190802,-0.104152522981167,0.0100792767480016,0.00427605677396059
0,1.04166667574312,-0.0583333375370279,0.112499999424294,-0.118507854640484,-0.0403171069920063,-0.0647517144680023
0,1.0125000434425,-0.0472222237439329,0.170833336961321,-0.125227376818657,-0.0842994004487991,-0.0830776765942574
0,0.983333411141879,0.0152777788063885,0.252777787889811,-0.18539759516716,-0.418748140335083,-0.0287106670439243
0,0.959722249126559,0.0111111115138517,0.0694444482911319,-0.129808858036995,-0.287106662988663,-0.0458148941397667
0,0.993055557076942,-0.00277777787846293,0.123611110178398,-0.172263994812965,-0.168598800897598,0.000916297896765172
0,0.990277773310434,-0.00277777787846293,0.125000002061652,-0.152105450630188,-0.111482910811901,0.0293215326964855
0,1.00138890837647,-0.0236111118719664,0.138888896582264,-0.171042263507843,-0.0995710343122482,0.0412334054708481
0,0.993055557076942,-0.0125000003581147,0.161111118090472,-0.271835029125214,-0.332005262374878,0.0354301854968071
0,1.03472221632685,-0.0152777788063885,0.0986111170596459,-0.46547931432724,-0.350025773048401,0.10048733651638
0,1.04861113515939,-0.03194444645704,0.111111119697004,-0.30207285284996,0.313679307699203,-0.131641462445259
0,1.03750000009336,-0.033333335301303,0.130555557438704,0.0397062413394451,0.301767438650131,-0.0647517144680023
0,1.00277780025972,-0.0416666683668809,0.150000007336368,0.0937678143382072,0.180816113948822,-0.0222965814173222
0,0.987499989543926,-0.0111111115138517,0.140277788465518,0.196698606014252,-0.115758962929249,0.0757472887635231
0,1.02083339474202,-0.0138888899621255,0.108333335930496,0.0103847095742822,-0.164933621883392,0.0751364231109619
0,1.04583335139288,-0.0500000014324589,0.0875000002275597,-0.195476874709129,-0.0503963828086853,0.0271835029125214
0,1.03194452980806,-0.055555559848502,0.10972222781375,-0.134390354156494,0.102930791676045,-0.0106901414692402
0,0.987499989543926,-0.0486111125881959,0.166666673467524,0.0222965814173222,0.00519235478714108,-0.00397062394768
0,1.01527782720901,-0.0388888906783549,0.12916666555545,0.081855945289135,-0.0720821022987366,0.0204639863222837
0,1.0333333244436,-0.0416666683668809,0.115277783190802,0.0534507073462009,-0.0910189226269722,0.0503963828086853
0,1.02916674604155,-0.0513888902767219,0.105555564319952,0.109650313854218,-0.0781907513737679,0.0558941699564457
0,1.01805561097552,-0.0472222237439329,0.105555564319952,0.117896988987923,-0.0314595587551594,0.0534507073462009
0,1.01805561097552,-0.0472222237439329,0.105555564319952,-0.0021380283869803,0.152105450630188,0.000916297896765172
0,1.04583335139288,-0.030555557612777,0.0722222259796579,-0.0849102661013603,0.33292156457901,-0.0125227374956012
0,1.04166667574312,-0.0402777795226179,0.113888891307548,-0.166766211390495,0.293826192617416,0.0424551330506802
0,1.04166667574312,-0.0402777795226179,0.113888891307548,-0.103541657328606,0.181121543049812,0.0436768643558025
0,1.00416669214298,-0.0583333375370279,0.162500009973726,0.0256563406437635,0.0473420582711697,0.0256563406437635
0,1.01388893532575,-0.0597222233422998,0.13750000469901,0.05283984541893,-0.00671951752156019,-0.00244346098043024
0,1.01388893532575,-0.0597222233422998,0.13750000469901,0.0250454749912024,-0.0708603709936142,-0.0122173046693206
0,1.00277780025972,-0.0444444460554069,0.131944449321958,0.0183259565383196,-0.152410879731178,0.0045814891345799
5,1.00277780025972,-0.055555559848502,0.150000007336368,0.136833816766739,-0.271835029125214,0.0852157026529312
5,1.00277780025972,-0.055555559848502,0.150000007336368,0.368351757526398,-0.32742378115654,0.150578290224075
5,1.02222228662528,-0.0611111152255539,0.120833338567854,0.405003666877747,-0.29107728600502,0.136222943663597
5,1.0333333244436,-0.0680555564078778,0.0722222259796579,0.314290165901184,-0.215330004692078,0.100792765617371
5,1.0333333244436,-0.0680555564078778,0.0722222259796579,0.133779495954514,-0.0894917547702789,0.076052725315094
5,1.03194452980806,-0.0583333375370279,0.0541666679652478,0.0748309940099716,0.12675453722477,0.00244346098043024
5,1.04861113515939,-0.0500000014324589,0.0125000003581147,0.16951510310173,0.377820163965225,-0.0027488935738802
5,1.00694447590948,-0.055555559848502,0.0861111144222878,-0.155159771442413,-0.0726929605007172,0.00702495034784079
5,0.969444492309338,-0.0402777795226179,0.131944449321958,-0.428827404975891,-0.0656680166721344,-0.0812450796365738
5,1.02083339474202,-0.0430555572111439,0.104166672436698,-0.503047525882721,0.0968221426010132,-0.107206851243973
5,1.0513889189259,-0.0513888902767219,0.0930555616825939,-0.365602850914002,0.251981914043427,-0.0513126812875271
5,1.10277782135859,-0.0472222237439329,0.10972222781375,0.0262672062963247,0.277638256549835,0.0360410511493683
5,1.06388894587519,-0.0430555572111439,0.120833338567854,0.0659734457731247,0.0769690200686455,0.03176499158144
5,1.01805561097552,-0.0166666676506515,0.140277788465518,-0.0326812900602817,-0.0867428630590439,0.0329867228865623
5,0.952777789710289,-0.0472222237439329,0.212499996211229,0.0204639863222837,-0.0766635909676552,0.0045814891345799
5,0.940277860008718,-0.0888888921108138,0.179166676104882,-0.122173048555851,-0.0910189226269722,-0.0256563406437635
5,1.02916674604155,-0.0916666697993398,0.13750000469901,-0.03176499158144,0.0027488935738802,-0.0329867228865623
5,1.00972225967599,-0.0750000036681839,0.156944454596674,0.195476874709129,-0.131641462445259,0.00366519158706069
5,1.01388893532575,-0.0611111152255539,0.138888896582264,0.262977480888367,-0.151494577527046,0.0455094613134861
5,1.03750000009336,-0.0513888902767219,0.104166672436698,0.266031801700592,-0.117896988987923,0.0739146918058395
5,1.0305556379248,-0.0708333340964038,0.0930555616825939,0.201280102133751,-0.102319926023483,0.0445931628346443
5,1.03194452980806,-0.0416666683668809,0.0819444448505077,0.127670839428902,-0.0965167060494423,0.0439822971820831
5,1.00555558402623,-0.0513888902767219,0.111111119697004,0.0366519130766392,-0.160352125763893,0.02382374368608
5,1.01944450285877,-0.0569444456537738,0.0722222259796579,-0.00977384392172098,-0.000916297896765172,-0.0146607663482428
5,1.05555559457566,-0.0736111117849297,0.0652777787193518,-0.0219911485910416,0.126143679022789,0.00305432616733015
5,1.05277781080915,-0.0722222259796579,0.0763888894734557,-0.0400116741657257,0.223882108926773,-0.00122173049021512
5,1.02638896227504,-0.0750000036681839,0.0986111170596459,-0.0186313893646002,0.303600013256073,-0.0299323964864016
5,0.998611124609959,-0.0666666706026059,0.162500009973726,0.132863193750381,0.0959058403968811,-0.0287106670439243
5,1.00000001649321,-0.0541666679652478,0.162500009973726,0.242208063602448,0.00122173049021512,0.00610865233466029
5,1.01527782720901,-0.0250000007162294,0.12777778582816,0.200974673032761,-0.0809396430850029,0.0745255574584007
5,1.04861113515939,-0.03194444645704,0.0777777813567098,-0.0192422550171614,0.00610865233466029,0.00824668072164059
5,1.147222264375,-0.0680555564078778,0.106944444047242,0.0778853222727776,0.260839462280273,0.0247400421649218
5,1.00972225967599,-0.0388888906783549,0.148611115453114,0.000305432622553781,0.169820532202721,-0.027488935738802
5,0.980555627375371,-0.0472222237439329,0.152777778946911,-0.0186313893646002,-0.058643065392971,0.00610865233466029
5,0.997222232726705,-0.0486111125881959,0.133333341205212,-0.0241291765123606,-0.0546724386513233,0.000916297896765172
5,1.02083339474202,-0.052777782159976,0.112499999424294,-0.0232128798961639,-0.0232128798961639,0.00824668072164059
5,1.02500007039179,-0.0611111152255539,0.10972222781375,-0.0241291765123606,0.00671951752156019,0.00702495034784079
5,1.02083339474202,-0.0625000010308258,0.118055554801345,-0.0241291765123606,0.00366519158706069,0.000610865245107561
5,1.01805561097552,-0.0583333375370279,0.111111119697004,-0.0189368221908808,0.00763581553474069,0.000610865245107561
5,1.02222228662528,-0.0541666679652478,0.113888891307548,-0.0146607663482428,0.00794124789535999,0.00580321997404099
5,1.02222228662528,-0.055555559848502,0.118055554801345,-0.0299323964864016,0.015577063895762,0.00122173049021512
5,1.02083339474202,-0.0513888902767219,0.130555557438704,-0.0406225398182869,0.0461203269660473,0.00152716308366507
5,1.02361117850853,-0.055555559848502,0.120833338567854,-0.0497855171561241,0.021685715764761,0.0113010071218014
5,1.02500007039179,-0.0569444456537738,0.134722233088466,-0.0549778714776039,0.0595593601465225,0.00855211354792118
5,1.02361117850853,-0.0625000010308258,0.138888896582264,-0.00824668072164059,0.00855211354792118,0.019547687843442
5,1.02083339474202,-0.0569444456537738,0.131944449321958,-0.00885754637420177,0.00305432616733015,0.0192422550171614
5,1.01388893532575,-0.0513888902767219,0.126388893944906,-0.00885754637420177,-0.00702495034784079,0.0201585534960032
5,1.01944450285877,-0.0513888902767219,0.1194444466846,-0.0394008085131645,0.0143553335219622,0.00671951752156019
5,1.02222228662528,-0.052777782159976,0.122222230451108,-0.0277943685650826,-0.0128281703218818,0.0177150927484035
5,1.05972227022542,-0.0388888906783549,0.101388894748172,0.00549778714776039,-0.0577267669141293,0.0299323964864016
5,1.03888889197661,-0.0513888902767219,0.113888891307548,-0.0100792767480016,-0.0290160998702049,0.0219911485910416
5,1.01944450285877,-0.0625000010308258,0.116666675074056,-0.0265726372599602,-0.013744467869401,0.0201585534960032
5,1.00972225967599,-0.0652777787193518,0.120833338567854,-0.0348193198442459,0.00397062394768,0.0189368221908808
5,1.02222228662528,-0.0611111152255539,0.123611110178398,-0.0348193198442459,-0.0128281703218818,0.0152716310694814
5,1.01805561097552,-0.0638888929140799,0.108333335930496,-0.0448985956609249,-0.00122173049021512,0.0140499006956816
5,1.01666671909226,-0.0625000010308258,0.116666675074056,-0.0277943685650826,-0.0021380283869803,0.0146607663482428
5,1.01805561097552,-0.0694444482911319,0.116666675074056,-0.0149661982432008,-0.00122173049021512,0.0201585534960032
5,1.01666671909226,-0.0722222259796579,0.113888891307548,-0.0213802829384804,-0.00244346098043024,0.0143553335219622
5,1.02638896227504,-0.0652777787193518,0.122222230451108,-0.0650571510195732,0.0134390350431204,0.0161879286170006
5,1.02222228662528,-0.0694444482911319,0.123611110178398,-0.0339030213654041,-0.0378736443817616,0.0210748501121998
5,1.02500007039179,-0.0777777813567098,0.10972222781375,-0.0265726372599602,-0.0387899428606033,0.0210748501121998
5,1.02916674604155,-0.0750000036681839,0.101388894748172,-0.011606439948082,0.0287106670439243,0.00946841109544039
5,1.02222228662528,-0.0680555564078778,0.0986111170596459,-0.0201585534960032,0.01588249579072,0.00519235478714108
5,1.03194452980806,-0.0666666706026059,0.112499999424294,-0.0207694191485643,0.0354301854968071,0.00488692196086049
5,1.02083339474202,-0.0680555564078778,0.115277783190802,-0.00885754637420177,0.013744467869401,0.00610865233466029
5,1.01944450285877,-0.0666666706026059,0.125000002061652,-0.0555887371301651,-0.0348193198442459,0.00855211354792118
5,1.02500007039179,-0.0680555564078778,0.120833338567854,0.0268780700862408,0.011606439948082,-0.00366519158706069
5,1.00555558402623,-0.0736111117849297,0.126388893944906,0.00244346098043024,-0.0491746515035629,0.00763581553474069
5,1.02083339474202,-0.0750000036681839,0.113888891307548,0.00671951752156019,-0.0232128798961639,0.00885754637420177
5,1.02916674604155,-0.0777777813567098,0.108333335930496,0.01588249579072,0.0134390350431204,-0.00183259579353034
5,1.00972225967599,-0.0652777787193518,0.120833338567854,0.0027488935738802,0.021685715764761,0.0045814891345799
5,1.00694447590948,-0.0569444456537738,0.126388893944906,0.0152716310694814,0.0128281703218818,0.000916297896765172
5,1.01111115155925,-0.0597222233422998,0.118055554801345,0.0113010071218014,-0.0479529201984406,0.0149661982432008
5,1.01111115155925,-0.0597222233422998,0.118055554801345,-0.0109955742955208,-0.0577267669141293,0.0100792767480016
5,1.02916674604155,-0.0680555564078778,0.108333335930496,-0.00702495034784079,-0.0189368221908808,0.00885754637420177
5,1.02777785415829,-0.0680555564078778,0.108333335930496,-0.0207694191485643,0.0235183127224445,-0.00488692196086049
5,1.02777785415829,-0.0680555564078778,0.108333335930496,-0.0171042270958424,-0.00244346098043024,0.00427605677396059
5,1.01944450285877,-0.0722222259796579,0.10972222781375,-0.0113010071218014,-0.0146607663482428,0.000916297896765172
5,1.01944450285877,-0.0736111117849297,0.104166672436698,-0.0265726372599602,0.000610865245107561,-0.00641408516094089
5,1.01944450285877,-0.0736111117849297,0.104166672436698,-0.00885754637420177,0.0128281703218818,-0.00733038317412138
5,1.01944450285877,-0.0638888929140799,0.120833338567854,-0.0125227374956012,0.00977384392172098,-0.0219911485910416
5,1.01527782720901,-0.0680555564078778,0.13750000469901,-0.00183259579353034,-0.011606439948082,-0.0171042270958424
5,1.01527782720901,-0.0680555564078778,0.13750000469901,0.00549778714776039,-0.0299323964864016,-0.00977384392172098
5,1.02916674604155,-0.0722222259796579,0.1194444466846,-0.00397062394768,-0.00610865233466029,-0.000305432622553781
5,1.02083339474202,-0.0652777787193518,0.116666675074056,-0.00305432616733015,0.00305432616733015,0.00427605677396059
5,1.02083339474202,-0.0652777787193518,0.116666675074056,-0.00794124789535999,0.0113010071218014,0.00427605677396059
5,1.02500007039179,-0.0708333340964038,0.113888891307548,0.0100792767480016,-0.0103847095742822,0.00916297826915979
5,1.02222228662528,-0.0777777813567098,0.1194444466846,0.00641408516094089,0.00946841109544039,0.00855211354792118
5,1.02361117850853,-0.0736111117849297,0.102777780553444,0.0113010071218014,-0.0113010071218014,0.013744467869401
5,1.02222228662528,-0.0777777813567098,0.122222230451108,0.015577063895762,-0.0219911485910416,-0.00183259579353034
5,1.02500007039179,-0.0791666671619817,0.111111119697004,0.00397062394768,-0.00641408516094089,0.000305432622553781
5,1.01805561097552,-0.0777777813567098,0.115277783190802,0.00519235478714108,-0.00885754637420177,-0.00244346098043024
5,1.01944450285877,-0.0666666706026059,0.113888891307548,0.000916297896765172,-0.00427605677396059,-0.0033597587607801
5,1.01944450285877,-0.0652777787193518,0.108333335930496,0.00427605677396059,-0.00580321997404099,0.00610865233466029
5,1.02222228662528,-0.0680555564078778,0.10972222781375,-0.00397062394768,-0.0106901414692402,0.00183259579353034
5,1.01944450285877,-0.0638888929140799,0.112499999424294,0.00397062394768,-0.0201585534960032,0.00702495034784079
5,1.01944450285877,-0.0680555564078778,0.125000002061652,-0.00397062394768,-0.0204639863222837,0.00702495034784079
5,1.02361117850853,-0.0708333340964038,0.120833338567854,-0.00763581553474069,-0.00702495034784079,0.00977384392172098
5,1.02500007039179,-0.0736111117849297,0.126388893944906,-0.015577063895762,-0.0125227374956012,0.01191187184304
5,1.01944450285877,-0.0680555564078778,0.12777778582816,-0.00397062394768,-0.019547687843442,0.0189368221908808
5,1.01805561097552,-0.0722222259796579,0.118055554801345,0.00885754637420177,-0.0033597587607801,0.0183259565383196
5,1.04166667574312,-0.0847222225390337,0.118055554801345,0.0604756586253643,0.0729983970522881,0.00946841109544039
5,1.02361117850853,-0.0791666671619817,0.123611110178398,0.027488935738802,0.0598647929728031,0.00824668072164059
5,1.01527782720901,-0.0680555564078778,0.105555564319952,0.00763581553474069,0.01588249579072,0.0106901414692402
5,1.02083339474202,-0.0708333340964038,0.112499999424294,-0.0189368221908808,0.0241291765123606,0.0149661982432008
5,1.0125000434425,-0.0722222259796579,0.118055554801345,-0.0122173046693206,0.0204639863222837,0.0122173046693206
5,1.01805561097552,-0.0680555564078778,0.123611110178398,-0.00610865233466029,-0.0143553335219622,0.0226020142436027
5,1.01944450285877,-0.0625000010308258,0.125000002061652,-0.0247400421649218,-0.0161879286170006,0.0201585534960032
5,1.02916674604155,-0.0652777787193518,0.130555557438704,-0.0448985956609249,0.00885754637420177,0.029626963660121
5,1.02222228662528,-0.0666666706026059,0.133333341205212,-0.0470366254448891,-0.00122173049021512,0.0387899428606033
5,1.02222228662528,-0.0666666706026059,0.1194444466846,-0.0708603709936142,-0.0122173046693206,0.0400116741657257
5,1.02361117850853,-0.0722222259796579,0.105555564319952,-0.0748309940099716,0.00305432616733015,0.05283984541893
5,1.02083339474202,-0.0652777787193518,0.111111119697004,-0.0952949747443199,-0.0033597587607801,0.0589484944939613
5,1.0305556379248,-0.0805555590452358,0.118055554801345,-0.0894917547702789,-0.0284052342176437,0.0638354197144508
5,1.0305556379248,-0.0805555590452358,0.118055554801345,-0.0812450796365738,-0.0320704244077206,0.05283984541893
5,1.01527782720901,-0.0875000002275597,0.111111119697004,-0.0675006061792374,-0.0403171069920063,0.0470366254448891
5,1.0125000434425,-0.101388894748172,0.113888891307548,-0.0360410511493683,-0.0613919571042061,0.0604756586253643
5,1.01527782720901,-0.105555564319952,0.113888891307548,0.0027488935738802,-0.0647517144680023,0.058643065392971
5,1.02083339474202,-0.108333335930496,0.113888891307548,0.0219911485910416,-0.0500909499824047,0.05283984541893
5,1.02500007039179,-0.106944444047242,0.102777780553444,0.0464257597923279,-0.0430659987032413,0.0574213340878487
5,1.02083339474202,-0.111111119697004,0.102777780553444,0.058643065392971,-0.0433714315295219,0.0555887371301651
5,1.02500007039179,-0.104166672436698,0.105555564319952,0.0806342139840126,-0.0491746515035629,0.0561996027827263
5,1.02500007039179,-0.106944444047242,0.105555564319952,0.106290549039841,-0.0372627787292004,0.0565050356090069
5,1.02222228662528,-0.106944444047242,0.108333335930496,0.108428582549095,-0.0351247526705265,0.0711658000946045
5,1.01805561097552,-0.0902777839940679,0.105555564319952,0.10567969083786,-0.0259617734700441,0.0598647929728031
5,1.00972225967599,-0.0736111117849297,0.108333335930496,0.0852157026529312,-0.0253509078174829,0.0610865242779255
5,1.0125000434425,-0.0638888929140799,0.102777780553444,0.0659734457731247,-0.0311541277915239,0.0693332031369209
5,1.01666671909226,-0.0625000010308258,0.105555564319952,0.0277943685650826,-0.0442877300083637,0.0659734457731247
5,1.01527782720901,-0.0666666706026059,0.118055554801345,-0.0259617734700441,-0.0555887371301651,0.0604756586253643
5,1.02222228662528,-0.0583333375370279,0.104166672436698,-0.058643065392971,-0.0684169083833694,0.0522289797663689
5,1.02500007039179,-0.0708333340964038,0.101388894748172,-0.0739146918058395,-0.0601702257990837,0.0546724386513233
5,1.00555558402623,-0.0791666671619817,0.105555564319952,-0.0791070461273193,-0.0629191175103188,0.0510072484612465
5,1.01527782720901,-0.0819444448505077,0.0986111170596459,-0.108123145997524,-0.0852157026529312,0.0424551330506802
5,1.01111115155925,-0.0875000002275597,0.0833333367337618,-0.117896988987923,-0.0772744566202164,0.0561996027827263
5,1.01944450285877,-0.108333335930496,0.0819444448505077,-0.120951317250729,-0.0757472887635231,0.0513126812875271
5,1.02083339474202,-0.101388894748172,0.0875000002275597,-0.113620936870575,-0.0589484944939613,0.0510072484612465
5,1.02500007039179,-0.116666675074056,0.0875000002275597,-0.109039448201656,-0.0503963828086853,0.0323758572340012
5,1.02361117850853,-0.116666675074056,0.0916666697993398,-0.0809396430850029,-0.0595593601465225,0.0259617734700441
5,1.02083339474202,-0.112499999424294,0.0888888921108138,-0.0720821022987366,-0.0424551330506802,0.0146607663482428
5,1.01944450285877,-0.111111119697004,0.0930555616825939,-0.0568104684352875,-0.0329867228865623,0.00488692196086049
5,1.02222228662528,-0.108333335930496,0.0861111144222878,-0.0577267669141293,-0.0268780700862408,0.00641408516094089
5,1.02222228662528,-0.105555564319952,0.0819444448505077,-0.0623082555830479,-0.0235183127224445,0.0033597587607801
5,1.01944450285877,-0.101388894748172,0.0861111144222878,-0.0769690200686455,-0.0323758572340012,0.00671951752156019
5,1.01944450285877,-0.104166672436698,0.0805555590452358,-0.0855211317539215,-0.0320704244077206,0.00641408516094089
5,1.02083339474202,-0.104166672436698,0.0819444448505077,-0.0882700309157372,-0.0360410511493683,0.0125227374956012
5,1.02083339474202,-0.105555564319952,0.0750000036681839,-0.10567969083786,-0.0433714315295219,0.0143553335219622
5,1.01944450285877,-0.104166672436698,0.0750000036681839,-0.130419731140137,-0.0394008085131645,0.0109955742955208
5,1.01527782720901,-0.108333335930496,0.0777777813567098,-0.137139245867729,-0.0311541277915239,0.0161879286170006
5,1.01388893532575,-0.111111119697004,0.0833333367337618,-0.133779495954514,-0.0259617734700441,0.0100792767480016
5,1.01944450285877,-0.116666675074056,0.0819444448505077,-0.120951317250729,-0.0290160998702049,0.00580321997404099
5,1.01944450285877,-0.122222230451108,0.0736111117849297,-0.11087204515934,-0.0259617734700441,0.000916297896765172
5,1.01944450285877,-0.122222230451108,0.0680555564078778,-0.108428582549095,-0.0213802829384804,-0.0027488935738802
5,1.02361117850853,-0.1194444466846,0.0722222259796579,-0.0824668109416962,-0.0259617734700441,-0.00580321997404099
5,1.02222228662528,-0.125000002061652,0.0652777787193518,-0.0797179117798805,-0.0250454749912024,-0.00946841109544039
5,1.02083339474202,-0.125000002061652,0.0819444448505077,-0.0739146918058395,-0.0177150927484035,-0.00855211354792118
5,1.02222228662528,-0.125000002061652,0.0652777787193518,-0.05283984541893,-0.01191187184304,-0.00702495034784079
5,1.01944450285877,-0.123611110178398,0.0708333340964038,-0.0436768643558025,-0.0177150927484035,-0.00671951752156019
5,1.01944450285877,-0.126388893944906,0.0652777787193518,-0.0210748501121998,-0.0244346093386412,-0.00183259579353034
5,1.02638896227504,-0.125000002061652,0.0666666706026059,-0.0256563406437635,-0.0146607663482428,0.00641408516094089
5,1.02222228662528,-0.118055554801345,0.0736111117849297,-0.0222965814173222,-0.00427605677396059,0.00549778714776039
5,1.01666671909226,-0.111111119697004,0.0722222259796579,-0.0247400421649218,0.000305432622553781,0.00824668072164059
5,1.01805561097552,-0.105555564319952,0.0652777787193518,-0.02382374368608,-0.0113010071218014,-0.00427605677396059
5,1.01805561097552,-0.108333335930496,0.0652777787193518,-0.0262672062963247,-0.0171042270958424,0.013744467869401
5,1.02222228662528,-0.115277783190802,0.0625000010308258,-0.0366519130766392,-0.0204639863222837,0.0122173046693206
5,1.02361117850853,-0.115277783190802,0.0666666706026059,-0.0351247526705265,-0.0027488935738802,-0.00610865233466029
5,1.02500007039179,-0.118055554801345,0.0652777787193518,-0.0207694191485643,-0.00244346098043024,-0.00427605677396059
5,1.02638896227504,-0.126388893944906,0.0638888929140799,-0.0329867228865623,-0.00152716308366507,-0.00305432616733015
5,1.02638896227504,-0.125000002061652,0.0666666706026059,-0.0284052342176437,-0.000610865245107561,-0.00580321997404099
5,1.02638896227504,-0.125000002061652,0.0666666706026059,-0.0149661982432008,-0.00671951752156019,0.00671951752156019
5,1.01944450285877,-0.120833338567854,0.0652777787193518,-0.0125227374956012,-0.019547687843442,0.00702495034784079
5,1.01944450285877,-0.120833338567854,0.0652777787193518,-0.000305432622553781,-0.0253509078174829,0.013744467869401
5,1.02222228662528,-0.123611110178398,0.052777782159976,-0.000305432622553781,-0.0213802829384804,0.00885754637420177
5,1.02222228662528,-0.116666675074056,0.0597222233422998,0.00549778714776039,-0.0201585534960032,0.0100792767480016
5,1.02500007039179,-0.113888891307548,0.0625000010308258,0.0146607663482428,-0.0226020142436027,0.00916297826915979
5,1.02361117850853,-0.113888891307548,0.0611111152255539,0.0131336031481624,-0.0271835029125214,0.013744467869401
5,1.02361117850853,-0.108333335930496,0.0597222233422998,0.01588249579072,-0.0201585534960032,0.00824668072164059
5,1.02083339474202,-0.115277783190802,0.0625000010308258,0.00244346098043024,-0.0287106670439243,0.00580321997404099
5,1.02083339474202,-0.112499999424294,0.055555559848502,0.00549778714776039,-0.0146607663482428,0.00549778714776039
5,1.01805561097552,-0.115277783190802,0.0625000010308258,0.0192422550171614,-0.00152716308366507,-0.00641408516094089
5,1.02222228662528,-0.118055554801345,0.0500000014324589,0.0268780700862408,-0.00763581553474069,-0.00366519158706069
5,1.02222228662528,-0.116666675074056,0.0458333348996699,0.0232128798961639,-0.0100792767480016,-0.01191187184304
5,1.02222228662528,-0.115277783190802,0.0458333348996699,0.00641408516094089,-0.000610865245107561,-0.0177150927484035
5,1.01805561097552,-0.108333335930496,0.0625000010308258,0.01191187184304,0.00244346098043024,-0.011606439948082
5,1.02083339474202,-0.111111119697004,0.0500000014324589,0.0226020142436027,0.00946841109544039,-0.0122173046693206
5,1.02083339474202,-0.111111119697004,0.0625000010308258,0.0305432621389627,0.00519235478714108,-0.0183259565383196
5,1.02222228662528,-0.116666675074056,0.0583333375370279,0.0253509078174829,0.00152716308366507,-0.0143553335219622
5,1.02222228662528,-0.118055554801345,0.0583333375370279,0.017409659922123,-0.000916297896765172,-0.0113010071218014
5,1.01944450285877,-0.115277783190802,0.0583333375370279,0.0293215326964855,0.00152716308366507,-0.00763581553474069
5,1.01527782720901,-0.116666675074056,0.0652777787193518,0.0394008085131645,-0.00122173049021512,0.000305432622553781
5,1.01944450285877,-0.118055554801345,0.0597222233422998,0.0280998013913631,-0.00946841109544039,-0.00488692196086049
5,1.02222228662528,-0.112499999424294,0.0597222233422998,0.0186313893646002,-0.00519235478714108,-0.00366519158706069
5,1.02500007039179,-0.115277783190802,0.0541666679652478,0.0186313893646002,-0.00702495034784079,-0.00549778714776039
5,1.02777785415829,-0.112499999424294,0.0583333375370279,0.0302378293126821,-0.00763581553474069,-0.00397062394768
5,1.02361117850853,-0.113888891307548,0.0583333375370279,0.0339030213654041,-0.011606439948082,-0.00733038317412138
5,1.02638896227504,-0.113888891307548,0.0513888902767219,0.0277943685650826,-0.0106901414692402,-0.00916297826915979
5,1.02222228662528,-0.113888891307548,0.0611111152255539,0.0210748501121998,-0.0021380283869803,-0.0125227374956012
5,1.02083339474202,-0.113888891307548,0.0583333375370279,0.0198531206697226,0.000916297896765172,-0.0189368221908808
5,1.02083339474202,-0.105555564319952,0.0625000010308258,0.0164933614432812,0.0033597587607801,-0.0113010071218014
5,1.02222228662528,-0.102777780553444,0.0680555564078778,0.0113010071218014,-0.00671951752156019,-0.0027488935738802
5,1.02083339474202,-0.108333335930496,0.0625000010308258,0.0164933614432812,-0.0177150927484035,-0.00183259579353034
5,1.02361117850853,-0.106944444047242,0.0666666706026059,0.0171042270958424,-0.021685715764761,-0.0045814891345799
5,1.02500007039179,-0.111111119697004,0.0611111152255539,0.00977384392172098,-0.00824668072164059,-0.00855211354792118
5,1.02083339474202,-0.1194444466846,0.052777782159976,0.000916297896765172,0.0109955742955208,-0.0143553335219622
5,1.02500007039179,-0.118055554801345,0.055555559848502,0.0021380283869803,0.011606439948082,-0.0152716310694814
5,1.01944450285877,-0.120833338567854,0.0652777787193518,0.0213802829384804,0.00977384392172098,-0.0192422550171614
5,1.01805561097552,-0.118055554801345,0.0611111152255539,0.0222965814173222,0.00702495034784079,-0.0167987942695618
5,1.02083339474202,-0.112499999424294,0.0638888929140799,0.02382374368608,0.01588249579072,-0.00580321997404099
5,1.02222228662528,-0.111111119697004,0.0597222233422998,0.0323758572340012,0.0207694191485643,-0.00671951752156019
5,1.02361117850853,-0.112499999424294,0.0625000010308258,0.0280998013913631,0.0113010071218014,-0.00580321997404099
5,1.02222228662528,-0.111111119697004,0.0513888902767219,0.0262672062963247,0.00519235478714108,-0.00763581553474069
5,1.02222228662528,-0.111111119697004,0.055555559848502,0.027488935738802,0.0113010071218014,-0.0021380283869803
5,1.01944450285877,-0.111111119697004,0.0666666706026059,0.0320704244077206,0.0164933614432812,-0.0033597587607801
5,1.01527782720901,-0.10972222781375,0.0666666706026059,0.0323758572340012,0.0180205255746841,-0.00824668072164059
5,1.01388893532575,-0.108333335930496,0.0680555564078778,0.0256563406437635,0.0186313893646002,-0.01191187184304
5,1.02083339474202,-0.108333335930496,0.0583333375370279,0.0250454749912024,0.0109955742955208,-0.0045814891345799
5,1.02500007039179,-0.118055554801345,0.0722222259796579,0.0146607663482428,0.00794124789535999,-0.00397062394768
5,1.02500007039179,-0.113888891307548,0.0652777787193518,0.0271835029125214,0.01191187184304,-0.0109955742955208
5,1.01944450285877,-0.113888891307548,0.0611111152255539,0.0280998013913631,0.0146607663482428,-0.0134390350431204
5,1.02083339474202,-0.108333335930496,0.052777782159976,0.0235183127224445,0.013744467869401,-0.00733038317412138
5,1.02222228662528,-0.10972222781375,0.0583333375370279,0.0229074470698834,0.0201585534960032,-0.011606439948082
5,1.01944450285877,-0.111111119697004,0.055555559848502,0.0390953756868839,0.0210748501121998,-0.0167987942695618
5,1.01944450285877,-0.111111119697004,0.0611111152255539,0.0314595587551594,0.015577063895762,-0.0100792767480016
5,1.02083339474202,-0.111111119697004,0.0625000010308258,0.0287106670439243,0.00824668072164059,-0.0131336031481624
5,1.02361117850853,-0.111111119697004,0.0625000010308258,0.0305432621389627,0.0146607663482428,-0.0103847095742822
5,1.02222228662528,-0.111111119697004,0.0680555564078778,0.0335975885391235,0.00824668072164059,-0.0045814891345799
5,1.01805561097552,-0.112499999424294,0.0763888894734557,0.0259617734700441,-0.000916297896765172,-0.00794124789535999
5,1.02083339474202,-0.108333335930496,0.0722222259796579,0.0213802829384804,0.0021380283869803,-0.000610865245107561
5,1.02500007039179,-0.113888891307548,0.0750000036681839,0.0229074470698834,0.0027488935738802,0.0033597587607801
5,1.02500007039179,-0.102777780553444,0.0652777787193518,0.0290160998702049,0.0100792767480016,-0.00549778714776039
5,1.02361117850853,-0.105555564319952,0.0750000036681839,0.0192422550171614,0.011606439948082,-0.00946841109544039
5,1.02222228662528,-0.108333335930496,0.0777777813567098,0.0125227374956012,-0.0021380283869803,-0.00824668072164059
5,1.02361117850853,-0.108333335930496,0.0750000036681839,-0.0027488935738802,0.0113010071218014,0.0033597587607801
5,1.02222228662528,-0.100000002864918,0.0736111117849297,0.00763581553474069,0.00885754637420177,-0.00671951752156019
5,1.02083339474202,-0.101388894748172,0.0638888929140799,-0.0103847095742822,-0.00946841109544039,0.0125227374956012
5,1.02500007039179,-0.102777780553444,0.0652777787193518,-0.0131336031481624,0.00366519158706069,-0.00794124789535999
5,1.02222228662528,-0.10972222781375,0.0736111117849297,-0.0198531206697226,-0.0140499006956816,-0.00702495034784079
5,1.0125000434425,-0.113888891307548,0.0750000036681839,-0.0125227374956012,-0.0302378293126821,-0.011606439948082
5,1.01944450285877,-0.118055554801345,0.0694444482911319,0.000916297896765172,-0.017409659922123,-0.01588249579072
5,1.01944450285877,-0.118055554801345,0.0694444482911319,0.00152716308366507,0.0143553335219622,-0.0149661982432008
5,1.02083339474202,-0.123611110178398,0.0722222259796579,-0.0033597587607801,0.0207694191485643,-0.00397062394768
5,1.01944450285877,-0.118055554801345,0.0847222225390337,0.0134390350431204,0.027488935738802,-0.000916297896765172
5,1.01944450285877,-0.118055554801345,0.0847222225390337,0.00946841109544039,0.0143553335219622,-0.0161879286170006
5,1.02222228662528,-0.112499999424294,0.0833333367337618,0.0143553335219622,0.00794124789535999,-0.0140499006956816
5,1.02361117850853,-0.105555564319952,0.0750000036681839,0.0021380283869803,0.00916297826915979,-0.00946841109544039
5,1.02361117850853,-0.105555564319952,0.0750000036681839,0.00305432616733015,-0.00183259579353034,0.0027488935738802
5,1.02361117850853,-0.108333335930496,0.0777777813567098,0.00122173049021512,-0.00733038317412138,0.0021380283869803
5,1.02083339474202,-0.108333335930496,0.0777777813567098,0.000916297896765172,-0.01191187184304,0.0250454749912024
5,1.02083339474202,-0.108333335930496,0.0777777813567098,0.0033597587607801,-0.0232128798961639,0.029626963660121
5,1.02222228662528,-0.111111119697004,0.0902777839940679,-0.00946841109544039,-0.0335975885391235,0.0397062413394451
5,1.02222228662528,-0.108333335930496,0.0763888894734557,-0.0113010071218014,-0.0491746515035629,0.0485637858510017
5,1.02083339474202,-0.108333335930496,0.0652777787193518,-0.00885754637420177,-0.0403171069920063,0.0461203269660473
5,1.01805561097552,-0.10972222781375,0.0708333340964038,-0.0229074470698834,-0.0290160998702049,0.0497855171561241
5,1.01944450285877,-0.104166672436698,0.0791666671619817,-0.0177150927484035,-0.0403171069920063,0.04764748737216
5,1.02222228662528,-0.102777780553444,0.0680555564078778,-0.0219911485910416,-0.0488692186772823,0.0482583530247212
5,1.02361117850853,-0.104166672436698,0.0750000036681839,-0.0284052342176437,-0.0537561401724815,0.0427605658769607
5,1.02638896227504,-0.104166672436698,0.0777777813567098,-0.03176499158144,-0.0503963828086853,0.0366519130766392
5,1.01805561097552,-0.101388894748172,0.0611111152255539,-0.0271835029125214,-0.0244346093386412,0.027488935738802
5,1.01944450285877,-0.102777780553444,0.0722222259796579,-0.0171042270958424,-0.0045814891345799,0.0183259565383196
5,1.02222228662528,-0.102777780553444,0.0680555564078778,-0.0232128798961639,-0.00549778714776039,0.0113010071218014
5,1.02361117850853,-0.102777780553444,0.0652777787193518,-0.029626963660121,0.00183259579353034,0.00397062394768
5,1.02500007039179,-0.104166672436698,0.0638888929140799,-0.03176499158144,0.00427605677396059,-0.0045814891345799
5,1.02500007039179,-0.102777780553444,0.0652777787193518,-0.0320704244077206,0.00427605677396059,-0.00549778714776039
5,1.02500007039179,-0.108333335930496,0.0652777787193518,-0.019547687843442,0.0106901414692402,-0.0131336031481624
5,1.02500007039179,-0.111111119697004,0.0680555564078778,-0.0232128798961639,0.0198531206697226,-0.0204639863222837
5,1.01944450285877,-0.116666675074056,0.0638888929140799,-0.0210748501121998,0.0326812900602817,-0.0204639863222837
5,1.02500007039179,-0.116666675074056,0.0666666706026059,-0.00916297826915979,0.013744467869401,-0.0186313893646002
5,1.02361117850853,-0.112499999424294,0.0666666706026059,-0.00946841109544039,0.0241291765123606,-0.0204639863222837
5,1.01805561097552,-0.116666675074056,0.0652777787193518,-0.00977384392172098,0.017409659922123,-0.01191187184304
5,1.01805561097552,-0.113888891307548,0.0513888902767219,0.00488692196086049,0.0100792767480016,-0.0021380283869803
5,1.02222228662528,-0.123611110178398,0.0500000014324589,0.00916297826915979,0.0302378293126821,-0.00763581553474069
5,1.02916674604155,-0.125000002061652,0.055555559848502,0.019547687843442,0.0467311926186085,-0.0201585534960032
5,1.02638896227504,-0.126388893944906,0.0583333375370279,0.0284052342176437,0.0510072484612465,-0.0430659987032413
5,1.02222228662528,-0.123611110178398,0.0541666679652478,0.0314595587551594,0.0473420582711697,-0.0464257597923279
5,1.01944450285877,-0.116666675074056,0.0666666706026059,0.03176499158144,0.0329867228865623,-0.037568211555481
5,1.01805561097552,-0.108333335930496,0.0625000010308258,0.0232128798961639,0.0204639863222837,-0.0253509078174829
5,1.01944450285877,-0.106944444047242,0.0611111152255539,0.0265726372599602,0.00702495034784079,-0.0106901414692402
5,1.02222228662528,-0.112499999424294,0.0680555564078778,0.0213802829384804,0.019547687843442,-0.0134390350431204
5,1.01944450285877,-0.118055554801345,0.0625000010308258,0.017409659922123,0.0280998013913631,-0.0103847095742822
5,1.02083339474202,-0.120833338567854,0.0736111117849297,0.0247400421649218,0.0280998013913631,-0.0109955742955208
5,1.02777785415829,-0.1194444466846,0.0652777787193518,0.0250454749912024,0.0247400421649218,-0.00824668072164059
5,1.02500007039179,-0.122222230451108,0.0597222233422998,0.0241291765123606,0.0177150927484035,-0.00549778714776039
5,1.02222228662528,-0.122222230451108,0.0625000010308258,0.0277943685650826,0.0284052342176437,-0.0143553335219622
5,1.02083339474202,-0.120833338567854,0.0750000036681839,0.017409659922123,0.0418442711234093,-0.0109955742955208
5,1.01805561097552,-0.108333335930496,0.0805555590452358,0.0201585534960032,0.0213802829384804,0.0021380283869803
5,1.01805561097552,-0.101388894748172,0.0791666671619817,0.015577063895762,0.0100792767480016,-0.00122173049021512
5,1.02222228662528,-0.101388894748172,0.0722222259796579,0.00488692196086049,0.0149661982432008,0.000610865245107561
5,1.02500007039179,-0.106944444047242,0.0583333375370279,0.0109955742955208,0.011606439948082,0.00855211354792118
5,1.02500007039179,-0.10972222781375,0.0652777787193518,0.0177150927484035,0.000916297896765172,0.00244346098043024
5,1.02222228662528,-0.116666675074056,0.0805555590452358,0.0241291765123606,0.00580321997404099,0.00244346098043024
5,1.02222228662528,-0.122222230451108,0.0805555590452358,0.0268780700862408,0.0100792767480016,0.0113010071218014
5,1.02222228662528,-0.120833338567854,0.0791666671619817,0.0314595587551594,0.0131336031481624,0.00702495034784079
5,1.02222228662528,-0.113888891307548,0.0736111117849297,0.0418442711234093,0.00641408516094089,0.0140499006956816
5,1.02916674604155,-0.118055554801345,0.0750000036681839,0.0458148941397667,-0.0027488935738802,0.00855211354792118
5,1.02638896227504,-0.118055554801345,0.0638888929140799,0.0540615729987621,-0.0027488935738802,-0.00122173049021512
5,1.02500007039179,-0.115277783190802,0.0583333375370279,0.0549778714776039,-0.0033597587607801,0.00977384392172098
5,1.02222228662528,-0.111111119697004,0.0652777787193518,0.0430659987032413,0.00641408516094089,0.00824668072164059
5,1.02500007039179,-0.111111119697004,0.0652777787193518,0.0430659987032413,0.0134390350431204,-0.00152716308366507
5,1.01666671909226,-0.106944444047242,0.0777777813567098,0.0455094613134861,0.00794124789535999,0.000305432622553781
5,1.02083339474202,-0.101388894748172,0.0777777813567098,0.0339030213654041,-0.00916297826915979,-0.00366519158706069
5,1.01944450285877,-0.113888891307548,0.0847222225390337,0.0326812900602817,-0.0244346093386412,-0.0033597587607801
5,1.02222228662528,-0.115277783190802,0.0777777813567098,0.0167987942695618,-0.0280998013913631,-0.00580321997404099
5,1.02777785415829,-0.1194444466846,0.0708333340964038,0.00977384392172098,-0.0146607663482428,-0.00641408516094089
5,1.01944450285877,-0.112499999424294,0.0722222259796579,0.0106901414692402,0.00733038317412138,-0.00580321997404099
5,1.01805561097552,-0.10972222781375,0.0777777813567098,0.00916297826915979,0.0201585534960032,-0.00244346098043024
5,1.01388893532575,-0.101388894748172,0.0833333367337618,0.00244346098043024,-0.00488692196086049,0.00610865233466029
5,1.01944450285877,-0.108333335930496,0.0777777813567098,-0.0033597587607801,-0.0045814891345799,-0.00397062394768
5,1.02500007039179,-0.118055554801345,0.0736111117849297,0.00946841109544039,-0.00305432616733015,-0.00183259579353034
5,1.02361117850853,-0.122222230451108,0.0680555564078778,0.00366519158706069,0.00152716308366507,-0.00794124789535999
5,1.02083339474202,-0.1194444466846,0.0708333340964038,0.0021380283869803,0.00855211354792118,-0.0106901414692402
5,1.01527782720901,-0.118055554801345,0.0736111117849297,0.0106901414692402,0.0021380283869803,-0.0177150927484035
5,1.01805561097552,-0.113888891307548,0.0750000036681839,0.0106901414692402,-0.00244346098043024,-0.02382374368608
5,1.01527782720901,-0.10972222781375,0.0722222259796579,0.0125227374956012,-0.0171042270958424,-0.0140499006956816
5,1.02222228662528,-0.112499999424294,0.0722222259796579,0.0226020142436027,-0.00397062394768,-0.0232128798961639
5,1.02500007039179,-0.111111119697004,0.0666666706026059,0.0134390350431204,0.01191187184304,-0.0183259565383196
5,1.02361117850853,-0.112499999424294,0.0819444448505077,0.0113010071218014,0.0180205255746841,-0.0213802829384804
5,1.01944450285877,-0.10972222781375,0.0861111144222878,0.0161879286170006,0.0152716310694814,-0.027488935738802
5,1.02500007039179,-0.101388894748172,0.0777777813567098,0.00427605677396059,0.0100792767480016,-0.0167987942695618
5,1.02222228662528,-0.105555564319952,0.0805555590452358,0.0164933614432812,0.00519235478714108,-0.017409659922123
5,1.01944450285877,-0.105555564319952,0.0777777813567098,0.00549778714776039,0.000916297896765172,-0.00244346098043024
5,1.01388893532575,-0.104166672436698,0.0722222259796579,0.00397062394768,0.00946841109544039,0.000305432622553781
5,1.01527782720901,-0.105555564319952,0.0777777813567098,-0.00122173049021512,0.00183259579353034,0.0103847095742822
5,1.02083339474202,-0.101388894748172,0.0750000036681839,0.00824668072164059,0.0103847095742822,0.0134390350431204
5,1.02222228662528,-0.108333335930496,0.0722222259796579,0.0125227374956012,0.00549778714776039,0.00885754637420177
5,1.02222228662528,-0.108333335930496,0.0736111117849297,0.017409659922123,-0.00152716308366507,0.00610865233466029
5,1.0305556379248,-0.104166672436698,0.0777777813567098,0.0134390350431204,0.00885754637420177,0.0021380283869803
5,1.02361117850853,-0.102777780553444,0.0833333367337618,0.011606439948082,0.00152716308366507,-0.00397062394768
5,1.02361117850853,-0.102777780553444,0.0833333367337618,0.00824668072164059,0.00977384392172098,-0.000305432622553781
5,1.02500007039179,-0.106944444047242,0.0819444448505077,0.00519235478714108,0.00671951752156019,-0.00397062394768
5,1.01944450285877,-0.105555564319952,0.0805555590452358,0.00397062394768,-0.000610865245107561,0.000305432622553781
5,1.01944450285877,-0.105555564319952,0.0805555590452358,-0.00183259579353034,-0.0033597587607801,0.0021380283869803
5,1.01944450285877,-0.106944444047242,0.0680555564078778,0.00794124789535999,-0.0106901414692402,-0.000610865245107561
5,1.02361117850853,-0.108333335930496,0.0750000036681839,0.00580321997404099,-0.000916297896765172,-0.00977384392172098
5,1.02361117850853,-0.108333335930496,0.0750000036681839,0.01191187184304,-0.0045814891345799,-0.00244346098043024
5,1.01666671909226,-0.101388894748172,0.0722222259796579,0.0128281703218818,-0.00580321997404099,-0.00366519158706069
5,1.02361117850853,-0.111111119697004,0.0694444482911319,0.00519235478714108,0.00397062394768,-0.011606439948082
5,1.02361117850853,-0.111111119697004,0.0694444482911319,0.0149661982432008,0.00366519158706069,-0.00641408516094089
5,1.01944450285877,-0.106944444047242,0.0777777813567098,0.00610865233466029,-0.01191187184304,-0.00244346098043024
5,1.02083339474202,-0.10972222781375,0.0722222259796579,0.0106901414692402,-0.00305432616733015,-0.00885754637420177
5,1.02083339474202,-0.10972222781375,0.0722222259796579,0.00488692196086049,0.0204639863222837,-0.0149661982432008
5,1.01527782720901,-0.108333335930496,0.0722222259796579,0.00305432616733015,0.0131336031481624,0.000610865245107561
5,1.01944450285877,-0.106944444047242,0.0736111117849297,0.0113010071218014,0.00824668072164059,0.0027488935738802
5,1.02500007039179,-0.104166672436698,0.0750000036681839,0.0100792767480016,0.00946841109544039,-0.0033597587607801
5,1.02222228662528,-0.104166672436698,0.0750000036681839,0.0106901414692402,-0.00152716308366507,-0.0033597587607801
5,1.02361117850853,-0.105555564319952,0.0791666671619817,0.00885754637420177,-0.00549778714776039,-0.00183259579353034
5,1.02361117850853,-0.10972222781375,0.0694444482911319,0.0027488935738802,0.0021380283869803,-0.00763581553474069
5,1.02500007039179,-0.118055554801345,0.0736111117849297,0.00366519158706069,0.00488692196086049,-0.0177150927484035
5,1.02916674604155,-0.113888891307548,0.0750000036681839,0.0033597587607801,0.00977384392172098,-0.0284052342176437
5,1.02361117850853,-0.104166672436698,0.0763888894734557,-0.000305432622553781,-0.00580321997404099,-0.00702495034784079
5,1.01527782720901,-0.0930555616825939,0.0750000036681839,-0.00946841109544039,-0.0164933614432812,0.000610865245107561
5,1.01944450285877,-0.0958333393711199,0.0694444482911319,-0.0210748501121998,-0.00885754637420177,0.0113010071218014
5,1.02222228662528,-0.104166672436698,0.0777777813567098,-0.00397062394768,-0.00824668072164059,0.00702495034784079
5,1.01666671909226,-0.100000002864918,0.0708333340964038,-0.000916297896765172,-0.0161879286170006,0.00305432616733015
5,1.02361117850853,-0.108333335930496,0.0750000036681839,-0.00122173049021512,-0.0284052342176437,0.00824668072164059
5,1.01527782720901,-0.104166672436698,0.0861111144222878,0.0027488935738802,-0.0229074470698834,0.00702495034784079
5,1.01805561097552,-0.108333335930496,0.0736111117849297,0.0167987942695618,-0.0247400421649218,0.00733038317412138
5,1.02222228662528,-0.102777780553444,0.0750000036681839,0.0134390350431204,-0.013744467869401,0.0027488935738802
5,1.01944450285877,-0.111111119697004,0.0583333375370279,0.0149661982432008,-0.00763581553474069,-0.00152716308366507
5,1.02222228662528,-0.111111119697004,0.0625000010308258,0.0280998013913631,0.01191187184304,0.00763581553474069
5,1.01388893532575,-0.106944444047242,0.0722222259796579,0.0400116741657257,-0.00122173049021512,0.0152716310694814
5,1.01944450285877,-0.104166672436698,0.0680555564078778,0.0339030213654041,-0.00733038317412138,0.0113010071218014
5,1.02500007039179,-0.106944444047242,0.0694444482911319,0.0369573459029198,-0.00549778714776039,-0.00733038317412138
5,1.02500007039179,-0.101388894748172,0.0680555564078778,0.0387899428606033,-0.00641408516094089,-0.00366519158706069
5,1.02500007039179,-0.0986111170596459,0.0722222259796579,0.0363464802503586,-0.0122173046693206,0.0045814891345799
5,1.02222228662528,-0.0944444474878658,0.0680555564078778,0.0363464802503586,-0.00671951752156019,0.00885754637420177
5,1.01805561097552,-0.0888888921108138,0.0694444482911319,0.0167987942695618,-0.0186313893646002,0.00916297826915979
5,1.01666671909226,-0.0944444474878658,0.0625000010308258,0.00641408516094089,-0.0247400421649218,0.0140499006956816
5,1.02222228662528,-0.101388894748172,0.0680555564078778,0.00641408516094089,-0.0262672062963247,0.0128281703218818
5,1.02361117850853,-0.104166672436698,0.0680555564078778,-0.000610865245107561,-0.00733038317412138,0.0033597587607801
5,1.02222228662528,-0.102777780553444,0.0819444448505077,-0.000610865245107561,-0.0109955742955208,0.0033597587607801
5,1.02222228662528,-0.102777780553444,0.0680555564078778,-0.000610865245107561,-0.0100792767480016,-0.00183259579353034
5,1.02361117850853,-0.102777780553444,0.0680555564078778,-0.000916297896765172,-0.00305432616733015,0.00244346098043024
5,1.02222228662528,-0.104166672436698,0.0680555564078778,-0.000305432622553781,-0.00671951752156019,0.000610865245107561
5,1.02361117850853,-0.106944444047242,0.0722222259796579,-0.00977384392172098,-0.0103847095742822,0.00702495034784079
5,1.02361117850853,-0.0986111170596459,0.0708333340964038,-0.0122173046693206,-0.00671951752156019,0.0045814891345799
5,1.02638896227504,-0.100000002864918,0.0763888894734557,-0.00824668072164059,0.00641408516094089,0.00794124789535999
5,1.02083339474202,-0.108333335930496,0.0680555564078778,-0.011606439948082,0.00244346098043024,0.0106901414692402
5,1.02222228662528,-0.101388894748172,0.0680555564078778,-0.00946841109544039,-0.0045814891345799,0.00977384392172098
5,1.02222228662528,-0.104166672436698,0.0680555564078778,-0.0259617734700441,0.000610865245107561,0.0161879286170006
5,1.02222228662528,-0.106944444047242,0.0722222259796579,-0.0134390350431204,-0.00183259579353034,0.00794124789535999
5,1.02222228662528,-0.106944444047242,0.0736111117849297,-0.00977384392172098,-0.0222965814173222,0.00916297826915979
5,1.01944450285877,-0.101388894748172,0.0583333375370279,-0.0247400421649218,-0.0219911485910416,0.00702495034784079
5,1.02500007039179,-0.116666675074056,0.0513888902767219,-0.0189368221908808,-0.00610865233466029,0.0134390350431204
5,1.02500007039179,-0.116666675074056,0.0583333375370279,-0.01588249579072,0.000305432622553781,0.00702495034784079
5,1.02083339474202,-0.113888891307548,0.0625000010308258,0.000916297896765172,-0.0131336031481624,0.00366519158706069
5,1.02361117850853,-0.1194444466846,0.0666666706026059,0.0033597587607801,-0.0177150927484035,0.00305432616733015
5,1.02500007039179,-0.10972222781375,0.0736111117849297,0.00305432616733015,-0.00610865233466029,0.011606439948082
5,1.02083339474202,-0.108333335930496,0.0791666671619817,0.0021380283869803,-0.0122173046693206,0.0109955742955208
5,1.01944450285877,-0.108333335930496,0.0652777787193518,-0.01191187184304,-0.0247400421649218,0.0204639863222837
5,1.01944450285877,-0.111111119697004,0.0541666679652478,-0.0100792767480016,-0.0229074470698834,0.0164933614432812
5,1.02500007039179,-0.115277783190802,0.0569444456537738,-0.000916297896765172,-0.0210748501121998,0.0207694191485643
5,1.02361117850853,-0.116666675074056,0.0597222233422998,0.00183259579353034,-0.00794124789535999,0.0152716310694814
5,1.02500007039179,-0.106944444047242,0.0583333375370279,-0.00427605677396059,-0.0213802829384804,0.00702495034784079
5,1.02083339474202,-0.108333335930496,0.0638888929140799,-0.019547687843442,-0.0271835029125214,0.00885754637420177
5,1.01527782720901,-0.108333335930496,0.0597222233422998,-0.0247400421649218,-0.0189368221908808,0.0201585534960032
5,1.01944450285877,-0.111111119697004,0.0583333375370279,-0.0256563406437635,-0.0125227374956012,0.0250454749912024
5,1.02777785415829,-0.116666675074056,0.0652777787193518,-0.019547687843442,-0.01191187184304,0.0186313893646002
5,1.02361117850853,-0.122222230451108,0.055555559848502,-0.0204639863222837,-0.0134390350431204,0.0161879286170006
5,1.02222228662528,-0.115277783190802,0.0541666679652478,-0.0247400421649218,-0.0207694191485643,0.0131336031481624
5,1.02083339474202,-0.113888891307548,0.055555559848502,-0.0299323964864016,0.0027488935738802,0.0100792767480016
5,1.01944450285877,-0.111111119697004,0.0638888929140799,-0.0284052342176437,-0.00885754637420177,0.0140499006956816
5,1.01666671909226,-0.111111119697004,0.0625000010308258,-0.0253509078174829,-0.00488692196086049,0.00794124789535999
5,1.02500007039179,-0.115277783190802,0.0444444460554069,-0.0314595587551594,-0.00427605677396059,0.00671951752156019
5,1.02222228662528,-0.120833338567854,0.052777782159976,-0.0290160998702049,0.0149661982432008,-0.0109955742955208
5,1.02361117850853,-0.118055554801345,0.0541666679652478,-0.0277943685650826,0.013744467869401,-0.0122173046693206
5,1.02083339474202,-0.125000002061652,0.0444444460554069,-0.0271835029125214,0.0152716310694814,-0.013744467869401
5,1.02222228662528,-0.125000002061652,0.0500000014324589,-0.00946841109544039,0.0146607663482428,-0.0021380283869803
5,1.01944450285877,-0.120833338567854,0.052777782159976,0.00427605677396059,0.00733038317412138,0.000916297896765172
5,1.01944450285877,-0.120833338567854,0.0513888902767219,0.0152716310694814,0.0109955742955208,0.00488692196086049
5,1.01944450285877,-0.123611110178398,0.055555559848502,0.015577063895762,0.0122173046693206,-0.00397062394768
5,1.01527782720901,-0.1194444466846,0.052777782159976,0.0250454749912024,0.00855211354792118,0.00152716308366507
5,1.01944450285877,-0.122222230451108,0.0541666679652478,0.0348193198442459,-0.00519235478714108,0.00519235478714108
5,1.02222228662528,-0.118055554801345,0.0611111152255539,0.0467311926186085,-0.00366519158706069,0.00549778714776039
5,1.02638896227504,-0.120833338567854,0.0569444456537738,0.0366519130766392,0.00183259579353034,0.00824668072164059
5,1.02361117850853,-0.113888891307548,0.0652777787193518,0.0308486949652433,0.00794124789535999,0.00702495034784079
5,1.02361117850853,-0.122222230451108,0.0694444482911319,0.0351247526705265,-0.00366519158706069,0.00427605677396059
5,1.02777785415829,-0.118055554801345,0.0652777787193518,0.0287106670439243,0.00794124789535999,0.00244346098043024
5,1.01944450285877,-0.10972222781375,0.0666666706026059,0.0311541277915239,0.00549778714776039,0.0045814891345799
5,1.01944450285877,-0.113888891307548,0.0750000036681839,0.0314595587551594,-0.00427605677396059,0.00580321997404099
5,1.01805561097552,-0.113888891307548,0.0666666706026059,0.0372627787292004,-0.00763581553474069,0.0128281703218818
5,1.02222228662528,-0.126388893944906,0.0611111152255539,0.0400116741657257,-0.00397062394768,0.00885754637420177
5,1.01944450285877,-0.12777778582816,0.0652777787193518,0.0571159012615681,-0.0103847095742822,0.0131336031481624
5,1.01527782720901,-0.133333341205212,0.0625000010308258,0.0671951770782471,-0.017409659922123,0.0134390350431204
5,1.01805561097552,-0.12777778582816,0.0597222233422998,0.0858265683054924,-0.021685715764761,0.017409659922123
5,1.02222228662528,-0.130555557438704,0.0652777787193518,0.108734011650086,-0.0314595587551594,0.0189368221908808
5,1.02222228662528,-0.130555557438704,0.0652777787193518,0.120035022497177,-0.0250454749912024,0.0268780700862408
5,1.01944450285877,-0.123611110178398,0.0652777787193518,0.11117747426033,-0.0378736443817616,0.0265726372599602
5,1.02222228662528,-0.126388893944906,0.0680555564078778,0.114231802523136,-0.0284052342176437,0.0210748501121998
5,1.02222228662528,-0.126388893944906,0.0680555564078778,0.102930791676045,-0.0152716310694814,0.0235183127224445
5,1.02500007039179,-0.123611110178398,0.0652777787193518,0.104457959532738,-0.00946841109544039,0.0180205255746841
5,1.02361117850853,-0.118055554801345,0.0708333340964038,0.0952949747443199,-0.0143553335219622,0.0244346093386412
5,1.02361117850853,-0.118055554801345,0.0708333340964038,0.076052725315094,-0.00580321997404099,0.01588249579072
5,1.01805561097552,-0.116666675074056,0.0625000010308258,0.0687223374843597,-0.000305432622553781,0.0186313893646002
5,1.01944450285877,-0.106944444047242,0.0569444456537738,0.0510072484612465,0.0021380283869803,0.0143553335219622
5,1.01944450285877,-0.106944444047242,0.0569444456537738,0.00702495034784079,0.00122173049021512,0.0152716310694814
5,1.01944450285877,-0.111111119697004,0.0611111152255539,-0.0131336031481624,0.0021380283869803,0.0103847095742822
5,1.02361117850853,-0.10972222781375,0.0583333375370279,-0.0265726372599602,-0.0045814891345799,0.00183259579353034
5,1.02361117850853,-0.10972222781375,0.0583333375370279,-0.0445931628346443,0.00549778714776039,0.0045814891345799
5,1.02361117850853,-0.112499999424294,0.0597222233422998,-0.0662788823246956,0.0131336031481624,-0.00366519158706069
5,1.01666671909226,-0.111111119697004,0.0597222233422998,-0.0842994004487991,0.00549778714776039,0.00183259579353034
5,1.02083339474202,-0.111111119697004,0.0611111152255539,-0.0858265683054924,0.00305432616733015,0.0021380283869803
5,1.02083339474202,-0.111111119697004,0.0486111125881959,-0.0919352173805237,0.00977384392172098,-0.00122173049021512
5,1.02083339474202,-0.112499999424294,0.0444444460554069,-0.109344877302647,0.00916297826915979,-0.00183259579353034
5,1.01805561097552,-0.116666675074056,0.0486111125881959,-0.116675265133381,0.0140499006956816,-0.00427605677396059
5,1.02222228662528,-0.1194444466846,0.052777782159976,-0.111482910811901,0.011606439948082,-0.00580321997404099
5,1.01805561097552,-0.122222230451108,0.0541666679652478,-0.110566608607769,0.00610865233466029,-0.0033597587607801
5,1.02222228662528,-0.125000002061652,0.0458333348996699,-0.102930791676045,0.00946841109544039,-0.00488692196086049
5,1.02083339474202,-0.134722233088466,0.0486111125881959,-0.0983493030071259,0.0164933614432812,-0.011606439948082
5,1.02500007039179,-0.134722233088466,0.0430555572111439,-0.0891863256692886,0.02382374368608,-0.0152716310694814
5,1.02361117850853,-0.12916666555545,0.0472222237439329,-0.0836885422468185,0.01588249579072,-0.017409659922123
5,1.01944450285877,-0.12916666555545,0.0500000014324589,-0.0675006061792374,0.00733038317412138,-0.0100792767480016
5,1.01944450285877,-0.12777778582816,0.0583333375370279,-0.0665843114256859,0.0226020142436027,-0.00763581553474069
5,1.01527782720901,-0.12916666555545,0.0625000010308258,-0.0592539273202419,0.0021380283869803,0.00397062394768
5,1.01666671909226,-0.123611110178398,0.0652777787193518,-0.0458148941397667,-0.0109955742955208,-0.000916297896765172
5,1.01944450285877,-0.131944449321958,0.0625000010308258,-0.0320704244077206,-0.0021380283869803,0.00641408516094089
5,1.02361117850853,-0.133333341205212,0.0541666679652478,-0.0247400421649218,0.0100792767480016,0.0100792767480016
5,1.02083339474202,-0.12916666555545,0.0652777787193518,-0.00885754637420177,0.00977384392172098,0.0106901414692402
5,1.02222228662528,-0.134722233088466,0.0625000010308258,0.0100792767480016,0.00427605677396059,0.00733038317412138
5,1.02083339474202,-0.140277788465518,0.055555559848502,0.0262672062963247,-0.0021380283869803,0.00916297826915979
5,1.01944450285877,-0.138888896582264,0.055555559848502,0.0366519130766392,0.00885754637420177,-0.00488692196086049
5,1.01944450285877,-0.130555557438704,0.055555559848502,0.0488692186772823,0.0122173046693206,-0.00641408516094089
5,1.02361117850853,-0.126388893944906,0.052777782159976,0.0473420582711697,0.0146607663482428,0.000916297896765172
5,1.01805561097552,-0.126388893944906,0.0569444456537738,0.0424551330506802,0.000305432622553781,0.00427605677396059
5,1.01527782720901,-0.123611110178398,0.0722222259796579,0.0436768643558025,-0.0033597587607801,0.0027488935738802
5,1.02222228662528,-0.126388893944906,0.0680555564078778,0.0531452745199203,-0.00366519158706069,0.00580321997404099
5,1.02500007039179,-0.123611110178398,0.0583333375370279,0.0458148941397667,-0.00946841109544039,-0.0033597587607801
5,1.03194452980806,-0.120833338567854,0.052777782159976,0.0500909499824047,-0.00702495034784079,0.00152716308366507
5,1.02361117850853,-0.122222230451108,0.0583333375370279,0.0580321997404099,-0.000916297896765172,0.0100792767480016
5,1.01805561097552,-0.120833338567854,0.0736111117849297,0.0589484944939613,0.000916297896765172,0.00122173049021512
5,1.02500007039179,-0.120833338567854,0.0611111152255539,0.0610865242779255,0.0027488935738802,0.0021380283869803
5,1.02222228662528,-0.122222230451108,0.0597222233422998,0.0555887371301651,0.00519235478714108,-0.000610865245107561
5,1.02361117850853,-0.122222230451108,0.0583333375370279,0.0580321997404099,-0.0033597587607801,0.00794124789535999
5,1.02083339474202,-0.12777778582816,0.055555559848502,0.0546724386513233,-0.0033597587607801,-0.00183259579353034
5,1.02222228662528,-0.125000002061652,0.0458333348996699,0.05283984541893,0.00641408516094089,0.00183259579353034
5,1.02222228662528,-0.118055554801345,0.0513888902767219,0.0479529201984406,0.0100792767480016,0.00488692196086049
5,1.01944450285877,-0.125000002061652,0.055555559848502,0.0470366254448891,0.0021380283869803,-0.000916297896765172
5,1.01944450285877,-0.126388893944906,0.0625000010308258,0.0442877300083637,0.00733038317412138,0.0027488935738802
5,1.02222228662528,-0.125000002061652,0.0611111152255539,0.0378736443817616,0.00488692196086049,-0.00397062394768
5,1.02500007039179,-0.12777778582816,0.0597222233422998,0.0363464802503586,0.00427605677396059,0.00397062394768
5,1.02222228662528,-0.133333341205212,0.0611111152255539,0.0259617734700441,0.00885754637420177,0.00122173049021512
5,1.01666671909226,-0.130555557438704,0.0597222233422998,0.00580321997404099,0.00794124789535999,0.00122173049021512
5,1.01944450285877,-0.130555557438704,0.0680555564078778,0.0109955742955208,0.0027488935738802,0.00488692196086049
5,1.02222228662528,-0.125000002061652,0.0611111152255539,0.00641408516094089,0.00397062394768,0.00183259579353034
5,1.02083339474202,-0.12777778582816,0.0569444456537738,0.00794124789535999,0.0109955742955208,0.000916297896765172
5,1.02361117850853,-0.126388893944906,0.0583333375370279,0.00427605677396059,0.01191187184304,-0.00916297826915979
5,1.02361117850853,-0.130555557438704,0.0513888902767219,0.00122173049021512,0.00946841109544039,-0.00824668072164059
5,1.02083339474202,-0.12777778582816,0.0611111152255539,0.00549778714776039,0.0103847095742822,-0.013744467869401
5,1.01944450285877,-0.122222230451108,0.0583333375370279,0.00427605677396059,0.0106901414692402,-0.00763581553474069
5,1.02083339474202,-0.1194444466846,0.0680555564078778,0.00152716308366507,0.00488692196086049,-0.000916297896765172
5,1.02222228662528,-0.126388893944906,0.0583333375370279,-0.00488692196086049,0.0131336031481624,-0.0045814891345799
5,1.02222228662528,-0.12777778582816,0.0583333375370279,-0.019547687843442,0.0177150927484035,0.00671951752156019
5,1.02361117850853,-0.120833338567854,0.0680555564078778,-0.00885754637420177,0.0021380283869803,0.00305432616733015
5,1.02222228662528,-0.125000002061652,0.0625000010308258,-0.00671951752156019,-0.00183259579353034,-0.00397062394768
5,1.02500007039179,-0.130555557438704,0.0583333375370279,-0.00305432616733015,0.0106901414692402,-0.00733038317412138
5,1.01666671909226,-0.125000002061652,0.0597222233422998,-0.000916297896765172,0.0113010071218014,-0.00427605677396059
5,1.01944450285877,-0.125000002061652,0.0638888929140799,0.000305432622553781,0.00366519158706069,-0.00427605677396059
