Activity,acc_x,acc_y,acc_z,gyro_x,gyro_y,gyro_z
0,0.500000008246606,-0.00694444498106275,0.856944444261187,0.0549778714776039,-0.0833831056952477,0.0448985956609249
0,0.518055554105052,-0.0125000003581147,0.847222298326124,0.117286130785942,0.0717766657471657,0.0180205255746841
0,0.518055554105052,-0.0125000003581147,0.847222298326124,0.0897971913218498,-0.00855211354792118,-0.00916297826915979
0,0.518055554105052,-0.0125000003581147,0.847222298326124,0.0897971913218498,-0.00855211354792118,-0.00916297826915979
0,0.509722251429385,0.00694444498106275,0.848611190209378,0.0623082555830479,-0.0192422550171614,-0.0268780700862408
0,0.511111143312639,0.0180555564949145,0.854166660494678,0.0662788823246956,0.00977384392172098,0.0192422550171614
0,0.522222229754814,0.0125000003581147,0.863888903677457,0.0946841165423393,0.0519235469400883,0.00916297826915979
0,0.526388905404577,0.00555555575692586,0.879166714393253,0.0757472887635231,-0.0143553335219622,0.0149661982432008
0,0.529166689171085,-0.00138888893923146,0.854166660494678,0.0598647929728031,-0.12156218290329,0.0219911485910416
0,0.529166689171085,-0.00138888893923146,0.843055622676362,0.0369573459029198,-0.0320704244077206,0.0027488935738802
0,0.519444445988306,0.00138888893923146,0.831944487610329,0.0146607663482428,0.0256563406437635,0.0345138870179653
0,0.523611121638068,-0.00138888893923146,0.848611190209378,-0.00977384392172098,0.0033597587607801,0.0455094613134861
0,0.523611121638068,-0.00138888893923146,0.848611190209378,0.0232128798961639,-0.00366519158706069,0.0360410511493683
0,0.523611121638068,-0.00138888893923146,0.848611190209378,0.017409659922123,0.0177150927484035,0.0418442711234093
0,0.526388905404577,-0.00277777787846293,0.852777768611424,-0.0033597587607801,0.0598647929728031,0.0204639863222837
0,0.526388905404577,-0.00277777787846293,0.852777768611424,0.0100792767480016,0.0919352173805237,-0.0280998013913631
0,0.52083333787156,-0.00277777787846293,0.848611190209378,-0.00305432616733015,-0.00305432616733015,-0.00427605677396059
0,0.52083333787156,-0.00416666691266287,0.841666730793107,-0.0250454749912024,-0.0308486949652433,-0.00152716308366507
0,0.522222229754814,-0.00277777787846293,0.840277838909853,-0.0140499006956816,-0.0293215326964855,-0.00427605677396059
0,0.519444445988306,-0.00416666691266287,0.848611190209378,-0.0180205255746841,0.0122173046693206,-0.0131336031481624
0,0.512500035195893,-0.00277777787846293,0.847222298326124,-0.0241291765123606,-0.00366519158706069,-0.0167987942695618
0,0.518055554105052,-0.00555555575692586,0.861111119910949,0.0103847095742822,0.0149661982432008,-0.0232128798961639
0,0.52083333787156,-0.00138888893923146,0.863888903677457,0.00946841109544039,0.0421497002243996,-0.0290160998702049
0,0.512500035195893,0.00555555575692586,0.854166660494678,0.0171042270958424,0.0681114718317986,-0.013744467869401
0,0.505555575779623,0.00416666691266287,0.852777768611424,-0.00885754637420177,0.0222965814173222,-0.00885754637420177
0,0.506944467662877,0.00277777787846293,0.856944444261187,-0.0354301854968071,-0.00763581553474069,-0.00549778714776039
0,0.512500035195893,-0.00277777787846293,0.859722228027695,-0.0665843114256859,-0.0308486949652433,-0.000610865245107561
0,0.52083333787156,-0.00277777787846293,0.85138887672817,-0.0882700309157372,-0.0568104684352875,0.000916297896765172
0,0.522222229754814,-0.00277777787846293,0.836111163260091,-0.0616973899304867,-0.0171042270958424,-0.000305432622553781
0,0.52083333787156,-0.00277777787846293,0.844444514559616,-0.00977384392172098,0.0256563406437635,-0.0033597587607801
0,0.516666662221798,-0.00138888893923146,0.85138887672817,-0.0122173046693206,0.0244346093386412,0.00855211354792118
0,0.522222229754814,-0.00416666691266287,0.838888947026599,-0.0265726372599602,0.00549778714776039,0.02382374368608
0,0.525000013521323,-0.00277777787846293,0.856944444261187,0.0259617734700441,-0.0271835029125214,0.0219911485910416
0,0.525000013521323,-0.00277777787846293,0.858333336144441,0.0433714315295219,0.00946841109544039,0.0284052342176437
0,0.525000013521323,-0.00277777787846293,0.863888903677457,0.0500909499824047,0.0323758572340012,0.0229074470698834
0,0.522222229754814,-0.00694444498106275,0.85138887672817,0.0177150927484035,-0.0455094613134861,0.0167987942695618
0,0.518055554105052,-0.00972222266958873,0.852777768611424,-0.027488935738802,-0.134084925055504,0.03176499158144
0,0.522222229754814,-0.00555555575692586,0.854166660494678,-0.0201585534960032,-0.170431405305862,0.0394008085131645
0,0.529166689171085,-0.0166666676506515,0.856944444261187,-0.05283984541893,-0.315206468105316,0.0983493030071259
0,0.555555586329055,-0.0347222241455659,0.82222224442755,-0.142331600189209,-0.355523586273193,0.123089343309402
0,0.54722223502953,-0.026388891079988,0.809722266102121,-0.115453533828259,-0.125227376818657,0.0867428630590439
0,0.508333359546131,-0.00972222266958873,0.831944487610329,-0.058643065392971,0.104152522981167,0.111482910811901
0,0.512500035195893,0.0125000003581147,0.859722228027695,0.00763581553474069,0.115758962929249,0.0772744566202164
0,0.54027777561326,-0.029166668768514,0.856944444261187,-0.00763581553474069,0.0592539273202419,0.0537561401724815
0,0.529166689171085,-0.0222222230277034,0.818055568777787,-0.087659165263176,0.070249505341053,0.0543670058250427
0,0.522222229754814,-0.0152777788063885,0.830555595727074,-0.021685715764761,-0.150272846221924,0.0675006061792374
0,0.526388905404577,-0.0152777788063885,0.854166660494678,0.126449108123779,-0.165849909186363,0.0858265683054924
0,0.52083333787156,-0.0194444453391775,0.837500055143345,0.021685715764761,0.104763388633728,0.0180205255746841
0,0.550000018796039,-0.0194444453391775,0.848611190209378,0.0534507073462009,0.107817716896534,-0.0027488935738802
0,0.527777797287831,-0.029166668768514,0.847222298326124,0.0665843114256859,-0.0549778714776039,0.0351247526705265
0,0.531944472937593,-0.00555555575692586,0.865277795560711,0.0836885422468185,-0.0897971913218498,0.00610865233466029
0,0.529166689171085,0.00972222266958873,0.858333336144441,0.0705549344420433,0.0366519130766392,-0.02382374368608
0,0.565277780887976,-0.00277777787846293,0.82916670384382,-0.0647517144680023,0.194255143404007,-0.0485637858510017
0,0.562499997121468,-0.0250000007162294,0.818055568777787,-0.0916297882795334,0.13225232064724,-0.0161879286170006
0,0.562499997121468,-0.0250000007162294,0.818055568777787,-0.0271835029125214,0.00702495034784079,-0.0164933614432812
0,0.544444451263022,-0.0194444453391775,0.858333336144441,0.0403171069920063,-0.1750128865242,-0.00397062394768
0,0.565277780887976,-0.00833333382532574,0.901388887277602,0.364381104707718,0.107206851243973,-0.0482583530247212
0,0.565277780887976,-0.00833333382532574,0.901388887277602,0.408057987689972,0.28557950258255,0.00305432616733015
0,0.53750004047061,-0.026388891079988,0.834722271376837,0.416610091924667,0.408974289894104,0.161268427968025
0,0.53750004047061,-0.026388891079988,0.834722271376837,0.344222575426102,-0.0635299831628799,0.259312301874161
0,0.525000013521323,0.00972222266958873,0.795833347269579,0.122783914208412,-0.519846320152283,0.25411993265152
0,0.525000013521323,0.00972222266958873,0.795833347269579,-0.140804439783096,-0.157297804951668,0.240070044994354
0,0.495833332596844,0.0652777787193518,0.841666730793107,-0.189368233084679,0.50335294008255,0.13744467496872
0,0.495833332596844,0.0652777787193518,0.841666730793107,0.0354301854968071,0.833525598049164,0.178983509540558
0,0.526388905404577,0.0125000003581147,0.934722292475701,0.38576140999794,0.922406494617462,0.447458803653717
0,0.305555557893823,0.055555559848502,0.726388898978447,0.00397062394768,0.895528435707092,0.630718350410461
0,0.430555559955475,0.0597222233422998,0.702777785586986,-0.0525344125926495,0.376903861761093,0.487775892019272
0,0.426388884305712,0.0416666683668809,0.791666671619817,0.0555887371301651,0.417526394128799,0.729983985424042
0,0.405555578992687,0.0416666683668809,0.841666730793107,-0.0201585534960032,0.786794424057007,0.846048355102539
0,0.423611149163062,-0.029166668768514,0.825000028194058,-0.323453158140182,0.752586007118225,0.850324392318726
0,0.416666689746791,-0.0875000002275597,0.815277785011279,-0.525954961776733,0.632550954818726,0.853989601135254
0,0.420833365396554,-0.14722222356986,0.840277838909853,-0.446237057447434,0.229685336351395,0.92943149805069
0,0.449999997697174,-0.2194444556275,0.876388930626744,-0.375987559556961,-0.0971275717020035,0.935845553874969
0,0.538888932353864,-0.272222225631511,0.923611157409668,0.0339030213654041,0.339335650205612,0.645990014076233
0,0.620833358970425,-0.294444447139719,1.03194452980806,0.518013715744019,0.628580331802368,0.0800233483314514
0,0.561111153862072,-0.250000004123303,1.02916674604155,0.70829826593399,0.629802048206329,-0.0250454749912024
0,0.476388894855144,-0.170833336961321,1.08611111875954,0.992045164108276,0.479834645986557,-0.0314595587551594
0,0.423611149163062,-0.0986111170596459,1.05833337834217,1.11146926879883,0.242513507604599,0.0143553335219622
0,0.390277792588821,-0.0708333340964038,0.979166735492117,0.980744123458862,-0.0342084541916847,0.153021737933159
0,0.372222246730376,-0.0458333348996699,0.869444471210474,0.717766642570496,-0.180510684847832,0.288633823394775
0,0.375000006184955,-0.0541666679652478,0.873611146860236,0.495411723852158,-0.202807262539864,0.421802461147308
0,0.411111122213775,-0.0583333375370279,0.861111119910949,0.261144906282425,-0.273667633533478,0.539088606834412
0,0.430555559955475,-0.0583333375370279,0.838888947026599,0.0302378293126821,-0.312763005495071,0.638354182243347
0,0.440277803138253,-0.0583333375370279,0.827777811960566,-0.206777885556221,-0.419358998537064,0.74006325006485
0,0.373611114301701,-0.0208333341834404,0.883333390043015,-0.312763005495071,-0.420886158943176,0.942259669303894
0,0.393055576355329,-0.0194444453391775,0.915277806110144,-0.178678080439568,-0.653014957904816,0.94195419549942
0,0.454166673346937,-0.0361111129898289,0.963888924776322,0.0766635909676552,-0.511905074119568,0.933096647262573
0,0.426388884305712,-0.0208333341834404,1.01944450285877,0.440739274024963,0.170736834406853,0.934318363666534
0,0.463888916529715,0.00833333382532574,0.979166735492117,0.463646709918976,0.397367835044861,0.76052725315094
0,0.437500019371745,0.0222222230277034,0.965277816659576,0.500298619270325,0.183870434761047,0.846964657306671
0,0.483333354271415,0.00277777787846293,0.956944465360051,0.639881372451782,0.0580321997404099,0.726318776607513
0,0.545833343146276,-0.029166668768514,0.863888903677457,0.689666867256165,0.297491371631622,0.480140089988708
0,0.405555578992687,-0.029166668768514,0.82916670384382,0.568104684352875,0.4914411008358,0.71959924697876
0,0.295833339022973,0.0444444460554069,0.865277795560711,0.445626199245453,1.27395951747894,0.855516791343689
0,0.325000019947452,-0.00972222266958873,0.993055557076942,0.33292156457901,2.51340508460998,0.813672482967377
0,0.212499996211229,-0.0472222237439329,1.05555559457566,-0.598647952079773,4.31240320205688,1.26479649543762
0,0.341666673922643,-0.0722222259796579,1.09861114570882,-1.21317839622498,4.43335437774658,1.93033421039581
0,0.380555573717971,0.030555557612777,0.794444455386325,-1.39643800258636,1.72661066055298,1.69087505340576
0,0.308333341660331,-0.0194444453391775,0.826388920077312,-1.25471723079681,0.636826992034912,2.81517243385315
0,0.290277795801886,-0.220833347510754,0.948611114060526,-1.44072568416596,0.101709060370922,3.63342642784119
0,0.202777789496344,-0.355555568443255,0.99583334084345,-1.56106615066528,-0.720210134983063,4.76627588272095
0,0.18333333959868,-0.377777789951463,1.02083339474202,-1.33596229553223,-1.05801856517792,5.38630437850952
0,0.223611131277262,-0.252777787889811,1.08194444310977,-1.00304079055786,-1.406822681427,5.3847770690918
0,0.326388911830706,-0.238888893369199,1.10416671324184,-1.10658240318298,-2.03173780441284,5.0216178894043
0,0.386111116939059,-0.375000006184955,1.04444445950963,-1.29289627075195,-3.44375276565552,4.6691484451294
0,0.288888903918631,-0.431944451838729,0.855555552377932,-1.72386169433594,-5.07812261581421,3.93000149726868
0,0.223611131277262,-0.311111125426839,0.737500034044481,-2.12458920478821,-6.4495153427124,3.28187346458435
0,0.313888909193348,-0.331944455051793,0.608333332021137,-2.94314885139465,-7.9049015045166,2.44498825073242
0,0.384722225055805,-0.416666689746791,0.548611126912784,-4.26200675964355,-8.45956707000732,1.81518602371216
0,0.527777797287831,-0.516666662221798,0.56666667277123,-4.3682975769043,-7.87527465820313,1.82862508296967
0,0.630555602153203,-0.545833343146276,0.630555602153203,-3.09586501121521,-8.14894199371338,1.67193818092346
0,0.591666678045946,-0.558333370095563,0.502777792013115,-3.10563898086548,-7.84564781188965,1.32282865047455
0,0.52083333787156,-0.479166678621653,0.420833365396554,-4.46603584289551,-6.28305435180664,1.29075825214386
0,0.611111115787646,-0.80277780668585,0.208333344873396,-5.63187217712402,-5.37714147567749,1.09314334392548
0,0.706944461236748,-0.75000001236991,0.140277788465518,-4.96908330917358,-5.22106504440308,0.779158592224121
0,0.744444493460751,-0.766666714968959,0.0472222237439329,-3.62273645401001,-4.5827112197876,0.870482981204987
0,0.744444493460751,-0.854166660494678,0.170833336961321,-0.991739749908447,-2.01952052116394,0.277943700551987
0,0.811111157985375,-0.740277817810989,-0.120833338567854,0.557719945907593,-2.45598363876343,-0.695164620876312
0,0.862500011794203,-0.826388920077312,-0.265277790527169,0.104763388633728,-2.44101762771606,-1.01037108898163
0,0.6319444454126,-0.793055563503071,-0.348611133338914,-0.600785970687866,-2.01585531234741,-0.00397062394768
0,0.509722251429385,-0.794444455386325,-0.244444460902216,-0.430049121379852,-1.85977923870087,0.274889349937439
0,0.194444450352783,-0.580555591603771,-0.350000000910239,-0.142026171088219,-1.39643800258636,-0.46547931432724
0,0.194444450352783,-0.580555591603771,-0.350000000910239,0.117286130785942,0.345749735832214,-0.796262860298157
0,0.194444450352783,-0.580555591603771,-0.350000000910239,0.268780708312988,2.75622391700745,-1.47982108592987
0,0.770833341994863,-0.906944454810619,-0.531944472937593,0.61850106716156,3.75895929336548,-2.24034833908081
0,0.779166693294388,-0.840277838909853,-0.447222262554524,1.90040183067322,0.800844311714172,-1.80999374389648
0,0.787500044593913,-0.591666678045946,-0.388888900705567,1.22050881385803,0.350942075252533,-1.32618844509125
0,0.751388904253164,-0.647222256128395,-0.279166685047782,0.984409332275391,0.805731236934662,-0.922711968421936
0,0.716666704419527,-0.602777813111979,-0.273611117514765,0.957531273365021,0.487165033817291,-2.37932014465332
0,0.870833363093728,-0.676388937052873,-0.190277786858986,0.433408886194229,-0.536339700222015,-3.25866055488586
0,0.96666670854283,-0.625000034620187,0.00833333382532574,-1.06107294559479,-0.415693789720535,-3.3026430606842
0,0.743055601577497,-0.552777802562547,-0.0902777839940679,-1.12429749965668,-1.30969512462616,-4.11539936065674
0,0.894444525109048,-0.275000009398019,-0.236111109602691,-0.51434850692749,-1.06718158721924,-5.08178806304932
0,0.955555573476797,-0.305555557893823,-0.481944462388161,0.243735238909721,0.837496280670166,-3.33410239219665
0,1.22361112345855,-0.5930555699292,-0.361111135976272,0.0189368221908808,-0.474642306566238,-0.497549742460251
0,1.22361112345855,-0.5930555699292,-0.361111135976272,-0.0558941699564457,-0.361632227897644,-0.200974673032761
0,1.0333333244436,-0.476388894855144,-0.406944470875941,-0.0271835029125214,-0.0342084541916847,-0.2379320114851
0,0.936111184358955,-0.50138890012986,-0.354166676560001,-0.0901026204228401,0.113926365971565,-0.504880130290985
0,0.766666714968959,-0.404166687109433,-0.336111130701556,0.00916297826915979,0.869566679000854,-0.39675697684288
0,0.731944466511464,-0.341666673922643,-0.269444466176932,0.211664810776711,1.56442594528198,0.435546934604645
0,0.795833347269579,-0.20138889761309,-0.0875000002275597,0.202501833438873,1.52869021892548,0.0543670058250427
0,1.08055555122652,-0.206944452990142,-0.202777789496344,0.255341678857803,1.28373336791992,0.384539663791656
0,1.08333333499303,-0.348611133338914,-0.288888903918631,0.143553331494331,1.48776233196259,0.129808858036995
0,1.1708333291426,-0.447222262554524,-0.261111114877407,0.0797179117798805,1.44713973999023,0.0335975885391235
0,1.1708333291426,-0.447222262554524,-0.261111114877407,0.0980438739061356,1.03388941287994,-0.153632611036301
0,1.1708333291426,-0.447222262554524,-0.261111114877407,0.0525344125926495,0.860709130764008,-0.0125227374956012
0,0.884722281926269,-0.295833339022973,-0.0180555564949145,-0.134084925055504,0.01191187184304,0.268169850111008
0,0.884722281926269,-0.295833339022973,-0.0180555564949145,-0.199447497725487,-0.17409659922123,0.913548946380615
0,0.780555585177642,-0.312500017310094,-0.029166668768514,-0.171958565711975,-0.145996794104576,1.26815629005432
0,0.780555585177642,-0.312500017310094,-0.029166668768514,-0.1795943826437,-0.893390417098999,0.736092627048492
0,0.780555585177642,-0.312500017310094,-0.029166668768514,0.491746515035629,1.96393179893494,0.207083314657211
0,0.780555585177642,-0.312500017310094,-0.029166668768514,0.491746515035629,1.96393179893494,0.207083314657211
0,0.780555585177642,-0.312500017310094,-0.029166668768514,0.491746515035629,1.96393179893494,0.207083314657211
0,0.780555585177642,-0.312500017310094,-0.029166668768514,0.491746515035629,1.96393179893494,0.207083314657211
0,0.780555585177642,-0.312500017310094,-0.029166668768514,0.491746515035629,1.96393179893494,0.207083314657211
0,0.849999984844916,-0.405555578992687,-0.20972223675665,0.463646709918976,1.94927096366882,0.207083314657211
0,0.819444460661041,-0.413888905980283,-0.15555556271342,0.299323976039886,2.29593706130981,0.487470477819443
0,1.00972225967599,-0.484722246154669,0.0416666683668809,0.36987891793251,1.13865280151367,0.0977384373545647
0,1.14027780495873,-0.502777792013115,0.0458333348996699,0.247400417923927,0.335670441389084,-0.341168224811554
0,1.14027780495873,-0.502777792013115,0.0458333348996699,0.0809396430850029,-0.369573473930359,-0.35430184006691
0,1.11944452395763,-0.412500014097029,-0.0708333340964038,-0.0980438739061356,-0.44959682226181,-0.188757359981537
0,1.06388894587519,-0.380555573717971,-0.105555564319952,-0.107206851243973,-0.27458393573761,-0.098960168659687
0,1.06388894587519,-0.380555573717971,-0.105555564319952,-0.0574213340878487,0.25411993265152,0.0925460830330849
0,0.933333400592447,-0.356944460326509,-0.03194444645704,-0.133779495954514,-0.0678060427308083,0.110566608607769
0,0.89166674134254,-0.370833354847121,-0.03194444645704,-0.126449108123779,-0.352774679660797,0.164322748780251
0,0.959722249126559,-0.358333352209763,-0.0194444453391775,-0.090408056974411,-0.409279704093933,0.0992656052112579
0,1.10416671324184,-0.416666689746791,-0.055555559848502,-0.0479529201984406,-0.342084527015686,-0.25870144367218
0,0.883333390043015,-0.431944451838729,-0.027777779924251,-0.103847093880177,-0.530841886997223,-0.241291776299477
0,0.787500044593913,-0.397222227693163,-0.0166666676506515,0.0314595587551594,-0.319177091121674,-0.070249505341053
0,0.954166681593543,-0.433333343721983,-0.0583333375370279,-0.019547687843442,-0.417220950126648,-0.326202034950256
0,1.0305556379248,-0.480555570504907,-0.0819444448505077,-0.149051114916802,-0.481056392192841,-0.49632802605629
0,0.948611114060526,-0.420833365396554,-0.111111119697004,-0.104763388633728,-0.373849540948868,-0.453567445278168
0,0.831944487610329,-0.390277792588821,-0.101388894748172,-0.151494577527046,-0.24862214922905,-0.436463207006455
0,0.983333411141879,-0.437500019371745,-0.108333335930496,-0.166460782289505,-0.0571159012615681,-0.595288157463074
0,1.04166667574312,-0.380555573717971,-0.163888889701015,-0.191811680793762,0.244956970214844,-0.641408503055573
0,0.872222254976982,-0.363888895430851,-0.113888891307548,-0.0290160998702049,0.398894995450974,-0.163406446576118
0,0.858333336144441,-0.288888903918631,-0.111111119697004,0.00610865233466029,0.308181524276733,-0.0497855171561241
0,0.956944465360051,-0.343055565805897,-0.0847222225390337,-0.0598647929728031,0.0733038261532784,-0.100792765617371
0,0.923611157409668,-0.338888890156135,-0.140277788465518,-0.0797179117798805,0.0916297882795334,-0.188757359981537
0,0.879166714393253,-0.316666668647927,-0.125000002061652,-0.096211276948452,0.250760197639465,-0.204945296049118
0,1.01944450285877,-0.343055565805897,-0.118055554801345,0.00366519158706069,-0.013744467869401,-0.241902634501457
0,1.06388894587519,-0.377777789951463,-0.122222230451108,-0.03176499158144,0.0992656052112579,-0.241902634501457
0,1.02638896227504,-0.351388892793493,-0.0916666697993398,-0.0729983970522881,0.156076073646545,-0.34391713142395
0,0.923611157409668,-0.311111125426839,-0.0777777813567098,-0.027488935738802,0.178372651338577,-0.229074463248253
0,0.99583334084345,-0.333333346935047,-0.0694444482911319,-0.0412334054708481,-0.00641408516094089,-0.208610475063324
0,1.01944450285877,-0.308333341660331,-0.0652777787193518,-0.0797179117798805,-0.109344877302647,-0.220216915011406
0,1.02500007039179,-0.272222225631511,-0.0805555590452358,-0.0342084541916847,-0.156686931848526,-0.123700208961964
0,1.02916674604155,-0.279166685047782,-0.0930555616825939,-0.03176499158144,-0.161573857069016,-0.10567969083786
0,0.99583334084345,-0.262500006760661,-0.0847222225390337,-0.0198531206697226,-0.113620936870575,-0.109039448201656
0,0.955555573476797,-0.288888903918631,-0.0722222259796579,-0.0690277740359306,-0.205250725150108,-0.015577063895762
0,0.979166735492117,-0.306944449777077,-0.0750000036681839,-0.0623082555830479,-0.191200822591782,-0.0241291765123606
0,1.01111115155925,-0.326388911830706,-0.12777778582816,-0.0256563406437635,0.0290160998702049,-0.0745255574584007
0,0.976388951725609,-0.312500017310094,-0.136111112815755,-0.0653625801205635,0.109344877302647,-0.111482910811901
0,0.968055600426084,-0.333333346935047,-0.0750000036681839,-0.0925460830330849,0.00916297826915979,-0.183259576559067
0,0.986111194908388,-0.345833349572405,-0.0833333367337618,-0.235793977975845,0.119424156844616,-0.238848313689232
0,1.01805561097552,-0.312500017310094,-0.10972222781375,-0.26969701051712,0.0937678143382072,-0.298102229833603
0,1.05277781080915,-0.269444466176932,-0.102777780553444,0.0287106670439243,0.0604756586253643,-0.110566608607769
0,1.02500007039179,-0.29166668768514,-0.0986111170596459,0.0662788823246956,0.0470366254448891,-0.0830776765942574
0,0.947222222177272,-0.265277790527169,-0.0708333340964038,0.0229074470698834,-0.0720821022987366,-0.134390354156494
0,0.955555573476797,-0.295833339022973,-0.0486111125881959,-0.0397062413394451,-0.23304508626461,-0.231212496757507
0,0.930555616825939,-0.222222239394008,-0.0986111170596459,0.109955742955208,-0.0189368221908808,-0.287717521190643
0,0.904166671044111,-0.263888898643915,-0.10972222781375,0.200363799929619,0.214719131588936,-0.126143679022789
0,0.986111194908388,-0.238888893369199,-0.138888896582264,0.219911485910416,0.422413319349289,-0.0913243517279625
0,1.01527782720901,-0.290277795801886,-0.0819444448505077,0.0219911485910416,0.197920337319374,-0.180816113948822
0,0.991666665193688,-0.286111120152123,-0.0611111152255539,-0.0250454749912024,0.0577267669141293,-0.289855569601059
0,0.938888968125464,-0.256944463539574,-0.0791666671619817,-0.0418442711234093,0.0467311926186085,-0.474947720766068
0,1.02500007039179,-0.286111120152123,-0.0722222259796579,0.00855211354792118,-0.000916297896765172,-0.487470477819443
0,1.02500007039179,-0.286111120152123,-0.0722222259796579,-0.0485637858510017,0.104763388633728,-0.514959394931793
0,1.02500007039179,-0.286111120152123,-0.0722222259796579,0.0357356183230877,0.0326812900602817,-0.441655576229096
0,0.983333411141879,-0.233333350148112,-0.0680555564078778,0.0623082555830479,-0.159435823559761,-0.362548530101776
0,0.983333411141879,-0.216666671860991,-0.033333335301303,0.0439822971820831,-0.424856781959534,-0.389426589012146
0,0.965277816659576,-0.206944452990142,-0.0708333340964038,-0.0681114718317986,-0.676533281803131,-0.574824213981628
0,0.976388951725609,-0.187500003092477,-0.0875000002275597,-0.0485637858510017,-0.660956203937531,-0.530536472797394
0,1.05833337834217,-0.188888894975731,-0.154166670830166,0.090408056974411,-0.5128213763237,-0.39675697684288
0,1.07500008094122,-0.18333333959868,-0.163888889701015,0.112704634666443,-0.398589581251144,-0.198225766420364
0,1.06805562152495,-0.208333344873396,-0.134722233088466,0.159435823559761,-0.409585148096085,-0.0739146918058395
0,1.03194452980806,-0.169444445078067,-0.148611115453114,0.0583376325666905,-0.390037447214127,0.102930791676045
0,1.03194452980806,-0.141666668192807,-0.140277788465518,-0.0610865242779255,-0.520151734352112,0.178067222237587
0,1.0305556379248,-0.159722226207217,-0.16527778158427,0.0265726372599602,-0.289855569601059,0.250454753637314
0,1.07083340529146,-0.25555557165632,-0.268055574293678,0.226020142436027,0.319177091121674,0.102319926023483
0,1.01805561097552,-0.2194444556275,-0.154166670830166,0.0821613743901253,0.110566608607769,0.0433714315295219
0,1.02638896227504,-0.158333334323963,-0.156944454596674,0.0739146918058395,0.29596421122551,0.143553331494331
0,1.06250005399193,-0.143055560076062,-0.200000005729836,0.011606439948082,0.654236674308777,0.228769034147263
0,1.02222228662528,-0.169444445078067,-0.216666671860991,-0.0558941699564457,1.24555420875549,0.237321153283119
0,1.00555558402623,-0.20972223675665,-0.170833336961321,-0.0946841165423393,1.54426729679108,0.194866016507149
0,0.963888924776322,-0.244444460902216,-0.026388891079988,-0.0678060427308083,1.05374252796173,0.0565050356090069
0,0.899999995394348,-0.168055565350778,0.0708333340964038,0.00183259579353034,0.198836639523506,0.0965167060494423
0,0.911111130460381,-0.181944447715425,0.140277788465518,-0.0189368221908808,-0.664621412754059,0.0247400421649218
0,0.968055600426084,-0.180555567988136,0.030555557612777,-0.0427605658769607,-0.965777933597565,0.0390953756868839
0,0.96666670854283,-0.181944447715425,-0.111111119697004,-0.0366519130766392,-0.698524415493011,0.145996794104576
0,0.926388941176177,-0.18333333959868,-0.158333334323963,-0.0122173046693206,-0.168598800897598,0.398589581251144
0,0.923611157409668,-0.226388890731841,-0.125000002061652,0.0302378293126821,-0.0134390350431204,0.546724379062653
0,0.854166660494678,-0.204166669223633,-0.112499999424294,0.109039448201656,-0.0952949747443199,0.946535706520081
0,0.945833330294018,-0.247222220356795,-0.0652777787193518,0.162490159273148,-0.374765813350677,1.08214783668518
0,1.14861115625826,-0.315277801076602,-0.104166672436698,0.176234617829323,-0.425773084163666,0.605672895908356
0,1.0694445134082,-0.288888903918631,-0.206944452990142,0.169820532202721,0.02382374368608,0.456010907888412
0,1.03472221632685,-0.312500017310094,-0.169444445078067,0.128281697630882,0.309403240680695,0.373544096946716
0,1.00277780025972,-0.313888909193348,-0.13750000469901,0.177150920033455,0.29107728600502,0.193338856101036
0,0.941666654644256,-0.275000009398019,-0.12777778582816,0.168293371796608,0.345749735832214,0.187535628676414
0,0.968055600426084,-0.302777798439244,-0.154166670830166,0.175623759627342,0.683863639831543,0.18539759516716
0,0.968055600426084,-0.302777798439244,-0.154166670830166,0.200363799929619,0.828638732433319,-0.258090555667877
0,0.811111157985375,-0.300000014672736,-0.0680555564078778,0.148440256714821,0.398894995450974,-1.35306656360626
5,0.925000049292922,-0.338888890156135,-0.134722233088466,0.143553331494331,0.645990014076233,-1.07878804206848
5,1.05277781080915,-0.262500006760661,-0.100000002864918,0.113926365971565,0.740674138069153,-0.391564607620239
5,0.984722303025134,-0.294444447139719,0.00416666691266287,0.113620936870575,0.534507095813751,-0.352774679660797
5,0.87500003874349,-0.2194444556275,-0.0166666676506515,0.0925460830330849,0.441960990428925,-0.323453158140182
5,1.00694447590948,-0.254166679773066,-0.0166666676506515,0.127365410327911,0.252287358045578,-0.104152522981167
5,1.19305559927467,-0.301388906555989,-0.0347222241455659,0.197920337319374,0.608727216720581,-0.0641408488154411
5,1.17638889667562,-0.261111114877407,0.00277777787846293,0.0623082555830479,0.535728812217712,0.0870482996106148
5,1.06666672964169,-0.238888893369199,0.0652777787193518,0.0946841165423393,-0.111482910811901,0.0812450796365738
5,1.00972225967599,-0.25555557165632,0.0458333348996699,0.204334422945976,-0.485027015209198,0.108734011650086
5,0.972222276075846,-0.238888893369199,-0.0194444453391775,0.261755764484406,-0.315511912107468,0.261144906282425
5,1.04583335139288,-0.265277790527169,-0.0666666706026059,0.21685716509819,-0.00488692196086049,0.253814518451691
5,1.02777785415829,-0.270833333748257,-0.030555557612777,0.120645888149738,-0.0565050356090069,0.144775062799454
5,1.00555558402623,-0.277777793164528,0.00972222266958873,0.132863193750381,-0.299018532037735,0.0891863256692886
5,1.04444445950963,-0.275000009398019,-0.0194444453391775,0.109650313854218,-0.262061178684235,0.00610865233466029
5,1.09305557817581,-0.272222225631511,-0.052777782159976,0.0891863256692886,-0.0861319974064827,-0.0171042270958424
5,1.11944452395763,-0.277777793164528,-0.055555559848502,0.0452040284872055,0.223576679825783,-0.0616973899304867
5,1.17916668044213,-0.262500006760661,-0.055555559848502,0.0507018156349659,0.119118720293045,-0.0901026204228401
5,1.20277784245745,-0.258333331110899,-0.00277777787846293,0.0207694191485643,0.0210748501121998,-0.116675265133381
5,1.18055557232538,-0.234722242031366,-0.029166668768514,-0.223576679825783,0.255036234855652,-0.175623759627342
5,1.0513889189259,-0.230555566381603,-0.0500000014324589,-0.293215304613113,1.20218276977539,-0.216246291995048
5,0.883333390043015,-0.238888893369199,-0.468055592179478,-0.543364644050598,3.36770009994507,-0.153632611036301
5,0.605555596878487,-0.226388890731841,0.166666673467524,-0.106901414692402,0.29596421122551,-0.0143553335219622
5,0.826388920077312,-0.281944444502361,0.122222230451108,-0.0739146918058395,-0.107817716896534,0.03176499158144
5,0.98888888142718,-0.279166685047782,0.0847222225390337,-0.0418442711234093,-0.0836885422468185,-0.00763581553474069
5,1.03888889197661,-0.273611117514765,0.0611111152255539,-0.0222965814173222,-0.0229074470698834,-0.0232128798961639
5,1.02638896227504,-0.272222225631511,0.0611111152255539,-0.0171042270958424,-0.0033597587607801,-0.0345138870179653
5,1.01111115155925,-0.270833333748257,0.0638888929140799,0.0436768643558025,-0.0253509078174829,-0.00733038317412138
5,1.01111115155925,-0.270833333748257,0.0638888929140799,0.0485637858510017,-0.0280998013913631,0.0131336031481624
5,1.00555558402623,-0.251388896006557,0.0666666706026059,0.0561996027827263,-0.000916297896765172,0.015577063895762
5,1.01944450285877,-0.243055569018962,0.0680555564078778,0.0219911485910416,0.0403171069920063,0.00519235478714108
5,1.01388893532575,-0.243055569018962,0.0708333340964038,0.021685715764761,0.0339030213654041,0.02382374368608
5,0.986111194908388,-0.233333350148112,0.0736111117849297,-0.0021380283869803,0.0152716310694814,-0.0323758572340012
5,1.01527782720901,-0.227777782615095,0.0583333375370279,-0.0378736443817616,0.100792765617371,-0.0320704244077206
5,1.01944450285877,-0.230555566381603,0.0625000010308258,-0.0555887371301651,0.167071640491486,-0.00916297826915979
5,1.01666671909226,-0.238888893369199,0.0819444448505077,-0.0302378293126821,0.197309479117393,-0.00641408516094089
5,1.02222228662528,-0.247222220356795,0.0416666683668809,-0.0510072484612465,0.08460483700037,0.0103847095742822
5,0.986111194908388,-0.226388890731841,0.0875000002275597,-0.0610865242779255,0.0995710343122482,0.0360410511493683
5,0.990277773310434,-0.25555557165632,0.0763888894734557,-0.0140499006956816,0.0146607663482428,-0.000305432622553781
5,0.99583334084345,-0.261111114877407,0.100000002864918,0.00183259579353034,-0.124616511166096,0.0244346093386412
5,0.984722303025134,-0.250000004123303,0.0819444448505077,-0.0858265683054924,-0.345749735832214,0.0342084541916847
5,0.880555606276507,-0.18333333959868,0.101388894748172,-0.155465200543404,-0.412334054708481,0.139888137578964
5,0.980555627375371,-0.215277779977737,0.0680555564078778,-0.164933621883392,-0.233655959367752,0.0360410511493683
5,1.04166667574312,-0.248611112240049,0.0375000018340919,-0.118507854640484,0.0345138870179653,-0.01588249579072
5,1.00694447590948,-0.270833333748257,0.0875000002275597,0.0161879286170006,0.0455094613134861,-0.0284052342176437
5,1.00138890837647,-0.288888903918631,0.0430555572111439,0.0821613743901253,0.0626136884093285,-0.0351247526705265
5,0.998611124609959,-0.276388901281273,0.0541666679652478,0.111482910811901,0.0922406539320946,-0.0482583530247212
5,1.02222228662528,-0.265277790527169,0.0736111117849297,0.169820532202721,-0.0351247526705265,-0.00152716308366507
5,0.961111141009813,-0.237500001485945,0.0680555564078778,0.12156218290329,-0.11117747426033,0.0781907513737679
5,1.12777777800944,-0.272222225631511,0.123611110178398,0.246484130620956,0.3378084897995,-0.139277279376984
5,0.962500032893068,-0.216666671860991,0.0416666683668809,-0.0565050356090069,0.168293371796608,0.109039448201656
5,1.04166667574312,-0.256944463539574,0.0194444453391775,-0.104152522981167,0.374154955148697,0.0473420582711697
5,0.998611124609959,-0.243055569018962,0.0680555564078778,-0.04764748737216,0.334143280982971,0.0736092627048492
5,0.984722303025134,-0.244444460902216,0.0944444474878658,0.0232128798961639,0.215024560689926,0.0598647929728031
5,1.0361111082101,-0.265277790527169,0.0625000010308258,-0.417526394128799,-0.169820532202721,-0.00885754637420177
5,0.936111184358955,-0.243055569018962,0.197222234119292,0.0177150927484035,-0.299323976039886,0.0314595587551594
5,0.998611124609959,-0.250000004123303,0.105555564319952,0.0027488935738802,-0.210748508572578,0.0638354197144508
5,1.01944450285877,-0.233333350148112,0.0708333340964038,-0.0445931628346443,-0.194560587406159,0.101709060370922
5,1.00555558402623,-0.240277785252453,0.0486111125881959,-0.225103840231896,-0.226631000638008,0.0693332031369209
5,0.99583334084345,-0.259722222994153,0.0486111125881959,-0.348498612642288,0.0580321997404099,0.0491746515035629
5,1.04444445950963,-0.284722228268869,0.0930555616825939,-0.0577267669141293,0.260839462280273,0.0452040284872055
5,1.07083340529146,-0.287500012035377,0.0541666679652478,0.0659734457731247,0.389732033014297,0.0555887371301651
5,1.00000001649321,-0.284722228268869,0.055555559848502,0.154854342341423,0.0348193198442459,0.12705996632576
5,0.929166724942685,-0.268055574293678,0.0750000036681839,0.123700208961964,-0.101098194718361,0.0949895456433296
5,0.959722249126559,-0.254166679773066,0.0652777787193518,0.00610865233466029,-0.0684169083833694,0.0201585534960032
5,0.986111194908388,-0.247222220356795,0.0666666706026059,-0.0580321997404099,-0.0311541277915239,-0.0445931628346443
5,0.994444448960196,-0.250000004123303,0.0819444448505077,0.01191187184304,-0.118813291192055,-0.0620028227567673
5,1.01111115155925,-0.276388901281273,0.0694444482911319,0.0601702257990837,-0.185703039169311,-0.0726929605007172
5,1.01388893532575,-0.305555557893823,0.0680555564078778,0.122478485107422,-0.145080491900444,-0.104457959532738
5,1.0361111082101,-0.279166685047782,0.0652777787193518,0.131336033344269,-0.0626136884093285,-0.113620936870575
5,1.06388894587519,-0.238888893369199,0.0583333375370279,0.17409659922123,0.127976268529892,0.00794124789535999
5,1.06250005399193,-0.229166674498349,0.0569444456537738,0.0812450796365738,-0.0045814891345799,-0.0473420582711697
5,0.984722303025134,-0.238888893369199,0.0416666683668809,0.0665843114256859,0.00855211354792118,0.0167987942695618
5,0.969444492309338,-0.252777787889811,0.0541666679652478,0.0430659987032413,0.0134390350431204,0.0183259565383196
5,0.973611167959101,-0.25555557165632,0.0750000036681839,0.0415388382971287,0.0247400421649218,0.00122173049021512
5,0.98888888142718,-0.25555557165632,0.0777777813567098,0.0394008085131645,0.00183259579353034,0.015577063895762
5,1.00000001649321,-0.250000004123303,0.0930555616825939,0.0262672062963247,0.000610865245107561,0.021685715764761
5,1.00555558402623,-0.252777787889811,0.0847222225390337,0.0113010071218014,0.00855211354792118,0.0167987942695618
5,1.0125000434425,-0.252777787889811,0.0875000002275597,0.00946841109544039,0.0146607663482428,0.00519235478714108
5,1.0125000434425,-0.259722222994153,0.0777777813567098,0.00366519158706069,0.0277943685650826,0.0180205255746841
5,1.00555558402623,-0.270833333748257,0.0875000002275597,0.0100792767480016,0.0369573459029198,0.00977384392172098
5,1.00277780025972,-0.272222225631511,0.0708333340964038,0.021685715764761,0.0394008085131645,0.00702495034784079
5,1.00000001649321,-0.265277790527169,0.0736111117849297,0.0400116741657257,0.0436768643558025,0.0335975885391235
5,1.00972225967599,-0.265277790527169,0.0777777813567098,0.0601702257990837,0.0387899428606033,0.0549778714776039
5,1.00555558402623,-0.276388901281273,0.0763888894734557,0.0842994004487991,0.0213802829384804,0.0525344125926495
5,1.00000001649321,-0.287500012035377,0.0777777813567098,0.105374254286289,0.0192422550171614,0.0455094613134861
5,1.00000001649321,-0.287500012035377,0.0777777813567098,0.12675453722477,0.0430659987032413,0.0403171069920063
5,1.00000001649321,-0.284722228268869,0.0847222225390337,0.136528387665749,0.0510072484612465,0.0479529201984406
5,1.00694447590948,-0.275000009398019,0.0680555564078778,0.146607652306557,0.0589484944939613,0.0629191175103188
5,1.00694447590948,-0.275000009398019,0.0680555564078778,0.152716308832169,0.0397062413394451,0.0513126812875271
5,1.00000001649321,-0.281944444502361,0.0750000036681839,0.173485726118088,0.03176499158144,0.0531452745199203
5,0.990277773310434,-0.287500012035377,0.0777777813567098,0.208610475063324,0.0103847095742822,0.0662788823246956
5,0.991666665193688,-0.288888903918631,0.0944444474878658,0.222660377621651,-0.00824668072164059,0.0858265683054924
5,0.99583334084345,-0.283333336385615,0.0888888921108138,0.254425376653671,-0.0247400421649218,0.101403631269932
5,0.993055557076942,-0.280555576931036,0.0875000002275597,0.267253547906876,-0.0369573459029198,0.0968221426010132
5,0.99583334084345,-0.277777793164528,0.0888888921108138,0.272445887327194,-0.0372627787292004,0.0766635909676552
5,1.00277780025972,-0.269444466176932,0.0972222251763917,0.276416510343552,-0.0623082555830479,0.0610865242779255
5,1.00277780025972,-0.258333331110899,0.0916666697993398,0.252592772245407,-0.0589484944939613,0.0522289797663689
5,1.00833336779274,-0.241666677135707,0.0916666697993398,0.222965821623802,-0.0537561401724815,0.0363464802503586
5,1.01388893532575,-0.2194444556275,0.0916666697993398,0.150272846221924,-0.0293215326964855,0.0210748501121998
5,1.01944450285877,-0.202777789496344,0.0916666697993398,0.0784961804747581,-0.00549778714776039,0.0161879286170006
5,1.02222228662528,-0.19166667874224,0.0916666697993398,-0.00305432616733015,0.0293215326964855,-0.00977384392172098
5,1.02222228662528,-0.198611113846581,0.0972222251763917,-0.0928515195846558,0.0690277740359306,-0.0161879286170006
5,1.00277780025972,-0.205555561106887,0.0930555616825939,-0.151494577527046,0.117286130785942,-0.0192422550171614
5,0.997222232726705,-0.204166669223633,0.104166672436698,-0.189062789082527,0.121867619454861,-0.0140499006956816
5,1.00833336779274,-0.206944452990142,0.101388894748172,-0.212886542081833,0.108123145997524,-0.00702495034784079
5,1.00416669214298,-0.2194444556275,0.0944444474878658,-0.259923160076141,0.0870482996106148,-0.00946841109544039
5,0.99583334084345,-0.238888893369199,0.0875000002275597,-0.289550125598908,0.0662788823246956,-0.0201585534960032
5,0.99583334084345,-0.259722222994153,0.0861111144222878,-0.288939267396927,0.0659734457731247,-0.0326812900602817
5,0.997222232726705,-0.265277790527169,0.0944444474878658,-0.282525181770325,0.0665843114256859,-0.0513126812875271
5,0.99583334084345,-0.269444466176932,0.0916666697993398,-0.263893783092499,0.0668897479772568,-0.0595593601465225
5,0.997222232726705,-0.293055555256465,0.0888888921108138,-0.213802829384804,0.0390953756868839,-0.0442877300083637
5,0.997222232726705,-0.305555557893823,0.0875000002275597,-0.161879286170006,0.0232128798961639,-0.0351247526705265
5,1.00000001649321,-0.308333341660331,0.0902777839940679,-0.0980438739061356,0.0442877300083637,-0.0351247526705265
5,0.993055557076942,-0.312500017310094,0.0958333393711199,-0.0638354197144508,0.0290160998702049,-0.0271835029125214
5,0.986111194908388,-0.304166666010569,0.0888888921108138,-0.0247400421649218,0.00916297826915979,-0.0329867228865623
5,0.98888888142718,-0.297222230906227,0.0875000002275597,-0.0149661982432008,0.00122173049021512,-0.0259617734700441
5,0.99583334084345,-0.298611122789481,0.0888888921108138,0.00977384392172098,-0.0213802829384804,-0.0378736443817616
5,0.99583334084345,-0.295833339022973,0.0930555616825939,0.0345138870179653,-0.0256563406437635,-0.0445931628346443
5,0.998611124609959,-0.293055555256465,0.0944444474878658,0.0445931628346443,-0.019547687843442,-0.0400116741657257
5,0.99583334084345,-0.270833333748257,0.0916666697993398,0.0507018156349659,-0.0189368221908808,-0.0415388382971287
5,1.00138890837647,-0.261111114877407,0.0847222225390337,0.021685715764761,-0.000305432622553781,-0.0207694191485643
5,1.01111115155925,-0.265277790527169,0.0861111144222878,0.00366519158706069,-0.00916297826915979,-0.0189368221908808
5,1.00555558402623,-0.266666682410424,0.0972222251763917,-0.00183259579353034,0.00855211354792118,-0.0146607663482428
5,0.99583334084345,-0.265277790527169,0.0902777839940679,-0.00122173049021512,0.00366519158706069,-0.029626963660121
5,0.993055557076942,-0.263888898643915,0.0986111170596459,-0.0131336031481624,0.0045814891345799,-0.0308486949652433
5,1.00277780025972,-0.252777787889811,0.0958333393711199,-0.0378736443817616,0.0122173046693206,-0.0241291765123606
5,1.00138890837647,-0.256944463539574,0.0930555616825939,-0.0394008085131645,0.000916297896765172,-0.0128281703218818
5,1.01111115155925,-0.270833333748257,0.0875000002275597,-0.0387899428606033,0.0406225398182869,-0.01191187184304
5,1.00972225967599,-0.272222225631511,0.0888888921108138,-0.0229074470698834,0.0711658000946045,-0.0235183127224445
5,0.994444448960196,-0.270833333748257,0.0847222225390337,-0.0235183127224445,0.0503963828086853,-0.0247400421649218
5,0.994444448960196,-0.263888898643915,0.0902777839940679,-0.0262672062963247,0.0400116741657257,-0.0329867228865623
5,0.99583334084345,-0.261111114877407,0.0875000002275597,-0.0363464802503586,0.015577063895762,-0.0106901414692402
5,1.00416669214298,-0.256944463539574,0.0847222225390337,-0.0400116741657257,0.0192422550171614,-0.00610865233466029
5,1.0125000434425,-0.248611112240049,0.0888888921108138,-0.0470366254448891,0.0467311926186085,-0.000305432622553781
5,1.00972225967599,-0.251388896006557,0.0888888921108138,-0.0638354197144508,0.0635299831628799,-0.00183259579353034
5,1.00138890837647,-0.252777787889811,0.0875000002275597,-0.0729983970522881,0.0488692186772823,-0.00610865233466029
5,1.00416669214298,-0.251388896006557,0.0819444448505077,-0.0983493030071259,0.0314595587551594,-0.0146607663482428
5,1.01111115155925,-0.250000004123303,0.0791666671619817,-0.120340451598167,0.0482583530247212,-0.0171042270958424
5,1.00833336779274,-0.250000004123303,0.0791666671619817,-0.125227376818657,0.0595593601465225,-0.0109955742955208
5,1.00277780025972,-0.254166679773066,0.0875000002275597,-0.138055548071861,0.076052725315094,-0.02382374368608
5,1.00000001649321,-0.256944463539574,0.0902777839940679,-0.122173048555851,0.0839939713478088,-0.0186313893646002
5,1.00000001649321,-0.256944463539574,0.0902777839940679,-0.117896988987923,0.0705549344420433,-0.00977384392172098
5,1.00972225967599,-0.256944463539574,0.0763888894734557,-0.120340451598167,0.0534507073462009,-0.0021380283869803
5,1.00138890837647,-0.259722222994153,0.0847222225390337,-0.100792765617371,0.0167987942695618,0.00733038317412138
5,1.00138890837647,-0.262500006760661,0.0930555616825939,-0.0864374339580536,0.0143553335219622,0.00885754637420177
5,0.997222232726705,-0.262500006760661,0.101388894748172,-0.0693332031369209,0.00794124789535999,0.01588249579072
5,0.993055557076942,-0.259722222994153,0.0875000002275597,-0.0607810914516449,-0.01588249579072,0.0189368221908808
5,1.00694447590948,-0.254166679773066,0.0916666697993398,-0.0717766657471657,-0.015577063895762,0.0201585534960032
5,1.00694447590948,-0.254166679773066,0.0916666697993398,-0.0717766657471657,-0.00855211354792118,0.0106901414692402
5,1.00138890837647,-0.262500006760661,0.101388894748172,-0.0742201283574104,-0.013744467869401,-0.00122173049021512
5,0.998611124609959,-0.259722222994153,0.0930555616825939,-0.0598647929728031,-0.0177150927484035,0.00671951752156019
5,0.998611124609959,-0.259722222994153,0.0930555616825939,-0.0604756586253643,-0.0027488935738802,0.0131336031481624
5,1.00000001649321,-0.252777787889811,0.0888888921108138,-0.0687223374843597,-0.0247400421649218,0.0149661982432008
5,1.00277780025972,-0.252777787889811,0.0875000002275597,-0.0873537287116051,-0.0268780700862408,0.0103847095742822
5,1.00555558402623,-0.265277790527169,0.0916666697993398,-0.0885754600167274,-0.00610865233466029,0.0106901414692402
5,1.00277780025972,-0.268055574293678,0.0916666697993398,-0.0842994004487991,-0.00824668072164059,0.0210748501121998
5,1.00000001649321,-0.268055574293678,0.0958333393711199,-0.0681114718317986,-0.00702495034784079,0.0171042270958424
5,1.00555558402623,-0.272222225631511,0.0875000002275597,-0.0522289797663689,0.0222965814173222,0.0033597587607801
5,1.00555558402623,-0.269444466176932,0.0875000002275597,-0.0400116741657257,0.021685715764761,-0.0021380283869803
5,1.00555558402623,-0.279166685047782,0.0847222225390337,-0.0345138870179653,0.00824668072164059,-0.0180205255746841
5,1.00555558402623,-0.272222225631511,0.0847222225390337,-0.0299323964864016,0.0247400421649218,-0.029626963660121
5,1.00555558402623,-0.272222225631511,0.0875000002275597,-0.0241291765123606,0.0177150927484035,-0.0271835029125214
5,1.00555558402623,-0.272222225631511,0.0875000002275597,0.000305432622553781,0.0100792767480016,-0.0348193198442459
5,1.00000001649321,-0.269444466176932,0.0888888921108138,0.00580321997404099,0.00763581553474069,-0.0259617734700441
5,1.00000001649321,-0.269444466176932,0.0888888921108138,0.0134390350431204,-0.0109955742955208,-0.0204639863222837
5,1.00138890837647,-0.261111114877407,0.0944444474878658,0.0149661982432008,0.000305432622553781,-0.00977384392172098
5,1.00833336779274,-0.25555557165632,0.0944444474878658,0.0149661982432008,0.0045814891345799,-0.000610865245107561
5,1.00833336779274,-0.25555557165632,0.0944444474878658,0.0299323964864016,0.00152716308366507,-0.0021380283869803
5,1.00000001649321,-0.261111114877407,0.0986111170596459,0.0384845100343227,-0.00152716308366507,-0.00702495034784079
5,1.00138890837647,-0.252777787889811,0.0986111170596459,0.0351247526705265,0.00397062394768,-0.00824668072164059
5,1.00000001649321,-0.252777787889811,0.0944444474878658,0.0320704244077206,-0.0021380283869803,-0.0183259565383196
5,1.00000001649321,-0.250000004123303,0.0819444448505077,0.0235183127224445,-0.00977384392172098,-0.00885754637420177
5,1.00000001649321,-0.250000004123303,0.0819444448505077,0.0027488935738802,-0.0027488935738802,-0.00244346098043024
5,1.00555558402623,-0.250000004123303,0.0875000002275597,-0.000610865245107561,0.00244346098043024,0.00946841109544039
5,0.997222232726705,-0.24583335278547,0.0986111170596459,-0.00733038317412138,-0.0204639863222837,0.0213802829384804
5,0.997222232726705,-0.24583335278547,0.0986111170596459,-0.0140499006956816,-0.0271835029125214,0.019547687843442
5,0.997222232726705,-0.24583335278547,0.0986111170596459,-0.0235183127224445,-0.00641408516094089,0.0192422550171614
5,1.00833336779274,-0.25555557165632,0.0902777839940679,-0.0198531206697226,-0.000610865245107561,0.0045814891345799
5,1.00000001649321,-0.266666682410424,0.0944444474878658,-0.0198531206697226,-0.00152716308366507,0.00946841109544039
5,1.00000001649321,-0.265277790527169,0.0847222225390337,-0.00427605677396059,-0.00702495034784079,0.00488692196086049
5,1.00277780025972,-0.265277790527169,0.0916666697993398,0.00183259579353034,0.0027488935738802,0.00580321997404099
5,1.00000001649321,-0.256944463539574,0.0819444448505077,-0.00183259579353034,-0.00641408516094089,0.00366519158706069
5,0.997222232726705,-0.259722222994153,0.0847222225390337,-0.00152716308366507,-0.0103847095742822,0.00152716308366507
5,1.00555558402623,-0.259722222994153,0.0847222225390337,0.0106901414692402,-0.00397062394768,-0.0027488935738802
5,1.00277780025972,-0.265277790527169,0.0847222225390337,0.0125227374956012,-0.00671951752156019,0.000610865245107561
5,1.00000001649321,-0.258333331110899,0.0875000002275597,0.0192422550171614,-0.00244346098043024,-0.00519235478714108
5,1.00277780025972,-0.259722222994153,0.0833333367337618,0.0244346093386412,-0.00733038317412138,0.00427605677396059
5,1.00000001649321,-0.261111114877407,0.0958333393711199,0.0262672062963247,-0.0332921557128429,-0.00305432616733015
5,1.00138890837647,-0.259722222994153,0.0902777839940679,0.0256563406437635,-0.0164933614432812,0.011606439948082
5,1.00138890837647,-0.25555557165632,0.0875000002275597,0.0299323964864016,-0.0342084541916847,0.0125227374956012
5,1.00277780025972,-0.256944463539574,0.0916666697993398,0.0253509078174829,-0.0241291765123606,0.00397062394768
5,1.00138890837647,-0.256944463539574,0.0944444474878658,0.0280998013913631,-0.0167987942695618,0.0021380283869803
5,1.00277780025972,-0.252777787889811,0.0930555616825939,0.0241291765123606,-0.00244346098043024,0.0033597587607801
5,1.00555558402623,-0.259722222994153,0.0875000002275597,0.00855211354792118,0.0152716310694814,-0.0027488935738802
5,1.00555558402623,-0.258333331110899,0.0902777839940679,0.0219911485910416,0.000916297896765172,-0.00794124789535999
5,1.00277780025972,-0.262500006760661,0.0875000002275597,0.0247400421649218,-0.00549778714776039,-0.00427605677396059
5,1.00000001649321,-0.261111114877407,0.0847222225390337,0.0229074470698834,-0.00549778714776039,-0.000305432622553781
5,1.00416669214298,-0.265277790527169,0.0847222225390337,0.0140499006956816,0.0247400421649218,-0.00702495034784079
5,1.00000001649321,-0.262500006760661,0.0819444448505077,0.019547687843442,0.0222965814173222,-0.00763581553474069
5,0.997222232726705,-0.262500006760661,0.0819444448505077,0.0171042270958424,0.00519235478714108,-0.0103847095742822
5,1.00000001649321,-0.259722222994153,0.0888888921108138,0.0192422550171614,-0.00488692196086049,-0.00549778714776039
5,1.00277780025972,-0.262500006760661,0.0944444474878658,0.0210748501121998,0.0027488935738802,-0.00122173049021512
5,1.00694447590948,-0.258333331110899,0.0875000002275597,0.0302378293126821,0.00244346098043024,0.00549778714776039
5,0.998611124609959,-0.25555557165632,0.0819444448505077,0.0241291765123606,-0.0027488935738802,0.0164933614432812
5,1.00000001649321,-0.250000004123303,0.0861111144222878,0.029626963660121,-0.0204639863222837,0.0222965814173222
5,1.00555558402623,-0.25555557165632,0.0888888921108138,0.0198531206697226,-0.0213802829384804,0.0247400421649218
5,1.00277780025972,-0.258333331110899,0.0819444448505077,0.0192422550171614,-0.0290160998702049,0.0161879286170006
5,1.00138890837647,-0.252777787889811,0.0916666697993398,0.0125227374956012,-0.0256563406437635,0.0247400421649218
5,1.00000001649321,-0.258333331110899,0.0875000002275597,0.00488692196086049,-0.015577063895762,0.0293215326964855
5,1.00138890837647,-0.258333331110899,0.0861111144222878,-0.000305432622553781,-0.017409659922123,0.0305432621389627
5,1.00416669214298,-0.256944463539574,0.0861111144222878,0.00671951752156019,-0.0171042270958424,0.0265726372599602
5,1.00416669214298,-0.265277790527169,0.0916666697993398,-0.000916297896765172,-0.0198531206697226,0.0213802829384804
5,1.00000001649321,-0.263888898643915,0.0902777839940679,0.0113010071218014,-0.0222965814173222,0.0207694191485643
5,0.997222232726705,-0.263888898643915,0.0916666697993398,0.00763581553474069,-0.00610865233466029,0.0198531206697226
5,1.00000001649321,-0.262500006760661,0.0861111144222878,0.0106901414692402,-0.0167987942695618,0.0177150927484035
5,1.00555558402623,-0.263888898643915,0.0888888921108138,0.0164933614432812,-0.0149661982432008,0.0152716310694814
5,1.00833336779274,-0.259722222994153,0.0833333367337618,0.0152716310694814,-0.000916297896765172,0.00549778714776039
5,1.00138890837647,-0.259722222994153,0.0916666697993398,0.0131336031481624,0.0100792767480016,0.00488692196086049
5,0.99583334084345,-0.252777787889811,0.0902777839940679,0.0201585534960032,-0.00488692196086049,0.0113010071218014
5,0.99583334084345,-0.252777787889811,0.0902777839940679,0.0109955742955208,-0.011606439948082,0.00794124789535999
5,1.00416669214298,-0.254166679773066,0.0916666697993398,0.00152716308366507,-0.011606439948082,0.0180205255746841
5,1.00138890837647,-0.25555557165632,0.0833333367337618,0.00183259579353034,-0.00885754637420177,0.0171042270958424
5,1.00138890837647,-0.25555557165632,0.0833333367337618,0.0106901414692402,-0.00305432616733015,0.0146607663482428
5,1.00000001649321,-0.262500006760661,0.0805555590452358,0.017409659922123,-0.0140499006956816,0.01588249579072
5,0.99583334084345,-0.256944463539574,0.0916666697993398,0.00977384392172098,-0.00580321997404099,0.0229074470698834
5,1.00277780025972,-0.259722222994153,0.0958333393711199,0.0143553335219622,-0.0201585534960032,0.0229074470698834
5,1.00277780025972,-0.256944463539574,0.0944444474878658,0.013744467869401,-0.0164933614432812,0.0232128798961639
5,1.00277780025972,-0.258333331110899,0.0944444474878658,0.00916297826915979,-0.00152716308366507,0.0152716310694814
5,0.998611124609959,-0.259722222994153,0.0888888921108138,0.00519235478714108,-0.00397062394768,0.0122173046693206
5,1.00000001649321,-0.256944463539574,0.0777777813567098,0.00977384392172098,-0.013744467869401,0.0229074470698834
5,1.00277780025972,-0.262500006760661,0.0847222225390337,0.00916297826915979,-0.00916297826915979,0.0222965814173222
5,1.00555558402623,-0.259722222994153,0.0861111144222878,0.00366519158706069,-0.011606439948082,0.0177150927484035
5,1.00416669214298,-0.256944463539574,0.0847222225390337,0.00488692196086049,-0.015577063895762,0.0256563406437635
5,1.00555558402623,-0.252777787889811,0.0916666697993398,0.0134390350431204,-0.00763581553474069,0.0311541277915239
5,0.99583334084345,-0.252777787889811,0.0875000002275597,0.0140499006956816,-0.027488935738802,0.019547687843442
5,1.00000001649321,-0.25555557165632,0.0791666671619817,0.00366519158706069,-0.011606439948082,0.019547687843442
5,1.00000001649321,-0.25555557165632,0.0833333367337618,0.00855211354792118,-0.0109955742955208,0.0299323964864016
5,1.00833336779274,-0.262500006760661,0.0791666671619817,0.0045814891345799,-0.011606439948082,0.0262672062963247
5,1.00555558402623,-0.261111114877407,0.0833333367337618,0.0103847095742822,-0.0122173046693206,0.0198531206697226
5,0.994444448960196,-0.259722222994153,0.0819444448505077,0.0201585534960032,-0.0149661982432008,0.0207694191485643
5,0.99583334084345,-0.25555557165632,0.0791666671619817,0.0284052342176437,-0.021685715764761,0.0232128798961639
5,0.998611124609959,-0.25555557165632,0.0847222225390337,0.011606439948082,-0.00488692196086049,0.0256563406437635
5,1.00277780025972,-0.259722222994153,0.0861111144222878,0.0171042270958424,-0.0131336031481624,0.0287106670439243
5,1.00694447590948,-0.256944463539574,0.0875000002275597,0.0106901414692402,-0.00794124789535999,0.0232128798961639
5,1.00000001649321,-0.25555557165632,0.0972222251763917,0.00855211354792118,-0.0232128798961639,0.0253509078174829
5,1.00000001649321,-0.25555557165632,0.101388894748172,0.0146607663482428,-0.02382374368608,0.0280998013913631
5,1.00555558402623,-0.25555557165632,0.0972222251763917,0.00885754637420177,-0.0171042270958424,0.0287106670439243
5,1.01111115155925,-0.25555557165632,0.0847222225390337,0.00855211354792118,-0.00733038317412138,0.0277943685650826
5,1.00972225967599,-0.261111114877407,0.0847222225390337,0.00946841109544039,-0.0103847095742822,0.0229074470698834
5,1.00555558402623,-0.272222225631511,0.0777777813567098,0.0171042270958424,-0.0149661982432008,0.0171042270958424
5,1.00277780025972,-0.280555576931036,0.0736111117849297,0.0180205255746841,-0.0302378293126821,0.0122173046693206
5,1.00277780025972,-0.279166685047782,0.0777777813567098,0.0250454749912024,-0.0171042270958424,-0.0027488935738802
5,1.00000001649321,-0.277777793164528,0.0805555590452358,0.0366519130766392,-0.0177150927484035,-0.0106901414692402
5,1.00000001649321,-0.275000009398019,0.0750000036681839,0.0418442711234093,-0.017409659922123,-0.0164933614432812
5,1.00138890837647,-0.275000009398019,0.0805555590452358,0.0339030213654041,-0.0232128798961639,-0.029626963660121
5,1.00000001649321,-0.275000009398019,0.0875000002275597,0.0445931628346443,-0.0256563406437635,-0.0262672062963247
5,0.997222232726705,-0.275000009398019,0.0777777813567098,0.0455094613134861,-0.0436768643558025,-0.029626963660121
5,0.998611124609959,-0.279166685047782,0.0777777813567098,0.0479529201984406,-0.0433714315295219,-0.05283984541893
5,0.994444448960196,-0.276388901281273,0.0791666671619817,0.0516181141138077,-0.0452040284872055,-0.0470366254448891
5,0.993055557076942,-0.273611117514765,0.0694444482911319,0.0516181141138077,-0.0461203269660473,-0.0320704244077206
5,1.00555558402623,-0.269444466176932,0.0708333340964038,0.0387899428606033,-0.0262672062963247,-0.0406225398182869
5,1.01111115155925,-0.275000009398019,0.0708333340964038,0.0348193198442459,-0.0201585534960032,-0.0424551330506802
5,1.00694447590948,-0.275000009398019,0.0750000036681839,0.0287106670439243,-0.0143553335219622,-0.0436768643558025
5,1.00000001649321,-0.272222225631511,0.0722222259796579,0.0256563406437635,-0.0113010071218014,-0.0516181141138077
5,0.994444448960196,-0.279166685047782,0.0777777813567098,0.0177150927484035,-0.0280998013913631,-0.0448985956609249
5,1.01527782720901,-0.283333336385615,0.0722222259796579,0.00824668072164059,0.0290160998702049,-0.0442877300083637
5,1.01944450285877,-0.287500012035377,0.0722222259796579,0.0146607663482428,0.0433714315295219,-0.0513126812875271
5,1.0125000434425,-0.287500012035377,0.0722222259796579,0.0161879286170006,0.0146607663482428,-0.0705549344420433
5,1.00972225967599,-0.281944444502361,0.0722222259796579,0.0140499006956816,0.011606439948082,-0.0690277740359306
5,1.01527782720901,-0.283333336385615,0.0583333375370279,0.00183259579353034,0.0452040284872055,-0.0610865242779255
5,1.01805561097552,-0.281944444502361,0.0625000010308258,-0.00397062394768,0.0922406539320946,-0.064446285367012
5,1.00416669214298,-0.277777793164528,0.0541666679652478,0.000610865245107561,0.0711658000946045,-0.0500909499824047
5,0.990277773310434,-0.273611117514765,0.0638888929140799,-0.00885754637420177,0.0513126812875271,-0.0537561401724815
5,0.986111194908388,-0.275000009398019,0.0680555564078778,-0.0256563406437635,0.0360410511493683,-0.0351247526705265
5,0.979166735492117,-0.272222225631511,0.0708333340964038,-0.0348193198442459,0.0256563406437635,-0.0265726372599602
5,0.970833384192592,-0.280555576931036,0.0652777787193518,-0.0345138870179653,0.0167987942695618,-0.01191187184304
5,0.969444492309338,-0.286111120152123,0.0625000010308258,-0.0284052342176437,0.0268780700862408,-0.000916297896765172
5,0.968055600426084,-0.298611122789481,0.0583333375370279,-0.037568211555481,0.0482583530247212,0.00122173049021512
5,0.968055600426084,-0.295833339022973,0.0694444482911319,-0.0232128798961639,0.0659734457731247,-0.00610865233466029
5,0.968055600426084,-0.295833339022973,0.0694444482911319,-0.0134390350431204,0.0226020142436027,-0.0226020142436027
5,0.997222232726705,-0.277777793164528,0.0847222225390337,-0.00122173049021512,-0.00977384392172098,-0.0131336031481624
5,1.01527782720901,-0.272222225631511,0.0805555590452358,-0.00244346098043024,-0.00366519158706069,0.0262672062963247
5,1.01527782720901,-0.272222225631511,0.0805555590452358,-0.00855211354792118,-0.0201585534960032,0.0320704244077206
5,1.00694447590948,-0.277777793164528,0.0708333340964038,-0.0100792767480016,-0.0360410511493683,0.0421497002243996
5,1.00138890837647,-0.283333336385615,0.0708333340964038,-0.00641408516094089,-0.0390953756868839,0.0516181141138077
5,1.00138890837647,-0.283333336385615,0.0708333340964038,0.0045814891345799,-0.0293215326964855,0.0626136884093285
5,0.987499989543926,-0.280555576931036,0.0652777787193518,0.0106901414692402,-0.0479529201984406,0.0659734457731247
5,0.987499989543926,-0.279166685047782,0.0750000036681839,0.0198531206697226,-0.0510072484612465,0.0708603709936142
5,0.987499989543926,-0.279166685047782,0.0750000036681839,0.0189368221908808,-0.0485637858510017,0.0665843114256859
5,0.991666665193688,-0.275000009398019,0.0763888894734557,0.02382374368608,-0.0910189226269722,0.0714712366461754
5,1.02361117850853,-0.29166668768514,0.0736111117849297,0.0134390350431204,-0.0809396430850029,0.0650571510195732
5,1.02361117850853,-0.29166668768514,0.0736111117849297,0.0198531206697226,-0.0390953756868839,0.0635299831628799
5,1.00555558402623,-0.29166668768514,0.0625000010308258,0.0339030213654041,-0.0387899428606033,0.0583376325666905
5,1.00972225967599,-0.297222230906227,0.0625000010308258,0.0219911485910416,-0.017409659922123,0.0687223374843597
5,1.00972225967599,-0.297222230906227,0.0625000010308258,0.0192422550171614,-0.00702495034784079,0.0537561401724815
5,0.998611124609959,-0.286111120152123,0.0680555564078778,0.00671951752156019,-0.0106901414692402,0.0568104684352875
5,0.98888888142718,-0.280555576931036,0.0625000010308258,-0.00122173049021512,0.000305432622553781,0.0534507073462009
5,0.993055557076942,-0.277777793164528,0.0638888929140799,0.00122173049021512,-0.00702495034784079,0.0571159012615681
5,1.00000001649321,-0.279166685047782,0.0680555564078778,0.00824668072164059,-0.0183259565383196,0.0769690200686455
5,1.00277780025972,-0.280555576931036,0.0694444482911319,0.0222965814173222,-0.0241291765123606,0.0824668109416962
5,0.987499989543926,-0.287500012035377,0.0638888929140799,0.0265726372599602,-0.0229074470698834,0.0879645943641663
5,0.986111194908388,-0.29166668768514,0.0625000010308258,0.0345138870179653,-0.027488935738802,0.0974330082535744
5,0.977777843608863,-0.302777798439244,0.0666666706026059,0.0574213340878487,-0.0595593601465225,0.087659165263176
5,0.980555627375371,-0.298611122789481,0.0930555616825939,0.0708603709936142,-0.0882700309157372,0.0827722400426865
5,0.984722303025134,-0.281944444502361,0.0777777813567098,0.0849102661013603,-0.0888808965682983,0.078801617026329
5,0.991666665193688,-0.279166685047782,0.0722222259796579,0.0965167060494423,-0.102625362575054,0.076052725315094
5,0.99583334084345,-0.277777793164528,0.0763888894734557,0.0781907513737679,-0.102319926023483,0.0885754600167274
5,1.01805561097552,-0.273611117514765,0.0750000036681839,0.081855945289135,-0.0558941699564457,0.0797179117798805
5,1.01666671909226,-0.265277790527169,0.0597222233422998,0.0641408488154411,-0.0213802829384804,0.0897971913218498
5,1.00277780025972,-0.259722222994153,0.0513888902767219,0.0577267669141293,-0.0369573459029198,0.078801617026329
5,0.98888888142718,-0.25555557165632,0.0680555564078778,0.0290160998702049,-0.0455094613134861,0.0778853222727776
5,0.99583334084345,-0.252777787889811,0.0638888929140799,-0.00183259579353034,-0.0433714315295219,0.0723875313997269
5,0.99583334084345,-0.259722222994153,0.0583333375370279,-0.00702495034784079,-0.0351247526705265,0.0687223374843597
5,0.997222232726705,-0.273611117514765,0.0625000010308258,-0.013744467869401,-0.0140499006956816,0.0607810914516449
5,1.00277780025972,-0.280555576931036,0.0777777813567098,-0.00855211354792118,-0.00916297826915979,0.0452040284872055
5,0.99583334084345,-0.279166685047782,0.0791666671619817,-0.0219911485910416,-0.00641408516094089,0.0369573459029198
5,0.997222232726705,-0.280555576931036,0.0819444448505077,-0.0345138870179653,-0.0210748501121998,0.0100792767480016
5,1.00138890837647,-0.288888903918631,0.0875000002275597,-0.0326812900602817,-0.0204639863222837,-0.000916297896765172
5,1.00277780025972,-0.276388901281273,0.0847222225390337,-0.0198531206697226,-0.0210748501121998,-0.0161879286170006
5,1.01388893532575,-0.284722228268869,0.0805555590452358,-0.0265726372599602,-0.0152716310694814,-0.0323758572340012
5,1.01527782720901,-0.286111120152123,0.0736111117849297,-0.0177150927484035,-0.0106901414692402,-0.0455094613134861
5,1.00000001649321,-0.273611117514765,0.0861111144222878,0.0250454749912024,-0.0219911485910416,-0.0537561401724815
5,1.00000001649321,-0.259722222994153,0.0861111144222878,0.0284052342176437,-0.0100792767480016,-0.0516181141138077
5,1.01944450285877,-0.259722222994153,0.0680555564078778,0.0134390350431204,0.0204639863222837,-0.0198531206697226
5,1.02361117850853,-0.261111114877407,0.0777777813567098,-0.00397062394768,0.0183259565383196,-0.0033597587607801
5,1.00972225967599,-0.272222225631511,0.0875000002275597,-0.0171042270958424,0.019547687843442,0.0033597587607801
5,1.00138890837647,-0.269444466176932,0.0861111144222878,-0.0183259565383196,0.0390953756868839,0.00122173049021512
5,0.98888888142718,-0.258333331110899,0.0916666697993398,-0.0253509078174829,-0.00305432616733015,0.00152716308366507
5,0.987499989543926,-0.243055569018962,0.0972222251763917,-0.0458148941397667,-0.0357356183230877,-0.00671951752156019
5,1.00000001649321,-0.254166679773066,0.0819444448505077,-0.0827722400426865,-0.0113010071218014,-0.0201585534960032
5,1.00000001649321,-0.265277790527169,0.0819444448505077,-0.116675265133381,0.0103847095742822,-0.0305432621389627
5,1.00277780025972,-0.29166668768514,0.0875000002275597,-0.0736092627048492,0.0177150927484035,-0.0357356183230877
5,0.99583334084345,-0.313888909193348,0.0847222225390337,-0.00977384392172098,0.000916297896765172,-0.0342084541916847
5,0.98888888142718,-0.305555557893823,0.0819444448505077,0.0574213340878487,-0.00794124789535999,-0.0256563406437635
5,0.983333411141879,-0.287500012035377,0.0736111117849297,0.0974330082535744,-0.037568211555481,-0.0363464802503586
5,0.991666665193688,-0.273611117514765,0.0736111117849297,0.104763388633728,-0.0751364231109619,-0.0381790772080422
5,1.01111115155925,-0.275000009398019,0.055555559848502,0.113620936870575,-0.0815505087375641,-0.0592539273202419
5,1.00694447590948,-0.275000009398019,0.0597222233422998,0.139582708477974,-0.0711658000946045,-0.0693332031369209
5,1.00000001649321,-0.263888898643915,0.0638888929140799,0.156381502747536,-0.0836885422468185,-0.0626136884093285
5,1.00555558402623,-0.250000004123303,0.0638888929140799,0.143553331494331,-0.078801617026329,-0.0439822971820831
5,1.01527782720901,-0.241666677135707,0.0597222233422998,0.0925460830330849,-0.0210748501121998,-0.0357356183230877
5,1.0125000434425,-0.248611112240049,0.0652777787193518,0.0568104684352875,0.00549778714776039,-0.0458148941397667
5,1.00000001649321,-0.259722222994153,0.0597222233422998,0.0537561401724815,0.000610865245107561,-0.0409279726445675
5,1.00138890837647,-0.252777787889811,0.0583333375370279,0.0635299831628799,0.0027488935738802,-0.0470366254448891
5,1.00277780025972,-0.250000004123303,0.0625000010308258,0.0436768643558025,0.00580321997404099,-0.0326812900602817
5,1.01805561097552,-0.250000004123303,0.0416666683668809,0.0207694191485643,0.0320704244077206,-0.0406225398182869
5,1.01666671909226,-0.250000004123303,0.0513888902767219,-0.0140499006956816,0.0290160998702049,-0.0543670058250427
5,1.01527782720901,-0.256944463539574,0.0513888902767219,-0.0299323964864016,0.0412334054708481,-0.0678060427308083
5,0.99583334084345,-0.273611117514765,0.0625000010308258,-0.00702495034784079,0.0305432621389627,-0.0720821022987366
5,0.993055557076942,-0.275000009398019,0.0625000010308258,0.013744467869401,0.0314595587551594,-0.0558941699564457
5,1.00694447590948,-0.263888898643915,0.0541666679652478,0.00885754637420177,0.0311541277915239,-0.0696386396884918
5,1.00277780025972,-0.269444466176932,0.0486111125881959,0.00794124789535999,0.0366519130766392,-0.0937678143382072
5,0.998611124609959,-0.275000009398019,0.0583333375370279,0.00580321997404099,0.0452040284872055,-0.104763388633728
5,0.994444448960196,-0.269444466176932,0.0583333375370279,0.0106901414692402,0.0516181141138077,-0.0946841165423393
5,1.00277780025972,-0.275000009398019,0.0652777787193518,0.0363464802503586,0.0549778714776039,-0.0882700309157372
5,1.00277780025972,-0.277777793164528,0.0652777787193518,0.0497855171561241,0.0381790772080422,-0.109344877302647
5,1.00277780025972,-0.277777793164528,0.0652777787193518,0.0558941699564457,0.0482583530247212,-0.129503428936005
5,1.00416669214298,-0.262500006760661,0.0625000010308258,0.0470366254448891,0.0690277740359306,-0.120645888149738
5,1.00416669214298,-0.262500006760661,0.052777782159976,0.019547687843442,0.0809396430850029,-0.125838235020638
5,1.00416669214298,-0.262500006760661,0.052777782159976,0.0204639863222837,0.0736092627048492,-0.125227376818657
5,1.00416669214298,-0.270833333748257,0.0472222237439329,0.0464257597923279,0.0742201283574104,-0.114231802523136
5,1.00000001649321,-0.308333341660331,0.052777782159976,0.112093769013882,0.0598647929728031,-0.111482910811901
5,1.00000001649321,-0.308333341660331,0.052777782159976,0.184786736965179,0.0140499006956816,-0.115758962929249
5,0.98888888142718,-0.301388906555989,0.052777782159976,0.232128798961639,-0.0244346093386412,-0.114842668175697
5,0.963888924776322,-0.279166685047782,0.0819444448505077,0.285274058580399,-0.0681114718317986,-0.104763388633728
5,0.963888924776322,-0.279166685047782,0.0819444448505077,0.307265222072601,-0.135001212358475,-0.0849102661013603
5,0.968055600426084,-0.262500006760661,0.0986111170596459,0.314901024103165,-0.17409659922123,-0.0784961804747581
5,0.987499989543926,-0.230555566381603,0.0972222251763917,0.29596421122551,-0.203723564743996,-0.0699440687894821
5,0.987499989543926,-0.230555566381603,0.0972222251763917,0.258090555667877,-0.187535628676414,-0.0488692186772823
5,1.02083339474202,-0.236111109602691,0.0750000036681839,0.214719131588936,-0.106290549039841,-0.0470366254448891
5,1.05694448645892,-0.250000004123303,0.0680555564078778,0.156381502747536,-0.0192422550171614,-0.029626963660121
5,1.04166667574312,-0.251388896006557,0.0569444456537738,0.120951317250729,0.00733038317412138,-0.0265726372599602
5,1.02222228662528,-0.227777782615095,0.0666666706026059,0.096211276948452,0.0409279726445675,-0.0033597587607801
5,1.00972225967599,-0.193055558469529,0.0722222259796579,0.0418442711234093,0.0580321997404099,0.0106901414692402
5,1.0125000434425,-0.186111123365188,0.0763888894734557,-0.0207694191485643,0.0705549344420433,0.0140499006956816
5,1.01527782720901,-0.188888894975731,0.0902777839940679,-0.0647517144680023,0.0363464802503586,0.015577063895762
5,0.997222232726705,-0.206944452990142,0.0944444474878658,-0.0736092627048492,-0.0198531206697226,0.064446285367012
5,0.994444448960196,-0.212499996211229,0.0986111170596459,-0.0696386396884918,-0.0378736443817616,0.0742201283574104
5,0.991666665193688,-0.211111128639904,0.104166672436698,-0.0791070461273193,-0.0323758572340012,0.12705996632576
5,0.993055557076942,-0.190277786858986,0.0847222225390337,-0.0995710343122482,-0.0131336031481624,0.148440256714821
5,1.00694447590948,-0.190277786858986,0.0638888929140799,-0.151189148426056,0.019547687843442,0.144775062799454
5,1.01111115155925,-0.197222234119292,0.0500000014324589,-0.211664810776711,0.00977384392172098,0.128892570734024
5,1.01805561097552,-0.213888888094483,0.0513888902767219,-0.212275668978691,-0.0177150927484035,0.101403631269932
5,1.03194452980806,-0.256944463539574,0.052777782159976,-0.189979091286659,0.0354301854968071,0.0800233483314514
5,1.01944450285877,-0.277777793164528,0.0416666683668809,-0.110566608607769,0.0494800843298435,0.078801617026329
5,0.976388951725609,-0.288888903918631,0.0250000007162294,-0.0797179117798805,0.0103847095742822,0.0510072484612465
5,1.00833336779274,-0.301388906555989,0.0250000007162294,-0.127365410327911,0.0464257597923279,-0.0351247526705265
5,1.01527782720901,-0.311111125426839,0.0458333348996699,-0.203112691640854,0.0723875313997269,-0.0549778714776039
5,1.00972225967599,-0.295833339022973,0.0652777787193518,-0.242818936705589,0.125227376818657,-0.0937678143382072
5,0.979166735492117,-0.293055555256465,0.0763888894734557,-0.229379892349243,0.0940732508897781,-0.131641462445259
5,0.991666665193688,-0.288888903918631,0.0944444474878658,-0.0959058403968811,-0.0348193198442459,-0.143553331494331
5,1.0125000434425,-0.279166685047782,0.0875000002275597,0.0299323964864016,-0.117591559886932,-0.138666406273842
5,1.02500007039179,-0.250000004123303,0.0861111144222878,0.122478485107422,-0.138360977172852,-0.125532805919647
5,1.02500007039179,-0.204166669223633,0.0722222259796579,0.16920967400074,-0.098960168659687,-0.0867428630590439
5,1.02222228662528,-0.181944447715425,0.0666666706026059,0.118202425539494,-0.0461203269660473,-0.0626136884093285
5,1.02500007039179,-0.170833336961321,0.0652777787193518,0.0433714315295219,0.00305432616733015,-0.0488692186772823
5,1.03472221632685,-0.17361112072783,0.0680555564078778,-0.01588249579072,0.145996794104576,-0.0232128798961639
5,1.01805561097552,-0.18333333959868,0.0583333375370279,-0.0494800843298435,0.182648703455925,0.0161879286170006
5,1.01527782720901,-0.180555567988136,0.0541666679652478,-0.0925460830330849,0.166460782289505,0.0519235469400883
5,1.0125000434425,-0.180555567988136,0.0500000014324589,-0.175929188728332,0.16890424489975,0.0833831056952477
5,1.01527782720901,-0.190277786858986,0.0541666679652478,-0.286190360784531,0.19578230381012,0.113620936870575
5,1.00000001649321,-0.240277785252453,0.0694444482911319,-0.335670441389084,0.206777885556221,0.107512280344963
5,1.00000001649321,-0.261111114877407,0.0694444482911319,-0.346666038036346,0.142026171088219,0.0815505087375641
5,1.0125000434425,-0.288888903918631,0.0722222259796579,-0.328645497560501,0.115758962929249,0.00702495034784079
5,1.0125000434425,-0.288888903918631,0.0722222259796579,-0.244651526212692,0.087659165263176,-0.0717766657471657
5,1.01944450285877,-0.305555557893823,0.0652777787193518,-0.176540061831474,0.103541657328606,-0.118202425539494
5,1.00833336779274,-0.29166668768514,0.0666666706026059,-0.0907134860754013,0.106901414692402,-0.150272846221924
5,0.986111194908388,-0.272222225631511,0.0750000036681839,0.00549778714776039,0.0369573459029198,-0.17409659922123
5,0.980555627375371,-0.250000004123303,0.0777777813567098,0.0433714315295219,0.0250454749912024,-0.193949714303017
5,0.983333411141879,-0.218055563744246,0.0750000036681839,0.0641408488154411,0.00794124789535999,-0.194255143404007
5,1.00000001649321,-0.206944452990142,0.0847222225390337,0.0473420582711697,0.0305432621389627,-0.194255143404007
5,0.99583334084345,-0.198611113846581,0.10972222781375,0.0326812900602817,0.00855211354792118,-0.197920337319374
5,0.99583334084345,-0.195833342236038,0.115277783190802,0.0161879286170006,-0.0430659987032413,-0.18020524084568
5,1.00277780025972,-0.205555561106887,0.115277783190802,0.00641408516094089,-0.0775798857212067,-0.151800006628036
5,1.00277780025972,-0.213888888094483,0.102777780553444,0.090408056974411,-0.106290549039841,-0.0910189226269722
5,1.00416669214298,-0.205555561106887,0.0888888921108138,0.163406446576118,-0.128281697630882,-0.029626963660121
5,1.00833336779274,-0.176388892338373,0.0694444482911319,0.143553331494331,-0.130114302039146,0.01191187184304
5,1.02222228662528,-0.163888889701015,0.0680555564078778,0.0769690200686455,-0.0928515195846558,0.0705549344420433
5,1.0333333244436,-0.170833336961321,0.052777782159976,-0.01588249579072,0.00580321997404099,0.0977384373545647
5,1.01666671909226,-0.176388892338373,0.0486111125881959,-0.0571159012615681,0.0302378293126821,0.113315500319004
5,1.02361117850853,-0.198611113846581,0.0458333348996699,-0.113315500319004,0.0305432621389627,0.101403631269932
5,1.02222228662528,-0.223611131277262,0.0625000010308258,-0.182343274354935,0.0400116741657257,0.0894917547702789
5,1.02777785415829,-0.244444460902216,0.0777777813567098,-0.261450320482254,0.0210748501121998,0.0409279726445675
5,1.02777785415829,-0.244444460902216,0.0777777813567098,-0.284663200378418,0.0607810914516449,0.00183259579353034
5,1.00555558402623,-0.279166685047782,0.0777777813567098,-0.214719131588936,0.0436768643558025,-0.0262672062963247
5,1.00555558402623,-0.280555576931036,0.0777777813567098,-0.109955742955208,0.0213802829384804,-0.0305432621389627
5,1.00555558402623,-0.280555576931036,0.0777777813567098,-0.0442877300083637,0.0186313893646002,-0.0293215326964855
5,1.00138890837647,-0.269444466176932,0.0847222225390337,0.0161879286170006,0.00733038317412138,-0.0351247526705265
5,0.99583334084345,-0.243055569018962,0.0805555590452358,0.0699440687894821,-0.0470366254448891,-0.0418442711234093
5,0.99583334084345,-0.243055569018962,0.0805555590452358,0.113315500319004,-0.0351247526705265,-0.0452040284872055
5,1.00972225967599,-0.212499996211229,0.0861111144222878,0.15851953625679,-0.0256563406437635,-0.0455094613134861
5,1.00972225967599,-0.197222234119292,0.0847222225390337,0.186008468270302,-0.0198531206697226,-0.0271835029125214
5,1.00972225967599,-0.197222234119292,0.0847222225390337,0.191506251692772,-0.0192422550171614,-0.0131336031481624
5,1.01944450285877,-0.163888889701015,0.0763888894734557,0.148440256714821,-0.015577063895762,-0.0100792767480016
5,1.02361117850853,-0.168055565350778,0.0750000036681839,0.08460483700037,0.0140499006956816,0.0149661982432008
5,1.01666671909226,-0.177777784221628,0.0708333340964038,0.0113010071218014,0.0314595587551594,0.027488935738802
5,1.01666671909226,-0.177777784221628,0.0708333340964038,-0.00855211354792118,0.00885754637420177,0.0360410511493683
5,1.01944450285877,-0.20972223675665,0.0722222259796579,-0.0546724386513233,0.00946841109544039,0.0571159012615681
5,1.01944450285877,-0.20972223675665,0.0722222259796579,-0.0922406539320946,0.0430659987032413,0.0623082555830479
5,1.02500007039179,-0.236111109602691,0.0680555564078778,-0.113926365971565,0.0470366254448891,0.0354301854968071
5,1.02361117850853,-0.262500006760661,0.0680555564078778,-0.0607810914516449,0.0653625801205635,0.00519235478714108
5,1.00694447590948,-0.272222225631511,0.0750000036681839,-0.00733038317412138,0.0714712366461754,-0.0219911485910416
5,1.00000001649321,-0.262500006760661,0.0847222225390337,0.0253509078174829,0.0983493030071259,-0.0177150927484035
5,1.01527782720901,-0.244444460902216,0.0777777813567098,0.00641408516094089,0.151494577527046,-0.0369573459029198
5,1.04583335139288,-0.216666671860991,0.0708333340964038,-0.0320704244077206,0.178372651338577,-0.0519235469400883
5,1.04444445950963,-0.213888888094483,0.0736111117849297,-0.0720821022987366,0.188146501779556,-0.0647517144680023
5,1.0125000434425,-0.216666671860991,0.101388894748172,-0.0662788823246956,0.142026171088219,-0.0598647929728031
5,0.984722303025134,-0.213888888094483,0.104166672436698,-0.0268780700862408,0.0934623852372169,-0.0381790772080422
5,0.970833384192592,-0.218055563744246,0.118055554801345,0.0125227374956012,0.0360410511493683,-0.027488935738802
5,0.962500032893068,-0.212499996211229,0.115277783190802,0.0448985956609249,-0.0131336031481624,0.0222965814173222
5,0.962500032893068,-0.206944452990142,0.0930555616825939,0.0592539273202419,-0.0403171069920063,0.117591559886932
5,0.969444492309338,-0.20972223675665,0.0888888921108138,0.105374254286289,-0.100181899964809,0.173485726118088
5,0.979166735492117,-0.2194444556275,0.0791666671619817,0.131641462445259,-0.136528387665749,0.208915919065475
5,0.981944519258625,-0.229166674498349,0.0750000036681839,0.139888137578964,-0.182343274354935,0.225714713335037
5,0.991666665193688,-0.240277785252453,0.0680555564078778,0.121867619454861,-0.181426972150803,0.215940862894058
5,1.0361111082101,-0.270833333748257,0.0791666671619817,0.087659165263176,-0.130114302039146,0.177456349134445
5,1.04583335139288,-0.273611117514765,0.0777777813567098,0.0726929605007172,-0.127976268529892,0.125532805919647
5,1.04444445950963,-0.265277790527169,0.0638888929140799,0.0992656052112579,-0.0977384373545647,0.0675006061792374
5,1.02222228662528,-0.265277790527169,0.0625000010308258,0.12675453722477,-0.0852157026529312,0.05283984541893
5,1.01944450285877,-0.263888898643915,0.0652777787193518,0.155159771442413,-0.0332921557128429,0.0284052342176437
5,1.0361111082101,-0.24583335278547,0.0763888894734557,0.15332718193531,0.0140499006956816,-0.0226020142436027
5,1.02361117850853,-0.222222239394008,0.0875000002275597,0.12675453722477,0.011606439948082,-0.0354301854968071
5,1.02361117850853,-0.202777789496344,0.0972222251763917,0.0827722400426865,0.0152716310694814,-0.0394008085131645
5,1.01805561097552,-0.202777789496344,0.0972222251763917,0.0784961804747581,0.0109955742955208,-0.0439822971820831
5,1.00000001649321,-0.216666671860991,0.101388894748172,0.08460483700037,-0.00610865233466029,-0.0430659987032413
5,1.00972225967599,-0.215277779977737,0.120833338567854,0.0754418596625328,0.0348193198442459,-0.0372627787292004
5,1.01527782720901,-0.190277786858986,0.113888891307548,0.058643065392971,0.029626963660121,-0.011606439948082
5,1.00972225967599,-0.176388892338373,0.118055554801345,-0.00305432616733015,0.0265726372599602,-0.000610865245107561
5,0.993055557076942,-0.195833342236038,0.111111119697004,-0.037568211555481,0.0177150927484035,-0.00855211354792118
5,0.98888888142718,-0.226388890731841,0.0916666697993398,-0.0332921557128429,0.0033597587607801,-0.00824668072164059
5,1.00277780025972,-0.265277790527169,0.0819444448505077,0.021685715764761,0.0265726372599602,-0.0219911485910416
5,1.00000001649321,-0.281944444502361,0.0694444482911319,0.0794124826788902,-0.015577063895762,-0.0167987942695618
5,1.00555558402623,-0.295833339022973,0.0625000010308258,0.143553331494331,-0.0623082555830479,-0.0204639863222837
5,1.02083339474202,-0.312500017310094,0.0583333375370279,0.224492982029915,-0.0418442711234093,-0.0299323964864016
5,1.00972225967599,-0.311111125426839,0.0611111152255539,0.335975885391235,-0.0106901414692402,-0.029626963660121
5,0.991666665193688,-0.284722228268869,0.0750000036681839,0.436157792806625,-0.0354301854968071,0.00549778714776039
5,0.990277773310434,-0.272222225631511,0.0736111117849297,0.495717138051987,-0.0668897479772568,0.0369573459029198
5,1.01944450285877,-0.220833347510754,0.0861111144222878,0.495411723852158,-0.0143553335219622,0.0219911485910416
5,1.01388893532575,-0.195833342236038,0.0972222251763917,0.430049121379852,-0.00641408516094089,-0.0109955742955208
5,1.01944450285877,-0.190277786858986,0.0958333393711199,0.397367835044861,0.0229074470698834,-0.0406225398182869
5,1.01111115155925,-0.175000000455119,0.101388894748172,0.364991992712021,0.0311541277915239,-0.0568104684352875
5,1.00555558402623,-0.17361112072783,0.105555564319952,0.334143280982971,0.0555887371301651,-0.0497855171561241
5,1.01805561097552,-0.154166670830166,0.122222230451108,0.273362189531326,0.108123145997524,-0.0516181141138077
5,1.01666671909226,-0.134722233088466,0.108333335930496,0.199142068624496,0.0977384373545647,-0.0598647929728031
5,1.0125000434425,-0.111111119697004,0.112499999424294,0.119729585945606,0.058643065392971,-0.0763581544160843
5,1.00138890837647,-0.102777780553444,0.125000002061652,-0.000610865245107561,0.0259617734700441,-0.0791070461273193
5,1.00555558402623,-0.123611110178398,0.131944449321958,-0.103541657328606,0.0400116741657257,-0.0415388382971287
5,1.00555558402623,-0.154166670830166,0.144444451959316,-0.156992360949516,0.0800233483314514,-0.0409279726445675
5,0.99583334084345,-0.177777784221628,0.140277788465518,-0.175929188728332,0.0537561401724815,-0.0473420582711697
5,1.0125000434425,-0.18333333959868,0.12777778582816,-0.195171445608139,0.0448985956609249,-0.0482583530247212
5,1.01944450285877,-0.186111123365188,0.123611110178398,-0.219300627708435,0.0894917547702789,-0.0479529201984406
5,1.02222228662528,-0.187500003092477,0.12777778582816,-0.240986332297325,0.120645888149738,-0.0503963828086853
5,1.00972225967599,-0.197222234119292,0.120833338567854,-0.238542884588242,0.112093769013882,-0.0522289797663689
5,1.00277780025972,-0.200000005729836,0.122222230451108,-0.229685336351395,0.0995710343122482,-0.0369573459029198
5,1.00694447590948,-0.215277779977737,0.12916666555545,-0.229685336351395,0.0858265683054924,-0.0369573459029198
5,1.0125000434425,-0.238888893369199,0.134722233088466,-0.202807262539864,0.127365410327911,-0.0357356183230877
5,1.01805561097552,-0.250000004123303,0.126388893944906,-0.159435823559761,0.159130394458771,-0.0323758572340012
5,0.99583334084345,-0.236111109602691,0.12777778582816,-0.11606439948082,0.106595985591412,-0.0207694191485643
5,0.993055557076942,-0.226388890731841,0.123611110178398,-0.0772744566202164,0.0775798857212067,-0.0229074470698834
5,0.99583334084345,-0.216666671860991,0.105555564319952,-0.0656680166721344,0.0552833043038845,-0.0021380283869803
5,1.00277780025972,-0.212499996211229,0.108333335930496,-0.0555887371301651,0.0519235469400883,0.0164933614432812
5,1.0125000434425,-0.202777789496344,0.113888891307548,-0.0623082555830479,0.0561996027827263,0.0421497002243996
5,0.993055557076942,-0.200000005729836,0.111111119697004,-0.05283984541893,0.00977384392172098,0.0659734457731247
5,0.987499989543926,-0.197222234119292,0.104166672436698,-0.0540615729987621,-0.0415388382971287,0.0852157026529312
5,0.986111194908388,-0.197222234119292,0.10972222781375,-0.0610865242779255,-0.0711658000946045,0.0882700309157372
5,1.01111115155925,-0.206944452990142,0.105555564319952,-0.0858265683054924,-0.0711658000946045,0.0965167060494423
5,1.01944450285877,-0.212499996211229,0.111111119697004,-0.113315500319004,-0.0378736443817616,0.0858265683054924
5,1.00555558402623,-0.223611131277262,0.1194444466846,-0.0971275717020035,-0.0668897479772568,0.0754418596625328
5,0.998611124609959,-0.229166674498349,0.10972222781375,-0.0769690200686455,-0.0986547395586967,0.0595593601465225
5,1.00277780025972,-0.226388890731841,0.10972222781375,-0.0534507073462009,-0.12675453722477,0.0571159012615681
5,1.0125000434425,-0.231944458264858,0.108333335930496,-0.0277943685650826,-0.172263994812965,0.0360410511493683
5,1.02222228662528,-0.243055569018962,0.113888891307548,-0.0183259565383196,-0.138971850275993,0.02382374368608
5,1.01111115155925,-0.236111109602691,0.111111119697004,0.00366519158706069,-0.115758962929249,0.00366519158706069
5,1.00138890837647,-0.233333350148112,0.113888891307548,0.0339030213654041,-0.130419731140137,-0.0122173046693206
5,1.01805561097552,-0.226388890731841,0.105555564319952,0.0277943685650826,-0.113315500319004,-0.0204639863222837
5,1.02361117850853,-0.226388890731841,0.112499999424294,0.0302378293126821,-0.120035022497177,-0.0277943685650826
5,1.01527782720901,-0.218055563744246,0.115277783190802,0.0418442711234093,-0.0791070461273193,-0.0372627787292004
5,1.01111115155925,-0.2194444556275,0.106944444047242,0.0387899428606033,-0.0210748501121998,-0.0650571510195732
5,1.00416669214298,-0.215277779977737,0.0958333393711199,0.0510072484612465,-0.0186313893646002,-0.0781907513737679
5,1.00277780025972,-0.20972223675665,0.108333335930496,0.0592539273202419,-0.0180205255746841,-0.0757472887635231
5,1.00833336779274,-0.206944452990142,0.118055554801345,0.0534507073462009,-0.0180205255746841,-0.0458148941397667
5,1.0125000434425,-0.208333344873396,0.118055554801345,0.0601702257990837,-0.0458148941397667,-0.0442877300083637
5,1.00555558402623,-0.20972223675665,0.113888891307548,0.0684169083833694,-0.0720821022987366,-0.0595593601465225
5,1.00694447590948,-0.198611113846581,0.101388894748172,0.0290160998702049,-0.0632245540618896,-0.0455094613134861
5,1.00555558402623,-0.194444450352783,0.0930555616825939,-0.000305432622553781,-0.0406225398182869,-0.00152716308366507
5,1.01527782720901,-0.206944452990142,0.10972222781375,-0.0045814891345799,0.0106901414692402,0.0470366254448891
5,1.00000001649321,-0.202777789496344,0.101388894748172,-0.00855211354792118,0.0140499006956816,0.0858265683054924
5,0.986111194908388,-0.193055558469529,0.0875000002275597,-0.0277943685650826,-0.0045814891345799,0.129503428936005
5,1.00833336779274,-0.205555561106887,0.0916666697993398,-0.0849102661013603,0.0470366254448891,0.162490159273148
5,1.02222228662528,-0.223611131277262,0.0777777813567098,-0.137139245867729,0.0540615729987621,0.184786736965179
5,1.00138890837647,-0.233333350148112,0.0722222259796579,-0.206777885556221,0.00488692196086049,0.177761793136597
5,1.00277780025972,-0.241666677135707,0.0722222259796579,-0.247705861926079,-0.0280998013913631,0.127670839428902
5,1.0125000434425,-0.262500006760661,0.0777777813567098,-0.299934834241867,-0.0335975885391235,0.0647517144680023
5,1.02222228662528,-0.286111120152123,0.0861111144222878,-0.303600013256073,-0.0558941699564457,0.0213802829384804
5,1.01944450285877,-0.293055555256465,0.0958333393711199,-0.222660377621651,-0.0320704244077206,-0.0308486949652433
5,1.01944450285877,-0.293055555256465,0.0958333393711199,-0.131946891546249,-0.0265726372599602,-0.0610865242779255
5,1.00000001649321,-0.280555576931036,0.0958333393711199,-0.0378736443817616,-0.0360410511493683,-0.0888808965682983
5,1.00138890837647,-0.258333331110899,0.0944444474878658,0.0448985956609249,-0.0210748501121998,-0.0815505087375641
5,1.00138890837647,-0.258333331110899,0.0944444474878658,0.0665843114256859,0.000610865245107561,-0.0284052342176437
5,1.00277780025972,-0.250000004123303,0.0875000002275597,0.116675265133381,-0.0290160998702049,0.0277943685650826
5,1.00277780025972,-0.247222220356795,0.0819444448505077,0.183565005660057,-0.0601702257990837,0.0604756586253643
5,1.00277780025972,-0.247222220356795,0.0819444448505077,0.207388743758202,-0.0705549344420433,0.0821613743901253
5,1.00000001649321,-0.251388896006557,0.0763888894734557,0.202501833438873,-0.0885754600167274,0.0852157026529312
5,1.00555558402623,-0.252777787889811,0.0708333340964038,0.154548913240433,-0.0546724386513233,0.0901026204228401
5,1.00555558402623,-0.252777787889811,0.0708333340964038,0.0659734457731247,0.0314595587551594,0.0583376325666905
5,1.02916674604155,-0.272222225631511,0.0666666706026059,0.0384845100343227,0.0348193198442459,0.0219911485910416
5,1.00694447590948,-0.265277790527169,0.0569444456537738,-0.0027488935738802,0.0583376325666905,-0.0271835029125214
5,1.00694447590948,-0.265277790527169,0.0569444456537738,-0.0641408488154411,0.0852157026529312,-0.0781907513737679
5,1.02222228662528,-0.252777787889811,0.0638888929140799,-0.0769690200686455,0.0913243517279625,-0.0986547395586967
5,1.03194452980806,-0.229166674498349,0.101388894748172,-0.0705549344420433,0.102625362575054,-0.127976268529892
5,1.00555558402623,-0.176388892338373,0.1194444466846,-0.0235183127224445,0.144469633698463,-0.167987942695618
5,1.00555558402623,-0.176388892338373,0.1194444466846,-0.0772744566202164,0.114537231624126,-0.172874867916107
5,0.997222232726705,-0.143055560076062,0.0986111170596459,-0.19058994948864,0.0931569486856461,-0.103847093880177
5,0.998611124609959,-0.18333333959868,0.100000002864918,-0.235793977975845,0.10598511993885,-0.00610865233466029
5,0.998611124609959,-0.18333333959868,0.100000002864918,-0.191200822591782,0.087659165263176,0.10048733651638
5,0.970833384192592,-0.230555566381603,0.108333335930496,-0.127976268529892,-0.00183259579353034,0.140193566679955
5,0.962500032893068,-0.263888898643915,0.0944444474878658,-0.0537561401724815,-0.0439822971820831,0.131030589342117
5,0.969444492309338,-0.281944444502361,0.0916666697993398,0.00763581553474069,-0.0525344125926495,0.111482910811901
5,1.00833336779274,-0.277777793164528,0.0722222259796579,0.0561996027827263,-0.0372627787292004,0.101098194718361
5,1.02777785415829,-0.254166679773066,0.0750000036681839,0.0549778714776039,-0.0241291765123606,0.0879645943641663
5,1.01944450285877,-0.244444460902216,0.0791666671619817,0.00946841109544039,-0.0192422550171614,0.0302378293126821
5,1.00277780025972,-0.190277786858986,0.0944444474878658,-0.078801617026329,-0.00946841109544039,-0.00885754637420177
5,1.00277780025972,-0.180555567988136,0.0902777839940679,-0.191200822591782,-0.0219911485910416,-0.0546724386513233
5,1.01944450285877,-0.179166676104882,0.0916666697993398,-0.225714713335037,-0.0180205255746841,-0.0635299831628799
5,1.00277780025972,-0.224999998848587,0.101388894748172,-0.199142068624496,-0.0580321997404099,-0.064446285367012
5,0.993055557076942,-0.240277785252453,0.0944444474878658,-0.0803287774324417,-0.114231802523136,-0.0671951770782471
5,0.977777843608863,-0.262500006760661,0.0986111170596459,0.0461203269660473,-0.152716308832169,-0.0335975885391235
5,0.986111194908388,-0.261111114877407,0.0986111170596459,0.124311074614525,-0.206472456455231,-0.0045814891345799
5,1.0125000434425,-0.250000004123303,0.0861111144222878,0.199142068624496,-0.130725160241127,0.0357356183230877
5,1.05000002704265,-0.240277785252453,0.0819444448505077,0.196698606014252,-0.0778853222727776,0.0106901414692402
5,1.01388893532575,-0.238888893369199,0.0736111117849297,0.193338856101036,-0.143858760595322,-0.0250454749912024
5,0.99583334084345,-0.233333350148112,0.0819444448505077,0.173485726118088,-0.145385921001434,-0.0507018156349659
5,1.00555558402623,-0.218055563744246,0.0833333367337618,0.134390354156494,-0.108428582549095,-0.0458148941397667
5,1.0333333244436,-0.197222234119292,0.0763888894734557,0.0791070461273193,-0.0134390350431204,-0.0320704244077206
5,1.04027778385987,-0.187500003092477,0.0875000002275597,0.019547687843442,0.0189368221908808,-0.0204639863222837
5,1.01944450285877,-0.181944447715425,0.104166672436698,-0.00244346098043024,0.00916297826915979,0.00885754637420177
5,1.00416669214298,-0.187500003092477,0.100000002864918,-0.0027488935738802,0.0308486949652433,0.0311541277915239
5,1.00555558402623,-0.193055558469529,0.0916666697993398,-0.0247400421649218,0.0824668109416962,0.04764748737216
5,1.01666671909226,-0.18333333959868,0.0750000036681839,-0.0671951770782471,0.134695783257484,0.103847093880177
5,1.01666671909226,-0.190277786858986,0.0666666706026059,-0.100181899964809,0.136222943663597,0.105374254286289
5,1.02361117850853,-0.194444450352783,0.0597222233422998,-0.16890424489975,0.156381502747536,0.108428582549095
5,1.01111115155925,-0.211111128639904,0.0625000010308258,-0.239153742790222,0.121867619454861,0.0934623852372169
5,1.00972225967599,-0.254166679773066,0.0611111152255539,-0.259006857872009,0.0891863256692886,0.0513126812875271
5,1.00972225967599,-0.301388906555989,0.0541666679652478,-0.204028993844986,0.0842994004487991,0.0406225398182869
5,0.993055557076942,-0.334722238818301,0.0513888902767219,-0.0690277740359306,0.0342084541916847,0.0226020142436027
5,0.979166735492117,-0.341666673922643,0.0541666679652478,0.0684169083833694,-0.0302378293126821,-0.0164933614432812
5,0.998611124609959,-0.350000000910239,0.0680555564078778,0.22693644464016,-0.01191187184304,-0.0601702257990837
5,1.00416669214298,-0.343055565805897,0.0750000036681839,0.345138877630234,-0.0378736443817616,-0.107817716896534
5,0.979166735492117,-0.304166666010569,0.0944444474878658,0.477391183376312,-0.104457959532738,-0.123700208961964
5,0.961111141009813,-0.24583335278547,0.115277783190802,0.574213325977325,-0.152105450630188,-0.134084925055504
5,0.969444492309338,-0.205555561106887,0.113888891307548,0.565355777740479,-0.146913096308708,-0.0910189226269722
5,1.04444445950963,-0.1194444466846,0.0833333367337618,0.457538068294525,-0.0754418596625328,-0.0311541277915239
5,1.06250005399193,-0.0972222251763917,0.0750000036681839,0.300240278244019,-0.013744467869401,0.00183259579353034
5,1.05972227022542,-0.102777780553444,0.0819444448505077,0.117591559886932,0.0522289797663689,0.0394008085131645
5,1.00972225967599,-0.13750000469901,0.0875000002275597,0.0256563406437635,0.0360410511493683,0.0360410511493683
5,1.00000001649321,-0.152777778946911,0.0944444474878658,-0.0335975885391235,0.0290160998702049,0.0360410511493683
5,1.01388893532575,-0.16527778158427,0.0916666697993398,-0.0968221426010132,0.078801617026329,0.0421497002243996
5,1.03472221632685,-0.188888894975731,0.0777777813567098,-0.151189148426056,0.0864374339580536,0.0519235469400883
5,1.02638896227504,-0.212499996211229,0.0763888894734557,-0.16401731967926,0.0757472887635231,0.0332921557128429
5,1.00000001649321,-0.220833347510754,0.0819444448505077,-0.154548913240433,0.0662788823246956,0.019547687843442
5,0.990277773310434,-0.229166674498349,0.0777777813567098,-0.131030589342117,0.0378736443817616,0.0253509078174829
5,0.991666665193688,-0.238888893369199,0.0861111144222878,-0.115758962929249,0.0287106670439243,0.00824668072164059
5,1.00000001649321,-0.252777787889811,0.0916666697993398,-0.0907134860754013,0.00824668072164059,-0.0232128798961639
5,1.00694447590948,-0.248611112240049,0.0888888921108138,-0.081855945289135,0.0125227374956012,-0.058643065392971
5,1.01666671909226,-0.243055569018962,0.0847222225390337,-0.0641408488154411,0.0265726372599602,-0.0662788823246956
5,1.00694447590948,-0.252777787889811,0.0944444474878658,-0.0354301854968071,0.0366519130766392,-0.0754418596625328
5,0.994444448960196,-0.265277790527169,0.104166672436698,0.0171042270958424,0.0580321997404099,-0.0671951770782471
5,0.977777843608863,-0.262500006760661,0.0986111170596459,0.0589484944939613,-0.0235183127224445,-0.102930791676045
5,1.01111115155925,-0.231944458264858,0.0944444474878658,0.0913243517279625,-0.0027488935738802,-0.128281697630882
5,1.05555559457566,-0.216666671860991,0.0888888921108138,0.0653625801205635,0.0616973899304867,-0.130725160241127
5,1.05555559457566,-0.206944452990142,0.0916666697993398,0.0522289797663689,0.0977384373545647,-0.136833816766739
5,1.02638896227504,-0.193055558469529,0.0916666697993398,0.027488935738802,0.11117747426033,-0.139888137578964
5,1.00694447590948,-0.179166676104882,0.0986111170596459,-0.0122173046693206,0.133168622851372,-0.143858760595322
5,0.983333411141879,-0.181944447715425,0.112499999424294,-0.0675006061792374,0.139888137578964,-0.137139245867729
5,0.973611167959101,-0.20138889761309,0.12777778582816,-0.0870482996106148,0.144775062799454,-0.113315500319004
5,0.976388951725609,-0.2194444556275,0.120833338567854,-0.0635299831628799,0.0632245540618896,-0.0726929605007172
5,0.993055557076942,-0.247222220356795,0.111111119697004,0.0109955742955208,-0.0140499006956816,-0.0351247526705265
5,1.02916674604155,-0.268055574293678,0.106944444047242,0.0815505087375641,-0.0369573459029198,0.0265726372599602
5,1.03750000009336,-0.281944444502361,0.101388894748172,0.157297804951668,-0.0128281703218818,0.0595593601465225
5,1.00138890837647,-0.263888898643915,0.101388894748172,0.18020524084568,-0.0305432621389627,0.0558941699564457
5,0.994444448960196,-0.247222220356795,0.101388894748172,0.198836639523506,-0.11606439948082,0.0427605658769607
5,1.02916674604155,-0.223611131277262,0.0944444474878658,0.172263994812965,-0.134084925055504,-0.00733038317412138
5,1.02638896227504,-0.227777782615095,0.0958333393711199,0.161879286170006,-0.148745685815811,-0.0513126812875271
5,1.00416669214298,-0.223611131277262,0.104166672436698,0.159741267561913,-0.140193566679955,-0.0452040284872055
5,1.00000001649321,-0.206944452990142,0.0652777787193518,0.0980438739061356,-0.102930791676045,-0.0323758572340012
5,1.00277780025972,-0.212499996211229,0.0750000036681839,0.00977384392172098,-0.0571159012615681,-0.00855211354792118
5,0.986111194908388,-0.230555566381603,0.0958333393711199,-0.0265726372599602,-0.070249505341053,0.0189368221908808
5,0.96666670854283,-0.238888893369199,0.101388894748172,-0.0189368221908808,-0.0891863256692886,0.101403631269932
5,0.965277816659576,-0.241666677135707,0.105555564319952,0.0177150927484035,-0.11087204515934,0.158824965357781
5,0.984722303025134,-0.234722242031366,0.0916666697993398,0.0552833043038845,-0.090408056974411,0.198836639523506
5,0.998611124609959,-0.238888893369199,0.0791666671619817,0.0583376325666905,0.00549778714776039,0.190895393490791
5,1.01944450285877,-0.247222220356795,0.0708333340964038,0.0488692186772823,0.148440256714821,0.148440256714821
5,1.03888889197661,-0.243055569018962,0.0652777787193518,0.029626963660121,0.22724187374115,0.0977384373545647
5,1.05000002704265,-0.230555566381603,0.0805555590452358,0.0461203269660473,0.24312436580658,0.0659734457731247
5,1.0361111082101,-0.195833342236038,0.115277783190802,0.102625362575054,0.199447497725487,0.0983493030071259
5,1.01944450285877,-0.134722233088466,0.13750000469901,0.120340451598167,0.170125976204872,0.139582708477974
5,1.01944450285877,-0.134722233088466,0.13750000469901,0.0662788823246956,0.0577267669141293,0.166766211390495
5,1.00277780025972,-0.102777780553444,0.141666668192807,-0.0781907513737679,0.00702495034784079,0.160352125763893
5,1.00277780025972,-0.101388894748172,0.14722222356986,-0.270613312721252,-0.0452040284872055,0.154243469238281
5,0.98888888142718,-0.134722233088466,0.150000007336368,-0.331088960170746,-0.0684169083833694,0.157603234052658
5,0.980555627375371,-0.187500003092477,0.141666668192807,-0.32284227013588,-0.08460483700037,0.159130394458771
5,1.00277780025972,-0.233333350148112,0.123611110178398,-0.272140473127365,-0.0604756586253643,0.181732416152954
5,1.09861114570882,-0.269444466176932,0.104166672436698,-0.188451930880547,0.0482583530247212,0.156992360949516
5,1.13472223742571,-0.286111120152123,0.0652777787193518,-0.136528387665749,0.0873537287116051,0.122173048555851
5,1.06805562152495,-0.301388906555989,0.0750000036681839,-0.0519235469400883,0.02382374368608,0.076052725315094
5,0.975000059842355,-0.305555557893823,0.10972222781375,0.0131336031481624,-0.106595985591412,-0.0192422550171614
5,0.93750007624221,-0.293055555256465,0.144444451959316,0.17440202832222,-0.229379892349243,-0.20616702735424
5,0.905555562927365,-0.297222230906227,0.130555557438704,0.229074463248253,-0.229990765452385,-0.26908615231514
5,0.880555606276507,-0.261111114877407,0.113888891307548,0.288328409194946,-0.257174253463745,-0.248927593231201
5,0.929166724942685,-0.24583335278547,0.0875000002275597,0.361937671899795,-0.287412106990814,-0.119424156844616
5,1.00555558402623,-0.270833333748257,0.0750000036681839,0.437379509210587,-0.236710280179977,-0.0742201283574104
5,1.01527782720901,-0.258333331110899,0.0708333340964038,0.475558578968048,-0.187535628676414,-0.0149661982432008
5,0.976388951725609,-0.177777784221628,0.0902777839940679,0.468533635139465,-0.224187538027763,0.0858265683054924
5,0.994444448960196,-0.12777778582816,0.0666666706026059,0.324674874544144,-0.210748508572578,0.206777885556221
5,1.04583335139288,-0.12777778582816,0.0416666683668809,0.204028993844986,-0.153632611036301,0.249233022332191
5,1.05972227022542,-0.13750000469901,0.0486111125881959,0.0525344125926495,-0.0919352173805237,0.239459171891212
5,1.05555559457566,-0.163888889701015,0.0652777787193518,-0.128892570734024,-0.00916297826915979,0.148745685815811
5,1.02222228662528,-0.187500003092477,0.0847222225390337,-0.204945296049118,0.0109955742955208,0.087659165263176
5,1.00694447590948,-0.190277786858986,0.0888888921108138,-0.277332812547684,0.0271835029125214,0.0500909499824047
5,1.01527782720901,-0.220833347510754,0.0972222251763917,-0.283136039972305,-0.01588249579072,-0.000916297896765172
5,1.03472221632685,-0.261111114877407,0.0875000002275597,-0.2379320114851,-0.0421497002243996,-0.0277943685650826
5,1.04444445950963,-0.273611117514765,0.0819444448505077,-0.146302223205566,0.0161879286170006,-0.0555887371301651
5,1.01527782720901,-0.279166685047782,0.055555559848502,-0.0638354197144508,0.00427605677396059,-0.078801617026329
5,1.0125000434425,-0.266666682410424,0.0625000010308258,-0.000305432622553781,-0.00488692196086049,-0.124921940267086
5,0.981944519258625,-0.25555557165632,0.0777777813567098,0.0265726372599602,-0.0122173046693206,-0.0894917547702789
5,0.98888888142718,-0.238888893369199,0.0861111144222878,0.0503963828086853,-0.0140499006956816,-0.0742201283574104
5,0.990277773310434,-0.236111109602691,0.0763888894734557,0.0693332031369209,0.0207694191485643,-0.0678060427308083
5,1.00972225967599,-0.218055563744246,0.0819444448505077,0.0522289797663689,0.0470366254448891,-0.05283984541893
5,1.00833336779274,-0.218055563744246,0.0791666671619817,-0.0027488935738802,0.151494577527046,-0.0412334054708481
5,1.02222228662528,-0.20138889761309,0.0680555564078778,0.0235183127224445,0.184481307864189,-0.015577063895762
5,1.0125000434425,-0.202777789496344,0.0652777787193518,-0.0574213340878487,0.283746898174286,0.02382374368608
5,1.01805561097552,-0.187500003092477,0.0833333367337618,-0.157297804951668,0.325896620750427,-0.0134390350431204
5,0.998611124609959,-0.172222228844576,0.101388894748172,-0.226020142436027,0.363770246505737,-0.0262672062963247
5,0.977777843608863,-0.19166667874224,0.120833338567854,-0.245262399315834,0.242208063602448,-0.0183259565383196
5,1.00972225967599,-0.250000004123303,0.113888891307548,-0.241291776299477,0.0705549344420433,-0.0830776765942574
5,1.04444445950963,-0.288888903918631,0.0986111170596459,-0.192727982997894,0.00855211354792118,-0.143858760595322
5,1.05000002704265,-0.280555576931036,0.120833338567854,-0.15332718193531,0.0430659987032413,-0.16401731967926
5,1.02500007039179,-0.240277785252453,0.126388893944906,-0.0726929605007172,0.0277943685650826,-0.156992360949516
5,1.01527782720901,-0.226388890731841,0.112499999424294,-0.0488692186772823,-0.0613919571042061,-0.118202425539494
5,1.04444445950963,-0.243055569018962,0.0930555616825939,-0.0610865242779255,-0.0708603709936142,-0.0742201283574104
5,1.04722224327614,-0.252777787889811,0.0736111117849297,-0.0610865242779255,-0.0109955742955208,-0.0488692186772823
5,1.0361111082101,-0.259722222994153,0.0680555564078778,-0.0592539273202419,-0.017409659922123,-0.0500909499824047
5,1.0361111082101,-0.259722222994153,0.0680555564078778,-0.0616973899304867,-0.0613919571042061,-0.0546724386513233
5,0.993055557076942,-0.238888893369199,0.055555559848502,-0.0907134860754013,-0.0684169083833694,-0.04764748737216
5,0.979166735492117,-0.256944463539574,0.055555559848502,-0.0992656052112579,0.00305432616733015,-0.0284052342176437
5,0.979166735492117,-0.256944463539574,0.055555559848502,-0.08460483700037,0.0345138870179653,0.0027488935738802
5,0.969444492309338,-0.272222225631511,0.0652777787193518,-0.0705549344420433,0.0103847095742822,0.00610865233466029
5,0.98888888142718,-0.262500006760661,0.055555559848502,-0.0720821022987366,0.0219911485910416,0.00183259579353034
5,0.98888888142718,-0.262500006760661,0.055555559848502,-0.0729983970522881,0.00977384392172098,0.00671951752156019
5,0.977777843608863,-0.25555557165632,0.0763888894734557,-0.0616973899304867,-0.00397062394768,0.00733038317412138
5,0.99583334084345,-0.262500006760661,0.0736111117849297,-0.0445931628346443,-0.0180205255746841,0.0140499006956816
5,0.99583334084345,-0.262500006760661,0.0736111117849297,-0.0134390350431204,-0.0280998013913631,0.0140499006956816
5,1.02083339474202,-0.268055574293678,0.0541666679652478,0.0442877300083637,-0.0250454749912024,0.015577063895762
5,1.02638896227504,-0.259722222994153,0.0652777787193518,0.0537561401724815,0.00977384392172098,0.0235183127224445
5,1.02638896227504,-0.259722222994153,0.0652777787193518,0.0558941699564457,0.0540615729987621,0.0497855171561241
5,1.01527782720901,-0.250000004123303,0.0666666706026059,0.0510072484612465,0.0299323964864016,0.0546724386513233
5,1.00000001649321,-0.24583335278547,0.0750000036681839,0.0284052342176437,-0.0186313893646002,0.0491746515035629
5,0.99583334084345,-0.236111109602691,0.0791666671619817,0.0143553335219622,-0.0522289797663689,0.0525344125926495
5,1.00972225967599,-0.247222220356795,0.0819444448505077,-0.0161879286170006,-0.0513126812875271,0.0494800843298435
5,1.02083339474202,-0.263888898643915,0.0708333340964038,0.0143553335219622,-0.0326812900602817,0.0745255574584007
5,1.01944450285877,-0.269444466176932,0.0625000010308258,0.019547687843442,-0.0143553335219622,0.0485637858510017
5,0.99583334084345,-0.279166685047782,0.0652777787193518,0.0262672062963247,-0.0149661982432008,0.0320704244077206
5,0.991666665193688,-0.269444466176932,0.0611111152255539,0.0448985956609249,-0.0442877300083637,0.0149661982432008
5,0.987499989543926,-0.252777787889811,0.0652777787193518,0.0519235469400883,-0.0806342139840126,-0.00794124789535999
5,0.979166735492117,-0.233333350148112,0.0791666671619817,0.0464257597923279,-0.0742201283574104,-0.000610865245107561
5,1.00000001649321,-0.236111109602691,0.0819444448505077,0.0253509078174829,-0.0152716310694814,0.0134390350431204
5,1.00972225967599,-0.243055569018962,0.0750000036681839,0.0198531206697226,-0.015577063895762,0.00885754637420177
5,1.01527782720901,-0.24583335278547,0.0680555564078778,0.0186313893646002,-0.0152716310694814,-0.00916297826915979
5,1.01666671909226,-0.238888893369199,0.0777777813567098,0.0103847095742822,-0.029626963660121,-0.000305432622553781
5,1.00833336779274,-0.230555566381603,0.0680555564078778,0.0262672062963247,-0.0629191175103188,0.0314595587551594
5,0.994444448960196,-0.230555566381603,0.0694444482911319,0.015577063895762,-0.0534507073462009,0.05283984541893
5,0.99583334084345,-0.24583335278547,0.0680555564078778,0.0280998013913631,-0.027488935738802,0.0580321997404099
5,0.993055557076942,-0.252777787889811,0.0680555564078778,0.0418442711234093,-0.0372627787292004,0.0348193198442459
5,0.984722303025134,-0.254166679773066,0.0583333375370279,0.0357356183230877,-0.0213802829384804,0.0247400421649218
5,0.983333411141879,-0.251388896006557,0.0625000010308258,0.02382374368608,0.0109955742955208,0.01191187184304
5,0.98888888142718,-0.243055569018962,0.0583333375370279,0.0232128798961639,0.0693332031369209,0.0125227374956012
5,0.991666665193688,-0.233333350148112,0.0513888902767219,0.0109955742955208,0.122478485107422,0.0311541277915239
5,0.993055557076942,-0.216666671860991,0.055555559848502,-0.00855211354792118,0.157908663153648,0.0632245540618896
5,0.99583334084345,-0.197222234119292,0.055555559848502,-0.0445931628346443,0.155159771442413,0.0641408488154411
5,1.0305556379248,-0.2194444556275,0.100000002864918,-0.0708603709936142,0.117286130785942,0.00244346098043024
5,1.07083340529146,-0.240277785252453,0.133333341205212,-0.0901026204228401,0.0464257597923279,-0.0601702257990837
5,1.06250005399193,-0.24583335278547,0.12777778582816,-0.0956004112958908,-0.0500909499824047,-0.0198531206697226
5,1.02777785415829,-0.268055574293678,0.0958333393711199,-0.0464257597923279,-0.122478485107422,0.0635299831628799
5,1.00138890837647,-0.301388906555989,0.0652777787193518,0.0445931628346443,-0.11606439948082,0.115148097276688
5,1.00138890837647,-0.319444452414435,0.030555557612777,0.113315500319004,-0.0928515195846558,0.104763388633728
5,1.00416669214298,-0.318055560531181,0.03194444645704,0.165544480085373,-0.0421497002243996,0.0815505087375641
5,1.00000001649321,-0.298611122789481,0.055555559848502,0.168598800897598,0.0109955742955208,0.00366519158706069
5,1.00972225967599,-0.270833333748257,0.0708333340964038,0.16951510310173,0.029626963660121,-0.0705549344420433
5,0.98888888142718,-0.24583335278547,0.0986111170596459,0.162795588374138,-0.0293215326964855,-0.110261179506779
5,0.983333411141879,-0.229166674498349,0.112499999424294,0.120645888149738,-0.0668897479772568,-0.130419731140137
5,0.99583334084345,-0.222222239394008,0.101388894748172,0.0736092627048492,-0.0739146918058395,-0.116980694234371
5,1.01111115155925,-0.227777782615095,0.0916666697993398,0.0146607663482428,-0.0345138870179653,-0.0806342139840126
5,1.03194452980806,-0.250000004123303,0.0944444474878658,-0.0335975885391235,0.0772744566202164,-0.0601702257990837
5,0.998611124609959,-0.251388896006557,0.0847222225390337,-0.017409659922123,0.0387899428606033,-0.0479529201984406
5,1.00000001649321,-0.237500001485945,0.0763888894734557,-0.0021380283869803,0.0293215326964855,-0.0293215326964855
5,1.04444445950963,-0.222222239394008,0.0708333340964038,-0.0433714315295219,0.0739146918058395,-0.015577063895762
5,1.04305556762637,-0.233333350148112,0.0833333367337618,-0.0580321997404099,0.172874867916107,-0.0125227374956012
5,1.01944450285877,-0.226388890731841,0.0847222225390337,-0.0675006061792374,0.107512280344963,-0.00794124789535999
5,0.990277773310434,-0.20972223675665,0.108333335930496,-0.0745255574584007,0.0351247526705265,0.00427605677396059
5,0.993055557076942,-0.211111128639904,0.113888891307548,-0.0797179117798805,0.00824668072164059,0.0436768643558025
5,0.998611124609959,-0.226388890731841,0.10972222781375,-0.0952949747443199,0.00763581553474069,0.0907134860754013
5,0.98888888142718,-0.222222239394008,0.0916666697993398,-0.0549778714776039,-0.0268780700862408,0.123089343309402
5,0.984722303025134,-0.231944458264858,0.0916666697993398,-0.0201585534960032,-0.0668897479772568,0.124005645513535
5,0.972222276075846,-0.244444460902216,0.101388894748172,0.0311541277915239,-0.107817716896534,0.116980694234371
5,0.970833384192592,-0.258333331110899,0.0916666697993398,0.0742201283574104,-0.161879286170006,0.100181899964809
5,0.98888888142718,-0.25555557165632,0.101388894748172,0.0916297882795334,-0.147523954510689,0.0992656052112579
5,1.01666671909226,-0.241666677135707,0.0777777813567098,0.134695783257484,-0.114842668175697,0.10598511993885
5,1.01944450285877,-0.238888893369199,0.0750000036681839,0.145691365003586,-0.0751364231109619,0.0855211317539215
5,1.00694447590948,-0.233333350148112,0.0916666697993398,0.129503428936005,-0.0659734457731247,0.0781907513737679
5,0.993055557076942,-0.222222239394008,0.113888891307548,0.107206851243973,-0.0897971913218498,0.0693332031369209
5,1.02916674604155,-0.186111123365188,0.101388894748172,0.0308486949652433,-0.00244346098043024,0.0665843114256859
5,1.0361111082101,-0.172222228844576,0.0916666697993398,-0.0681114718317986,0.117286130785942,0.0858265683054924
5,1.04166667574312,-0.184722231481934,0.0916666697993398,-0.148745685815811,0.160657554864883,0.107512280344963
5,1.03888889197661,-0.202777789496344,0.0944444474878658,-0.187841057777405,0.182954147458077,0.115758962929249
5,1.02916674604155,-0.212499996211229,0.0972222251763917,-0.257174253463745,0.237626582384109,0.113010071218014
5,1.02500007039179,-0.194444450352783,0.0958333393711199,-0.346055150032044,0.28008171916008,0.125838235020638
5,1.0305556379248,-0.206944452990142,0.0944444474878658,-0.446237057447434,0.430965423583984,0.144164204597473
5,1.01388893532575,-0.234722242031366,0.0930555616825939,-0.48136180639267,0.465173870325089,0.163406446576118
5,0.998611124609959,-0.286111120152123,0.0930555616825939,-0.423024177551269,0.431881725788117,0.136528387665749
5,0.998611124609959,-0.286111120152123,0.0930555616825939,-0.323758572340012,0.461203247308731,0.108123145997524
5,1.0125000434425,-0.330555563168539,0.118055554801345,-0.213497400283814,0.475253164768219,0.0839939713478088
5,1.00972225967599,-0.312500017310094,0.14722222356986,-0.0516181141138077,0.538783133029938,0.0815505087375641
5,1.00972225967599,-0.312500017310094,0.14722222356986,0.0436768643558025,0.448375076055527,0.118507854640484
5,0.96666670854283,-0.252777787889811,0.14583334384257,0.0613919571042061,0.383012503385544,0.149661988019943
5,0.976388951725609,-0.262500006760661,0.143055560076062,0.0513126812875271,0.329256355762482,0.160657554864883
5,0.976388951725609,-0.262500006760661,0.143055560076062,0.0204639863222837,0.267253547906876,0.110566608607769
5,0.976388951725609,-0.270833333748257,0.154166670830166,0.0219911485910416,0.184786736965179,0.0534507073462009
5,0.962500032893068,-0.236111109602691,0.16527778158427,0.0201585534960032,0.0681114718317986,0.0363464802503586
5,0.962500032893068,-0.236111109602691,0.16527778158427,-0.0213802829384804,0.0103847095742822,0.0458148941397667
5,0.984722303025134,-0.224999998848587,0.154166670830166,-0.0821613743901253,-0.0128281703218818,0.0549778714776039
5,1.00138890837647,-0.252777787889811,0.170833336961321,-0.111788339912891,0.00824668072164059,0.0613919571042061
5,1.00138890837647,-0.252777787889811,0.170833336961321,-0.10567969083786,0.0268780700862408,0.0354301854968071
5,0.993055557076942,-0.263888898643915,0.163888889701015,-0.123394779860973,0.0308486949652433,-0.000610865245107561
5,0.980555627375371,-0.262500006760661,0.175000000455119,-0.131641462445259,0.0229074470698834,-0.017409659922123
5,0.972222276075846,-0.259722222994153,0.162500009973726,-0.131641462445259,-0.00671951752156019,-0.0253509078174829
5,0.98888888142718,-0.273611117514765,0.168055565350778,-0.120340451598167,0.00946841109544039,-0.0445931628346443
5,1.00972225967599,-0.290277795801886,0.166666673467524,-0.0833831056952477,0.0143553335219622,-0.0751364231109619
5,0.994444448960196,-0.284722228268869,0.184722231481934,-0.0830776765942574,-0.0128281703218818,-0.0720821022987366
5,0.984722303025134,-0.283333336385615,0.177777784221628,-0.0491746515035629,-0.0232128798961639,-0.0513126812875271
5,0.981944519258625,-0.281944444502361,0.170833336961321,-0.0180205255746841,-0.0232128798961639,-0.0320704244077206
5,0.990277773310434,-0.288888903918631,0.170833336961321,-0.0128281703218818,-0.0180205255746841,-0.0250454749912024
5,1.00000001649321,-0.284722228268869,0.177777784221628,-0.00580321997404099,0.000916297896765172,-0.0378736443817616
5,0.98888888142718,-0.276388901281273,0.18333333959868,0.0161879286170006,-0.0244346093386412,-0.0558941699564457
5,0.983333411141879,-0.263888898643915,0.176388892338373,0.0143553335219622,-0.0332921557128429,-0.0662788823246956
5,0.976388951725609,-0.252777787889811,0.170833336961321,0.00244346098043024,-0.0360410511493683,-0.0629191175103188
5,0.986111194908388,-0.256944463539574,0.162500009973726,-0.015577063895762,-0.0021380283869803,-0.0522289797663689
5,0.990277773310434,-0.261111114877407,0.181944447715425,-0.0351247526705265,0.000610865245107561,-0.0531452745199203
5,0.994444448960196,-0.261111114877407,0.187500003092477,-0.0546724386513233,-0.0167987942695618,-0.0882700309157372
5,0.986111194908388,-0.265277790527169,0.17361112072783,-0.0726929605007172,-0.013744467869401,-0.106290549039841
5,0.980555627375371,-0.261111114877407,0.16527778158427,-0.0888808965682983,-0.029626963660121,-0.0907134860754013
5,0.981944519258625,-0.247222220356795,0.161111118090472,-0.100181899964809,-0.0314595587551594,-0.0546724386513233
5,1.00000001649321,-0.258333331110899,0.156944454596674,-0.107817716896534,-0.0436768643558025,-0.0323758572340012
5,1.0125000434425,-0.265277790527169,0.156944454596674,-0.0858265683054924,-0.0500909499824047,-0.0345138870179653
5,1.00000001649321,-0.273611117514765,0.14722222356986,-0.0595593601465225,-0.0650571510195732,-0.0571159012615681
5,0.983333411141879,-0.279166685047782,0.152777778946911,-0.0332921557128429,-0.0827722400426865,-0.0577267669141293
5,0.984722303025134,-0.279166685047782,0.159722226207217,-0.0253509078174829,-0.0534507073462009,-0.0507018156349659
5,0.984722303025134,-0.269444466176932,0.15555556271342,-0.00763581553474069,-0.0287106670439243,-0.0412334054708481
