Activity,acc_x,acc_y,acc_z,gyro_x,gyro_y,gyro_z
0,0.380555573717971,0.161111118090472,0.898611103511094,-0.00152716308366507,-0.304516315460205,-0.108123145997524
0,0.354166676560001,0.198611113846581,0.938888968125464,0.141415297985077,0.0885754600167274,-0.149356558918953
0,0.377777789951463,0.233333350148112,0.979166735492117,0.0815505087375641,0.0910189226269722,0.154854342341423
0,0.377777789951463,0.233333350148112,0.979166735492117,0.0815505087375641,0.0910189226269722,0.154854342341423
0,0.377777789951463,0.233333350148112,0.979166735492117,0.219606056809425,-0.210748508572578,0.0662788823246956
0,0.393055576355329,0.195833342236038,0.95000000594378,0.209221348166466,0.0598647929728031,0.000305432622553781
0,0.376388898068209,0.250000004123303,0.938888968125464,0.16890424489975,0.113010071218014,-0.0497855171561241
0,0.362500003547597,0.212499996211229,0.876388930626744,0.0433714315295219,0.15851953625679,-0.0400116741657257
0,0.380555573717971,0.193055558469529,0.890277849459286,-0.00549778714776039,0.127976268529892,-0.0693332031369209
0,0.363888895430851,0.193055558469529,0.890277849459286,-0.0284052342176437,0.070249505341053,-0.0534507073462009
0,0.344444457689151,0.170833336961321,0.904166671044111,-0.015577063895762,0.0222965814173222,0.011606439948082
0,0.341666673922643,0.200000005729836,0.899999995394348,0.0149661982432008,-0.117286130785942,0.0409279726445675
0,0.368055571080613,0.197222234119292,0.89166674134254,0.04764748737216,0.00641408516094089,0.0192422550171614
0,0.368055571080613,0.197222234119292,0.89166674134254,0.0620028227567673,0.027488935738802,-0.011606439948082
0,0.372222246730376,0.198611113846581,0.899999995394348,0.0534507073462009,0.0357356183230877,-0.0207694191485643
0,0.358333352209763,0.193055558469529,0.905555562927365,0.0418442711234093,0.0668897479772568,-0.0235183127224445
0,0.359722244093018,0.190277786858986,0.906944454810619,0.000305432622553781,-0.0568104684352875,0.0430659987032413
0,0.358333352209763,0.194444450352783,0.904166671044111,-0.0448985956609249,-0.0873537287116051,0.0873537287116051
0,0.366666679197359,0.19166667874224,0.904166671044111,-0.0928515195846558,-0.0458148941397667,0.103847093880177
0,0.370833354847121,0.19166667874224,0.92083337364316,-0.100181899964809,-0.03176499158144,0.114231802523136
0,0.359722244093018,0.197222234119292,0.926388941176177,-0.102319926023483,-0.0455094613134861,0.150578290224075
0,0.359722244093018,0.200000005729836,0.927777833059431,-0.101403631269932,-0.0916297882795334,0.171347707509995
0,0.390277792588821,0.20972223675665,0.940277860008718,-0.0769690200686455,-0.0809396430850029,0.164322748780251
0,0.390277792588821,0.20972223675665,0.940277860008718,-0.0751364231109619,0.0171042270958424,0.133779495954514
0,0.397222227693163,0.187500003092477,0.913888914226889,-0.0690277740359306,-0.0305432621389627,0.0641408488154411
0,0.397222227693163,0.187500003092477,0.913888914226889,-0.0280998013913631,0.0125227374956012,0.0464257597923279
0,0.397222227693163,0.187500003092477,0.913888914226889,-0.0177150927484035,0.0103847095742822,0.0424551330506802
0,0.380555573717971,0.181944447715425,0.929166724942685,0.0607810914516449,-0.0571159012615681,0.0323758572340012
0,0.386111116939059,0.18333333959868,0.927777833059431,0.0858265683054924,-0.0809396430850029,0.0253509078174829
0,0.379166681834717,0.187500003092477,0.916666697993398,0.0803287774324417,-0.127670839428902,0.0473420582711697
0,0.387500008822313,0.184722231481934,0.926388941176177,0.0751364231109619,-0.076052725315094,0.0360410511493683
0,0.381944465601225,0.194444450352783,0.904166671044111,0.05283984541893,-0.0430659987032413,0.037568211555481
0,0.380555573717971,0.195833342236038,0.906944454810619,0.0430659987032413,-0.04764748737216,0.0360410511493683
0,0.377777789951463,0.194444450352783,0.911111130460381,0.0143553335219622,-0.0598647929728031,0.0540615729987621
0,0.381944465601225,0.19166667874224,0.909722238577127,-0.00549778714776039,-0.0656680166721344,0.0549778714776039
0,0.383333357484479,0.194444450352783,0.890277849459286,-0.0161879286170006,-0.0421497002243996,0.0647517144680023
0,0.377777789951463,0.187500003092477,0.916666697993398,0.0210748501121998,-0.0992656052112579,0.0623082555830479
0,0.380555573717971,0.190277786858986,0.918055589876652,0.064446285367012,-0.0870482996106148,0.0452040284872055
0,0.388888900705567,0.195833342236038,0.904166671044111,0.0421497002243996,-0.00183259579353034,0.0128281703218818
0,0.391666684472075,0.197222234119292,0.89722221162784,0.0415388382971287,0.087659165263176,-0.0207694191485643
0,0.383333357484479,0.184722231481934,0.890277849459286,0.0516181141138077,0.0995710343122482,-0.0226020142436027
0,0.375000006184955,0.179166676104882,0.894444525109048,0.0800233483314514,-0.0256563406437635,-0.00794124789535999
0,0.387500008822313,0.187500003092477,0.908333346693873,0.0662788823246956,-0.0494800843298435,0.0113010071218014
0,0.398611119576417,0.197222234119292,0.906944454810619,0.00641408516094089,0.0433714315295219,-0.0140499006956816
0,0.394444468238583,0.193055558469529,0.904166671044111,-0.0293215326964855,0.0763581544160843,-0.0210748501121998
0,0.394444468238583,0.193055558469529,0.904166671044111,-0.0421497002243996,0.0745255574584007,-0.0204639863222837
0,0.390277792588821,0.18333333959868,0.913888914226889,-0.0186313893646002,0.0781907513737679,-0.0226020142436027
0,0.380555573717971,0.18333333959868,0.916666697993398,-0.0189368221908808,0.00305432616733015,-0.00580321997404099
0,0.380555573717971,0.18333333959868,0.916666697993398,-0.0345138870179653,0.0339030213654041,-0.000305432622553781
0,0.387500008822313,0.181944447715425,0.923611157409668,-0.0598647929728031,0.0134390350431204,-0.00733038317412138
0,0.388888900705567,0.17361112072783,0.922222265526414,-0.0907134860754013,-0.00152716308366507,-0.0152716310694814
0,0.388888900705567,0.17361112072783,0.922222265526414,-0.120645888149738,-0.0323758572340012,0.00122173049021512
0,0.383333357484479,0.170833336961321,0.913888914226889,-0.107817716896534,-0.03176499158144,0.0033597587607801
0,0.377777789951463,0.168055565350778,0.904166671044111,-0.0452040284872055,0.00824668072164059,-0.00763581553474069
0,0.375000006184955,0.166666673467524,0.904166671044111,-0.00671951752156019,-0.0452040284872055,0.00977384392172098
0,0.375000006184955,0.166666673467524,0.904166671044111,-0.0219911485910416,-0.0940732508897781,0.0235183127224445
0,0.380555573717971,0.175000000455119,0.916666697993398,-0.0326812900602817,-0.0668897479772568,0.00305432616733015
0,0.387500008822313,0.18333333959868,0.912500022343635,-0.0800233483314514,-0.0549778714776039,-0.0103847095742822
0,0.387500008822313,0.18333333959868,0.906944454810619,-0.096211276948452,-0.03176499158144,-0.021685715764761
0,0.387500008822313,0.176388892338373,0.905555562927365,-0.104763388633728,0.0329867228865623,-0.03176499158144
0,0.391666684472075,0.18333333959868,0.913888914226889,-0.138055548071861,0.0745255574584007,-0.0406225398182869
0,0.380555573717971,0.190277786858986,0.913888914226889,-0.164628177881241,0.0439822971820831,-0.0378736443817616
0,0.377777789951463,0.18333333959868,0.911111130460381,-0.159130394458771,0.0565050356090069,-0.0277943685650826
0,0.344444457689151,0.163888889701015,0.880555606276507,-0.201280102133751,-0.0870482996106148,-0.0491746515035629
0,0.405555578992687,0.150000007336368,0.89722221162784,-0.104152522981167,0.0247400421649218,-0.0656680166721344
0,0.387500008822313,0.151388899219622,0.922222265526414,-0.0409279726445675,0.0113010071218014,-0.0696386396884918
0,0.386111116939059,0.15555556271342,0.931944508709193,-0.00794124789535999,0.0363464802503586,-0.115453533828259
0,0.377777789951463,0.166666673467524,0.919444481759906,-0.000610865245107561,0.135001212358475,-0.159741267561913
0,0.391666684472075,0.180555567988136,0.933333400592447,-0.0186313893646002,0.229379892349243,-0.211970239877701
0,0.366666679197359,0.17361112072783,0.92083337364316,-0.0210748501121998,0.171653136610985,-0.220827788114548
0,0.358333352209763,0.158333334323963,0.908333346693873,0.0354301854968071,0.128892570734024,-0.201280102133751
0,0.387500008822313,0.166666673467524,0.934722292475701,0.0409279726445675,0.148134827613831,-0.113926365971565
0,0.368055571080613,0.154166670830166,0.92083337364316,0.0100792767480016,0.0433714315295219,-0.156686931848526
0,0.370833354847121,0.17361112072783,0.923611157409668,-0.000610865245107561,0.0699440687894821,-0.164933621883392
0,0.352777784676747,0.156944454596674,0.911111130460381,-0.000916297896765172,-0.00977384392172098,-0.124616511166096
0,0.359722244093018,0.163888889701015,0.906944454810619,0.0171042270958424,-0.00519235478714108,-0.106290549039841
0,0.333333346935047,0.1194444466846,0.916666697993398,-0.00855211354792118,-0.0311541277915239,0.0177150927484035
0,0.358333352209763,0.158333334323963,0.911111130460381,-0.0232128798961639,-0.104457959532738,-0.0610865242779255
0,0.355555568443255,0.188888894975731,0.906944454810619,0.000916297896765172,0.0620028227567673,-0.0708603709936142
0,0.354166676560001,0.18333333959868,0.887500065692777,-0.130114302039146,-0.0271835029125214,-0.015577063895762
0,0.363888895430851,0.156944454596674,0.902777779160856,-0.137750118970871,-0.0864374339580536,-0.0250454749912024
0,0.341666673922643,0.161111118090472,0.94305554652751,-0.102625362575054,-0.0305432621389627,0.058643065392971
0,0.366666679197359,0.150000007336368,0.912500022343635,-0.177456349134445,-0.114842668175697,0.0583376325666905
0,0.401388903342925,0.180555567988136,0.926388941176177,-0.237626582384109,0.171958565711975,-0.0784961804747581
0,0.375000006184955,0.154166670830166,0.926388941176177,-0.229074463248253,0.114231802523136,-0.0824668109416962
0,0.375000006184955,0.154166670830166,0.926388941176177,-0.16951510310173,0.0280998013913631,-0.0601702257990837
0,0.365277787314105,0.150000007336368,0.956944465360051,-0.111788339912891,-0.0421497002243996,-0.0827722400426865
0,0.375000006184955,0.152777778946911,0.931944508709193,-0.0803287774324417,0.0971275717020035,-0.0167987942695618
0,0.330555563168539,0.179166676104882,0.938888968125464,-0.159130394458771,0.0555887371301651,-0.0626136884093285
0,0.365277787314105,0.163888889701015,0.909722238577127,-0.208915919065475,0.142026171088219,-0.0531452745199203
0,0.334722238818301,0.161111118090472,0.909722238577127,-0.167682513594627,0.10048733651638,-0.0867428630590439
0,0.325000019947452,0.180555567988136,0.93750007624221,-0.15332718193531,0.16920967400074,-0.0919352173805237
0,0.388888900705567,0.14722222356986,0.956944465360051,-0.101709060370922,0.393702656030655,-0.0754418596625328
0,0.394444468238583,0.134722233088466,0.948611114060526,-0.0934623852372169,0.511294186115265,-0.0207694191485643
0,0.333333346935047,0.143055560076062,0.934722292475701,-0.00244346098043024,0.620333671569824,-0.0378736443817616
0,0.315277801076602,0.140277788465518,0.947222222177272,0.0934623852372169,0.434630632400513,-0.101098194718361
0,0.329166671285285,0.120833338567854,0.962500032893068,0.104457959532738,0.202807262539864,-0.0705549344420433
0,0.325000019947452,0.12777778582816,0.93750007624221,0.0751364231109619,0.106901414692402,-0.0555887371301651
0,0.298611122789481,0.125000002061652,0.925000049292922,0.00519235478714108,-0.201890960335732,0.019547687843442
0,0.283333336385615,0.120833338567854,0.904166671044111,0.0458148941397667,-0.386983126401901,0.0452040284872055
0,0.24583335278547,0.177777784221628,0.933333400592447,0.0516181141138077,-0.492662817239761,0.103847093880177
0,0.351388892793493,0.130555557438704,0.930555616825939,-0.0167987942695618,-0.423329621553421,0.135001212358475
0,0.327777779402031,0.138888896582264,0.929166724942685,-0.0424551330506802,-0.372933238744736,0.113315500319004
0,0.248611112240049,0.204166669223633,0.940277860008718,-0.0131336031481624,-0.182954147458077,0.0507018156349659
0,0.406944470875941,0.12777778582816,0.933333400592447,0.0247400421649218,-0.0726929605007172,0.0378736443817616
0,0.381944465601225,0.12777778582816,0.941666654644256,0.0525344125926495,-0.0882700309157372,0.0100792767480016
0,0.372222246730376,0.131944449321958,0.926388941176177,0.0647517144680023,-0.261144906282425,0.0152716310694814
0,0.372222246730376,0.123611110178398,0.940277860008718,0.021685715764761,-0.538783133029938,0.070249505341053
0,0.384722225055805,0.118055554801345,0.948611114060526,0.0613919571042061,-0.569937288761139,0.0739146918058395
0,0.386111116939059,0.152777778946911,0.947222222177272,0.058643065392971,-0.270918726921081,0.0613919571042061
0,0.400000011459671,0.17361112072783,0.947222222177272,0.0720821022987366,-0.00946841109544039,0.0207694191485643
0,0.404166687109433,0.12777778582816,0.906944454810619,0.0290160998702049,-0.0558941699564457,0.251065611839294
0,0.413888905980283,0.169444445078067,0.926388941176177,-0.0213802829384804,0.0409279726445675,0.0742201283574104
0,0.405555578992687,0.156944454596674,0.912500022343635,0.00671951752156019,0.145996794104576,0.0183259565383196
0,0.309722233543585,0.0819444448505077,0.87500003874349,-0.189979091286659,-0.310319542884827,0.275805652141571
0,0.377777789951463,0.115277783190802,0.916666697993398,-0.153021737933159,-0.448680520057678,0.248011291027069
0,0.384722225055805,0.118055554801345,0.916666697993398,-0.187230199575424,-0.365602850914002,0.275805652141571
0,0.390277792588821,0.104166672436698,0.936111184358955,-0.0992656052112579,-0.404392778873444,0.277638256549835
0,0.412500014097029,0.101388894748172,0.94305554652751,-0.01588249579072,-0.318871647119522,0.245262399315834
0,0.416666689746791,0.104166672436698,0.933333400592447,0.0140499006956816,-0.25961771607399,0.181121543049812
0,0.411111122213775,0.106944444047242,0.92083337364316,0.0739146918058395,-0.178983509540558,0.132863193750381
0,0.406944470875941,0.115277783190802,0.912500022343635,0.114537231624126,-0.064446285367012,0.0568104684352875
0,0.4194444735133,0.116666675074056,0.89722221162784,0.112704634666443,0.0244346093386412,-0.0427605658769607
0,0.422222257279808,0.104166672436698,0.901388887277602,0.0922406539320946,0.0262672062963247,-0.087659165263176
0,0.379166681834717,0.111111119697004,0.877777822509998,0.0103847095742822,-0.0696386396884918,0.0503963828086853
0,0.437500019371745,0.0916666697993398,0.884722281926269,-0.0210748501121998,-0.0897971913218498,-0.0284052342176437
0,0.437500019371745,0.0916666697993398,0.884722281926269,-0.037568211555481,0.015577063895762,-0.142026171088219
0,0.418055581630046,0.101388894748172,0.911111130460381,-0.0311541277915239,0.0503963828086853,-0.144164204597473
0,0.413888905980283,0.0986111170596459,0.906944454810619,-0.0339030213654041,-0.0339030213654041,-0.11636982858181
0,0.433333343721983,0.106944444047242,0.899999995394348,-0.0232128798961639,-0.00427605677396059,-0.127670839428902
0,0.433333343721983,0.113888891307548,0.898611103511094,-0.0445931628346443,0.0464257597923279,-0.164933621883392
0,0.413888905980283,0.10972222781375,0.895833319744586,-0.0543670058250427,0.00122173049021512,-0.127365410327911
0,0.387500008822313,0.125000002061652,0.884722281926269,-0.0592539273202419,-0.0723875313997269,-0.0439822971820831
0,0.387500008822313,0.125000002061652,0.884722281926269,-0.0907134860754013,-0.0201585534960032,0.126143679022789
0,0.322222236180943,0.156944454596674,0.89722221162784,-0.240680903196335,-0.115758962929249,0.237321153283119
0,0.387500008822313,0.161111118090472,0.89166674134254,-0.491135656833649,0.165239050984383,0.223882108926773
0,0.380555573717971,0.163888889701015,0.87500003874349,-0.696386396884918,0.175318330526352,0.38117989897728
0,0.298611122789481,0.116666675074056,0.879166714393253,-0.655152976512909,-0.0311541277915239,0.589484989643097
0,0.315277801076602,0.0833333367337618,0.890277849459286,-0.517708301544189,0.285884946584701,0.437684953212738
0,0.358333352209763,0.0583333375370279,0.884722281926269,-0.44409903883934,0.841772317886353,0.189673662185669
0,0.370833354847121,0.029166668768514,0.854166660494678,-0.467006474733353,1.21195662021637,-0.0568104684352875
0,0.426388884305712,-0.0625000010308258,0.562499997121468,-1.11146926879883,2.70094060897827,-0.189979091286659
0,0.316666668647927,-0.0402777795226179,0.887500065692777,-0.613614141941071,2.62213897705078,-0.834441900253296
0,0.204166669223633,0.156944454596674,0.834722271376837,-0.492662817239761,3.20673704147339,-0.740368664264679
0,0.204166669223633,0.156944454596674,0.834722271376837,-0.308792382478714,2.42818927764893,-0.318566232919693
0,0.305555557893823,-0.0805555590452358,0.973611167959101,-0.289550125598908,1.4456125497818,0.595899045467377
0,0.334722238818301,-0.118055554801345,1.04861113515939,-0.726624190807343,1.03663837909699,1.50211763381958
0,0.313888909193348,-0.125000002061652,1.0513889189259,-1.48195910453796,1.03236222267151,2.00333261489868
0,0.20138889761309,-0.0694444482911319,1.03888889197661,-2.20125293731689,0.683558225631714,2.39306449890137
0,0.0513888902767219,-0.120833338567854,1.03888889197661,-2.53722882270813,-0.12675453722477,2.68047666549683
0,0.0513888902767219,-0.120833338567854,1.03888889197661,-2.70185708999634,-0.192422553896904,2.49141383171081
0,0.0347222241455659,-0.193055558469529,0.987499989543926,-3.08670210838318,-0.234877690672875,1.83565008640289
0,0.144444451959316,-0.343055565805897,0.926388941176177,-3.45994067192078,-0.490524798631668,1.68476629257202
0,0.122222230451108,-0.377777789951463,0.844444514559616,-3.31608200073242,-2.05769968032837,1.69606733322144
0,0.122222230451108,-0.452777781463682,0.693055591028065,-3.10716605186462,-4.03048896789551,1.7690657377243
0,0.055555559848502,-0.565277780887976,0.618055575203916,-2.5302038192749,-5.907066822052,1.20096111297607
0,0.0625000010308258,-0.626388926503441,0.780555585177642,-2.2513439655304,-4.21008348464966,0.116980694234371
0,0.20138889761309,-0.669444477636603,0.856944444261187,-1.95690679550171,-2.34388995170593,-0.829554975032806
0,0.265277790527169,-0.77638890952788,0.800000022919342,-1.27182149887085,-1.21317839622498,-0.961807310581207
0,0.269444466176932,-0.695833374794573,0.600000029345471,-0.631023824214935,-1.14170718193054,-0.910189211368561
0,0.376388898068209,-0.572222240304247,0.427777776188966,0.51923543214798,-0.543975472450256,-1.8579466342926
0,0.397222227693163,-0.556944478212309,0.458333348996699,2.13894462585449,0.498466044664383,-2.57907295227051
0,0.420833365396554,-0.620833358970425,0.594444461812454,2.49202466011047,-0.292299032211304,-2.9501736164093
0,0.483333354271415,-0.594444461812454,0.676388937052873,0.924239099025726,-3.17711019515991,-3.08028793334961
0,0.522222229754814,-0.623611142736933,0.693055591028065,-1.03877639770508,-5.46357870101929,-3.20612621307373
0,0.676388937052873,-0.559722261978817,0.600000029345471,-2.82464098930359,-5.62057113647461,-3.40923881530762
0,0.89722221162784,-0.459722240879953,0.500000008246606,-3.9526035785675,-3.28553867340088,-3.71894764900208
0,0.973611167959101,-0.495833332596844,0.468055592179478,-4.0439281463623,-0.56657749414444,-3.58547353744507
0,1.01944450285877,-0.509722251429385,0.415277797863537,-3.46543860435486,-0.688445150852203,-3.29592347145081
0,1.02916674604155,-0.572222240304247,0.440277803138253,-2.57418608665466,-3.33410239219665,-3.00209712982178
0,1.00555558402623,-0.541666667496514,0.376388898068209,-2.15788149833679,-5.4192910194397,-3.05982398986816
0,1.13750002119222,-0.456944457113445,0.316666668647927,-2.2101104259491,-4.93487501144409,-2.98560380935669
0,1.20972230187372,-0.476388894855144,0.394444468238583,-2.42024803161621,-3.6548068523407,-2.38145804405212
0,1.38055561452311,-0.320833344297689,0.18333333959868,-3.16183853149414,-2.78798890113831,-2.05036926269531
0,1.26666667459171,-0.236111109602691,0.101388894748172,-3.79683303833008,-2.66856479644775,-0.841772317886353
0,1.11111117265811,-0.215277779977737,0.0458333348996699,-3.76995491981506,-2.68139290809631,-0.208610475063324
0,1.00972225967599,-0.101388894748172,-0.0402777795226179,-3.29012012481689,-2.26722645759583,-0.272140473127365
0,1.06805562152495,-0.0680555564078778,-0.0583333375370279,-2.27883291244507,-1.71072816848755,-0.626747727394104
0,1.17638889667562,-0.0361111129898289,-0.0944444474878658,-1.4367550611496,-1.6368134021759,-0.617890179157257
0,1.1652778588573,-0.027777779924251,-0.126388893944906,-0.604451179504395,-1.328937292099,-0.0699440687894821
0,1.00555558402623,0.00277777787846293,-0.111111119697004,0.163101017475128,-0.611781537532806,0.662788808345795
0,0.940277860008718,0.0430555572111439,-0.134722233088466,0.4914411008358,-0.514043092727661,0.828333258628845
0,0.94305554652751,0.0652777787193518,-0.202777789496344,0.319482535123825,-0.438906669616699,0.597731649875641
0,0.898611103511094,-0.00138888893923146,-0.104166672436698,0.752280533313751,0.920573949813843,0.785878121852875
0,0.82222224442755,-0.03194444645704,-0.169444445078067,0.636521577835083,0.932180345058441,1.51891648769379
0,0.848611190209378,0.0152777788063885,-0.298611122789481,0.107206851243973,-0.0763581544160843,1.83687174320221
0,0.830555595727074,0.00277777787846293,-0.237500001485945,0.236404851078987,-0.608116328716278,1.78097760677338
0,0.856944444261187,-0.101388894748172,-0.19166667874224,-0.127670839428902,0.151800006628036,1.36650550365448
0,0.863888903677457,-0.251388896006557,-0.156944454596674,-1.58794414997101,0.300545692443848,1.3179417848587
0,0.919444481759906,-0.272222225631511,-0.17361112072783,-1.45080494880676,-0.56657749414444,0.607200026512146
0,0.98888888142718,-0.256944463539574,-0.238888893369199,-1.23822391033173,-0.874759018421173,0.0186313893646002
0,0.98888888142718,-0.215277779977737,-0.212499996211229,-1.02350473403931,-0.261450320482254,-0.0928515195846558
0,0.98888888142718,-0.215277779977737,-0.212499996211229,-0.73517632484436,-0.17440202832222,-0.658818185329437
0,0.970833384192592,-0.0750000036681839,-0.286111120152123,-0.742506682872772,-0.357661604881287,-0.807563841342926
0,0.973611167959101,-0.0513888902767219,-0.352777784676747,-0.812450766563416,-0.37568211555481,-0.806036710739136
0,0.973611167959101,-0.0513888902767219,-0.352777784676747,-0.674700677394867,-0.278554558753967,-1.16369831562042
0,1.07083340529146,-0.0222222230277034,-0.415277797863537,-0.765108704566956,-0.313373863697052,-1.53021740913391
0,1.05416670269241,-0.134722233088466,-0.309722233543585,-0.671340882778168,0.150578290224075,-0.359188765287399
0,0.913888914226889,-0.286111120152123,-0.326388911830706,-0.443182736635208,-0.334754168987274,0.896139323711395
0,0.934722292475701,-0.233333350148112,-0.306944449777077,0.149661988019943,0.305738061666489,1.00029182434082
0,0.933333400592447,-0.176388892338373,-0.325000019947452,-0.0992656052112579,0.0519235469400883,0.230296194553375
0,0.993055557076942,-0.120833338567854,-0.384722225055805,-0.461508691310883,-0.100792765617371,-0.302989155054092
0,0.993055557076942,-0.120833338567854,-0.384722225055805,-0.461508691310883,-0.100792765617371,-0.302989155054092
0,0.993055557076942,-0.120833338567854,-0.384722225055805,0.011606439948082,0.814588785171509,0.08460483700037
0,0.831944487610329,-0.120833338567854,-0.411111122213775,-0.0968221426010132,0.789237916469574,0.0784961804747581
0,1.03750000009336,-0.00972222266958873,-0.358333352209763,-0.0687223374843597,1.15331363677978,-0.113620936870575
0,1.03750000009336,-0.00972222266958873,-0.358333352209763,-0.130419731140137,0.927904307842255,-0.685696244239807
0,1.0125000434425,-0.0125000003581147,-0.313888909193348,0.0397062413394451,0.754418551921844,-0.211664810776711
0,0.99583334084345,-0.0680555564078778,-0.259722222994153,-0.0293215326964855,0.215635433793068,0.17989981174469
0,1.02638896227504,-0.0819444448505077,-0.24583335278547,0.144164204597473,0.281608879566193,0.105068825185299
0,0.99583334084345,-0.027777779924251,-0.259722222994153,0.292604446411133,0.834441900253296,-0.0757472887635231
0,0.930555616825939,-0.0625000010308258,-0.195833342236038,0.0339030213654041,0.170125976204872,-0.994794070720673
0,0.901388887277602,-0.0513888902767219,-0.252777787889811,0.0146607663482428,0.29596421122551,-1.01464712619781
0,1.08333333499303,-0.00972222266958873,-0.341666673922643,0.011606439948082,0.422413319349289,-0.850018978118896
0,1.11388895642462,-0.0111111115138517,-0.363888895430851,0.0143553335219622,0.510988771915436,-0.580932855606079
0,1.16666675074056,-0.0750000036681839,-0.329166671285285,-0.0867428630590439,-0.0146607663482428,-0.436463207006455
0,1.00277780025972,-0.150000007336368,-0.222222239394008,-0.00305432616733015,-0.315511912107468,-0.208915919065475
0,0.650000039894903,-0.25555557165632,-0.0777777813567098,0.0531452745199203,-0.523206055164337,0.669813752174377
0,0.827777811960566,0.0152777788063885,-0.243055569018962,0.00702495034784079,-0.281914323568344,0.795346558094025
0,0.986111194908388,0.0722222259796579,-0.325000019947452,0.120340451598167,0.373544096946716,1.24372160434723
0,0.972222276075846,-0.0361111129898289,-0.315277801076602,0.0992656052112579,1.18477308750153,1.26418566703796
0,1.10416671324184,-0.12777778582816,-0.287500012035377,-0.234572261571884,0.69272118806839,-0.288022965192795
0,1.0361111082101,-0.169444445078067,-0.233333350148112,-0.249843880534172,0.595899045467377,0.104457959532738
0,1.00277780025972,-0.18333333959868,-0.186111123365188,-0.199447497725487,0.675922393798828,-0.100792765617371
0,0.980555627375371,-0.166666673467524,-0.194444450352783,0.299934834241867,1.5845844745636,-0.112399205565453
0,1.07222229717471,-0.256944463539574,-0.163888889701015,0.109344877302647,1.44347453117371,-0.25961771607399
0,1.06111116210868,-0.202777789496344,-0.125000002061652,0.226325571537018,1.45202672481537,-0.335670441389084
0,1.05416670269241,-0.0194444453391775,-0.101388894748172,0.134695783257484,0.869872093200684,0.127670839428902
0,1.05416670269241,-0.0194444453391775,-0.101388894748172,-0.260839462280273,0.298713117837906,0.244040668010712
0,1.02083339474202,0.0250000007162294,-0.148611115453114,-0.281303435564041,0.297185927629471,0.22204951941967
0,0.99583334084345,-0.0236111118719664,-0.0791666671619817,-0.184481307864189,0.551000475883484,0.347276896238327
0,0.99583334084345,-0.0236111118719664,-0.0791666671619817,-0.2165517359972,0.405614525079727,0.320398807525635
0,0.99583334084345,-0.12916666555545,-0.055555559848502,-0.171042263507843,0.333226978778839,0.393702656030655
0,1.01111115155925,-0.10972222781375,-0.0694444482911319,0.0537561401724815,0.636216163635254,0.300240278244019
0,1.01111115155925,-0.10972222781375,-0.0694444482911319,0.164628177881241,0.761748969554901,0.334143280982971
0,0.95000000594378,-0.0222222230277034,-0.00555555575692586,0.281914323568344,0.50182580947876,0.473726004362106
0,0.99583334084345,-0.0625000010308258,-0.00555555575692586,0.214413702487946,0.316428184509277,0.511905074119568
0,1.07222229717471,-0.134722233088466,-0.0250000007162294,0.100792765617371,-0.0980438739061356,0.304210901260376
0,1.04861113515939,-0.161111118090472,-0.0402777795226179,0.0919352173805237,-0.107512280344963,0.0354301854968071
0,1.08750001064279,-0.181944447715425,-0.0569444456537738,-0.0268780700862408,0.224187538027763,-0.00641408516094089
0,0.998611124609959,-0.120833338567854,-0.0666666706026059,-0.0433714315295219,0.539088606834412,0.0473420582711697
0,1.01527782720901,-0.125000002061652,-0.0777777813567098,-0.0427605658769607,0.783740103244781,-0.137139245867729
0,0.959722249126559,-0.130555557438704,0.0250000007162294,0.0769690200686455,0.932485818862915,-0.515875697135925
0,0.959722249126559,-0.168055565350778,0.0458333348996699,0.201585531234741,0.48136180639267,-0.66584312915802
0,1.06388894587519,-0.193055558469529,0.0194444453391775,-0.0794124826788902,0.264504641294479,-0.754113137722015
0,0.998611124609959,-0.15555556271342,0.00277777787846293,-0.350942075252533,0.604145705699921,-0.749837100505829
0,0.96666670854283,-0.033333335301303,-0.106944444047242,-0.647211730480194,1.27151596546173,-0.75105881690979
0,0.975000059842355,-0.0986111170596459,0.0236111118719664,-0.445320755243301,1.34909594058991,-0.939205288887024
0,1.02500007039179,-0.116666675074056,0.133333341205212,-0.130114302039146,0.921184778213501,-1.03663837909699
0,1.05694448645892,-0.0736111117849297,0.144444451959316,0.0213802829384804,0.597426235675812,-0.816421389579773
0,1.08333333499303,-0.0930555616825939,0.144444451959316,0.390037447214127,0.298713117837906,-0.456621766090393
0,1.1236111996074,0.00277777787846293,0.150000007336368,0.307876080274582,0.0354301854968071,-0.356745302677154
0,1.08472222687628,0.0194444453391775,0.0944444474878658,0.0500909499824047,-0.113926365971565,0.0626136884093285
0,1.02222228662528,0.0111111115138517,0.101388894748172,-0.0827722400426865,-0.107817716896534,0.0650571510195732
0,1.04861113515939,-0.00555555575692586,0.112499999424294,0.00977384392172098,-0.0412334054708481,-0.0507018156349659
0,1.02500007039179,-0.0138888899621255,0.130555557438704,0.105068825185299,-0.00549778714776039,-0.106290549039841
0,0.930555616825939,-0.0486111125881959,0.1194444466846,-0.00122173049021512,0.0616973899304867,-0.293826192617416
0,1.00972225967599,-0.00555555575692586,0.112499999424294,0.0427605658769607,0.145385921001434,-0.142942473292351
0,0.980555627375371,-0.00555555575692586,0.123611110178398,0.0280998013913631,0.19578230381012,-0.162490159273148
0,0.863888903677457,0.0222222230277034,0.144444451959316,0.154243469238281,0.234266817569733,0.441960990428925
0,1.00000001649321,0.027777779924251,0.130555557438704,0.116675265133381,0.070249505341053,0.544891774654388
0,0.929166724942685,-0.0125000003581147,0.12777778582816,0.0827722400426865,0.076052725315094,1.12948977947235
0,1.06527783775844,-0.0763888894734557,0.12916666555545,0.0833831056952477,0.0348193198442459,0.957531273365021
0,1.06527783775844,-0.0763888894734557,0.12916666555545,0.177456349134445,0.228769034147263,1.25593888759613
0,1.04027778385987,-0.0944444474878658,0.14722222356986,0.0748309940099716,0.200669229030609,1.4245377779007
0,1.0125000434425,-0.0986111170596459,0.134722233088466,0.08460483700037,0.264504641294479,1.36131322383881
0,0.804166698569104,-0.113888891307548,0.150000007336368,0.10567969083786,0.414472073316574,1.73424637317657
0,1.19027781550816,-0.265277790527169,0.0875000002275597,0.0537561401724815,0.578794836997986,0.897055625915527
0,1.15833339944103,-0.250000004123303,0.123611110178398,0.0271835029125214,0.901331663131714,0.325896620750427
0,1.16388896697405,-0.241666677135707,0.140277788465518,0.11636982858181,1.10261178016663,-0.0293215326964855
0,1.0513889189259,-0.212499996211229,0.208333344873396,0.111788339912891,1.11818885803223,-0.223882108926773
0,0.886111173809523,-0.170833336961321,0.258333331110899,0.0464257597923279,0.923628270626068,0.0824668109416962
0,0.87500003874349,-0.193055558469529,0.301388906555989,0.152410879731178,0.434630632400513,0.211664810776711
0,1.15972229132429,-0.197222234119292,0.262500006760661,0.0235183127224445,0.191811680793762,-0.0207694191485643
0,1.07916665934326,-0.19166667874224,0.266666682410424,-0.122173048555851,0.140193566679955,-0.155770644545555
0,1.00555558402623,-0.170833336961321,0.279166685047782,-0.254730820655823,0.0210748501121998,-0.181121543049812
0,0.906944454810619,-0.162500009973726,0.259722222994153,-0.138055548071861,-0.0577267669141293,-0.156992360949516
0,0.906944454810619,-0.162500009973726,0.259722222994153,-0.0455094613134861,0.0784961804747581,-0.265115529298782
0,1.03194452980806,-0.19166667874224,0.259722222994153,-0.078801617026329,0.110261179506779,-0.160046696662903
0,0.983333411141879,-0.163888889701015,0.277777793164528,-0.0247400421649218,0.0384845100343227,-0.13744467496872
0,0.983333411141879,-0.163888889701015,0.277777793164528,0.00122173049021512,-0.249233022332191,-0.0464257597923279
0,1.09861114570882,-0.216666671860991,0.241666677135707,0.0436768643558025,-0.0357356183230877,-0.0931569486856461
0,0.991666665193688,-0.181944447715425,0.247222220356795,0.102930791676045,-0.037568211555481,-0.0946841165423393
0,1.04583335139288,-0.179166676104882,0.206944452990142,0.0109955742955208,0.0995710343122482,-0.0781907513737679
0,1.00000001649321,-0.163888889701015,0.238888893369199,0.0311541277915239,0.102625362575054,-0.124005645513535
0,1.02083339474202,-0.194444450352783,0.259722222994153,0.0201585534960032,0.0928515195846558,-0.123089343309402
0,0.98888888142718,-0.18333333959868,0.259722222994153,0.0149661982432008,0.0687223374843597,-0.182343274354935
0,0.952777789710289,-0.15555556271342,0.261111114877407,-0.0436768643558025,-0.0100792767480016,-0.189368233084679
0,0.972222276075846,-0.13750000469901,0.243055569018962,-0.0442877300083637,-0.0244346093386412,-0.0568104684352875
0,1.06666672964169,-0.18333333959868,0.233333350148112,-0.0329867228865623,-0.0601702257990837,-0.0491746515035629
0,1.0305556379248,-0.176388892338373,0.293055555256465,-0.0421497002243996,-0.0161879286170006,-0.107512280344963
0,1.02222228662528,-0.12916666555545,0.254166679773066,0.03176499158144,0.0311541277915239,-0.0778853222727776
0,1.07083340529146,-0.184722231481934,0.262500006760661,-0.0100792767480016,-0.0513126812875271,-0.123700208961964
0,1.01944450285877,-0.193055558469529,0.275000009398019,-0.0778853222727776,0.017409659922123,-0.148745685815811
0,0.993055557076942,-0.170833336961321,0.281944444502361,-0.0711658000946045,0.125227376818657,-0.128281697630882
0,0.997222232726705,-0.154166670830166,0.266666682410424,-0.100792765617371,-0.0986547395586967,-0.187230199575424
0,1.0125000434425,-0.151388899219622,0.287500012035377,0.0021380283869803,-0.0803287774324417,-0.0803287774324417
0,0.998611124609959,-0.133333341205212,0.269444466176932,0.0372627787292004,-0.10048733651638,-0.0537561401724815
0,1.00000001649321,-0.133333341205212,0.265277790527169,0.000610865245107561,-0.126449108123779,-0.090408056974411
0,0.977777843608863,-0.144444451959316,0.262500006760661,-0.0113010071218014,-0.249538451433182,-0.0610865242779255
0,1.04027778385987,-0.170833336961321,0.226388890731841,-0.0455094613134861,-0.213802829384804,-0.151800006628036
0,1.01527782720901,-0.159722226207217,0.250000004123303,-0.104763388633728,-0.362243086099625,-0.123089343309402
0,1.02361117850853,-0.12777778582816,0.250000004123303,-0.0387899428606033,-0.375987559556961,-0.142637029290199
0,1.02638896227504,-0.134722233088466,0.226388890731841,-0.00733038317412138,-0.166766211390495,-0.189368233084679
0,1.06250005399193,-0.122222230451108,0.213888888094483,0.0027488935738802,0.0519235469400883,-0.04764748737216
0,1.0125000434425,-0.122222230451108,0.202777789496344,0.00733038317412138,0.0885754600167274,0.0406225398182869
0,0.979166735492117,-0.134722233088466,0.216666671860991,0.00702495034784079,0.0784961804747581,0.0568104684352875
0,0.986111194908388,-0.13750000469901,0.238888893369199,-0.0516181141138077,0.0287106670439243,-0.0397062413394451
0,0.983333411141879,-0.125000002061652,0.237500001485945,-0.0290160998702049,-0.00885754637420177,-0.0479529201984406
0,0.993055557076942,-0.12777778582816,0.224999998848587,-0.0262672062963247,-0.0433714315295219,-0.0290160998702049
0,1.04722224327614,-0.13750000469901,0.200000005729836,-0.106901414692402,0.03176499158144,-0.0394008085131645
0,0.990277773310434,-0.12777778582816,0.250000004123303,-0.116980694234371,-0.411417752504349,-0.0986547395586967
0,1.00833336779274,-0.108333335930496,0.248611112240049,-0.105068825185299,-0.498771458864212,-0.0219911485910416
0,1.02500007039179,-0.144444451959316,0.280555576931036,0.00152716308366507,-0.251981914043427,-0.0809396430850029
0,1.00000001649321,-0.125000002061652,0.204166669223633,0.119118720293045,-0.220522359013557,0.0467311926186085
0,1.06388894587519,-0.0902777839940679,0.188888894975731,0.0314595587551594,-0.0305432621389627,-0.0100792767480016
0,1.07222229717471,-0.140277788465518,0.244444460902216,0.0919352173805237,0.224492982029915,-0.0177150927484035
0,1.03750000009336,-0.118055554801345,0.20972223675665,0.0873537287116051,0.328340083360672,-0.03176499158144
0,0.983333411141879,-0.118055554801345,0.205555561106887,0.0400116741657257,0.267253547906876,-0.0842994004487991
0,0.979166735492117,-0.133333341205212,0.227777782615095,-0.00733038317412138,0.162795588374138,-0.0861319974064827
0,0.99583334084345,-0.141666668192807,0.233333350148112,0.0482583530247212,0.264810085296631,-0.148745685815811
0,0.96666670854283,-0.104166672436698,0.222222239394008,0.0616973899304867,0.242513507604599,-0.116980694234371
0,0.972222276075846,-0.100000002864918,0.216666671860991,-0.0146607663482428,0.11117747426033,-0.0152716310694814
0,0.993055557076942,-0.105555564319952,0.226388890731841,-0.0180205255746841,0.22785273194313,-0.017409659922123
0,0.962500032893068,-0.108333335930496,0.250000004123303,0.0229074470698834,0.259006857872009,-0.0360410511493683
0,0.991666665193688,-0.113888891307548,0.25555557165632,0.0430659987032413,0.142942473292351,-0.0427605658769607
0,1.00694447590948,-0.105555564319952,0.254166679773066,0.0171042270958424,0.113010071218014,-0.0348193198442459
0,0.991666665193688,-0.0916666697993398,0.243055569018962,0.0128281703218818,0.184481307864189,-0.00427605677396059
0,0.980555627375371,-0.115277783190802,0.226388890731841,0.00610865233466029,0.283136039972305,0.00733038317412138
0,0.986111194908388,-0.12916666555545,0.247222220356795,-0.0503963828086853,0.178983509540558,-0.0198531206697226
0,0.99583334084345,-0.123611110178398,0.263888898643915,-0.0864374339580536,0.0351247526705265,-0.0125227374956012
0,1.00000001649321,-0.104166672436698,0.259722222994153,-0.0678060427308083,-0.00916297826915979,0.0299323964864016
0,1.00138890837647,-0.0958333393711199,0.256944463539574,0.0430659987032413,0.106290549039841,0.180816113948822
0,0.990277773310434,-0.113888891307548,0.251388896006557,0.113315500319004,0.324064016342163,0.313679307699203
0,0.969444492309338,-0.14722222356986,0.254166679773066,0.131336033344269,0.409890592098236,0.333532422780991
0,0.968055600426084,-0.156944454596674,0.248611112240049,0.0363464802503586,0.363770246505737,0.267558991909027
0,0.98888888142718,-0.105555564319952,0.315277801076602,-0.133168622851372,0.0766635909676552,0.146302223205566
0,0.993055557076942,-0.12777778582816,0.305555557893823,-0.154243469238281,-0.118202425539494,-0.0754418596625328
0,1.01944450285877,-0.10972222781375,0.265277790527169,-0.105068825185299,-0.216246291995048,-0.155465200543404
0,0.947222222177272,-0.133333341205212,0.358333352209763,0.0497855171561241,-0.530536472797394,0.017409659922123
0,0.958333357243305,-0.120833338567854,0.325000019947452,0.193338856101036,-0.869872093200684,0.160352125763893
0,0.99583334084345,-0.115277783190802,0.279166685047782,0.226631000638008,-0.967610538005829,0.194866016507149
0,0.923611157409668,-0.14722222356986,0.20138889761309,0.16920967400074,-0.879340529441833,0.162490159273148
0,1.08333333499303,-0.193055558469529,-0.411111122213775,-0.886976361274719,1.56625843048096,-0.192117124795914
0,0.913888914226889,-0.162500009973726,0.377777789951463,0.135001212358475,0.383928805589676,-0.0711658000946045
0,0.990277773310434,-0.122222230451108,0.234722242031366,0.119729585945606,0.337503045797348,0.0534507073462009
0,1.00416669214298,-0.125000002061652,0.304166666010569,0.168293371796608,0.101098194718361,0.04764748737216
0,1.01805561097552,-0.130555557438704,0.244444460902216,0.113315500319004,0.0302378293126821,0.0632245540618896
0,1.01805561097552,-0.130555557438704,0.244444460902216,0.0565050356090069,0.0714712366461754,0.0546724386513233
0,0.986111194908388,-0.148611115453114,0.236111109602691,0.00244346098043024,0.15851953625679,0.0250454749912024
0,0.986111194908388,-0.152777778946911,0.231944458264858,-0.00885754637420177,0.110566608607769,-0.0122173046693206
0,0.976388951725609,-0.150000007336368,0.279166685047782,0.03176499158144,0.070249505341053,-0.0106901414692402
0,0.981944519258625,-0.14722222356986,0.269444466176932,0.0522289797663689,0.08460483700037,0.0180205255746841
0,0.96666670854283,-0.143055560076062,0.277777793164528,0.0791070461273193,0.000305432622553781,-0.0357356183230877
0,0.977777843608863,-0.134722233088466,0.262500006760661,0.0626136884093285,0.0720821022987366,-0.0369573459029198
0,0.99583334084345,-0.154166670830166,0.293055555256465,0.101709060370922,-0.00397062394768,-0.0580321997404099
0,0.993055557076942,-0.115277783190802,0.24583335278547,-0.0210748501121998,0.0894917547702789,0.00702495034784079
0,0.998611124609959,-0.125000002061652,0.250000004123303,-0.0965167060494423,0.137750118970871,-0.00580321997404099
0,0.975000059842355,-0.120833338567854,0.287500012035377,-0.0500909499824047,0.203723564743996,0.0146607663482428
0,0.916666697993398,-0.125000002061652,0.247222220356795,-0.160352125763893,0.0592539273202419,0.111788339912891
0,0.991666665193688,-0.15555556271342,0.25555557165632,-0.143858760595322,0.183870434761047,0.0164933614432812
0,1.00000001649321,-0.151388899219622,0.29166668768514,-0.164322748780251,0.40225476026535,-0.00549778714776039
0,0.965277816659576,-0.138888896582264,0.295833339022973,0.0381790772080422,-0.0326812900602817,-0.0021380283869803
0,0.98888888142718,-0.120833338567854,0.294444447139719,0.00610865233466029,0.286495804786682,0.0250454749912024
0,0.972222276075846,-0.126388893944906,0.293055555256465,0.0665843114256859,0.132557764649391,0.0589484944939613
0,0.962500032893068,-0.141666668192807,0.288888903918631,0.0226020142436027,0.140193566679955,0.0452040284872055
0,0.96666670854283,-0.140277788465518,0.300000014672736,0.0167987942695618,0.113926365971565,0.0143553335219622
0,0.969444492309338,-0.138888896582264,0.298611122789481,0.0122173046693206,0.0140499006956816,0.0164933614432812
0,0.968055600426084,-0.14722222356986,0.298611122789481,-0.0305432621389627,-0.0473420582711697,-0.00366519158706069
0,0.977777843608863,-0.14722222356986,0.295833339022973,-0.0467311926186085,-0.0180205255746841,-0.0293215326964855
0,0.973611167959101,-0.138888896582264,0.300000014672736,-0.0122173046693206,0.0372627787292004,-0.027488935738802
0,0.973611167959101,-0.138888896582264,0.300000014672736,0.0204639863222837,-0.0177150927484035,-0.0027488935738802
0,0.977777843608863,-0.141666668192807,0.348611133338914,-0.0125227374956012,-0.0366519130766392,-0.0027488935738802
0,0.979166735492117,-0.148611115453114,0.306944449777077,-0.00794124789535999,0.0488692186772823,-0.0268780700862408
0,0.959722249126559,-0.126388893944906,0.305555557893823,0.133474051952362,-0.0971275717020035,-0.0329867228865623
0,0.959722249126559,-0.126388893944906,0.305555557893823,0.0806342139840126,-0.00977384392172098,-0.00733038317412138
0,0.984722303025134,-0.118055554801345,0.286111120152123,0.215330004692078,-0.131641462445259,0.0222965814173222
0,0.959722249126559,-0.126388893944906,0.333333346935047,0.176845490932465,-0.50335294008255,0.186619326472282
0,0.945833330294018,-0.140277788465518,0.265277790527169,0.235488548874855,-0.338113903999329,0.251371055841446
0,0.959722249126559,-0.216666671860991,0.233333350148112,0.0778853222727776,-0.135612085461616,0.134390354156494
0,1.03194452980806,-0.14722222356986,0.177777784221628,-0.141415297985077,0.279470860958099,0.0204639863222837
0,1.03888889197661,-0.148611115453114,0.202777789496344,-0.199142068624496,0.378736466169357,-0.117286130785942
0,0.983333411141879,-0.154166670830166,0.309722233543585,-0.017409659922123,-0.140193566679955,-0.00305432616733015
0,0.92083337364316,-0.12916666555545,0.334722238818301,-0.00885754637420177,-0.265115529298782,0.0516181141138077
0,0.969444492309338,-0.150000007336368,0.308333341660331,-0.064446285367012,-0.087659165263176,-0.0497855171561241
0,1.11527784830787,-0.194444450352783,0.206944452990142,-0.378431022167206,0.505185544490814,-0.23823744058609
0,1.05555559457566,-0.170833336961321,0.265277790527169,-0.429743707180023,0.36529740691185,-0.222660377621651
0,0.902777779160856,-0.126388893944906,0.305555557893823,-0.469755381345749,0.101098194718361,-0.113926365971565
0,0.919444481759906,-0.134722233088466,0.376388898068209,-0.0931569486856461,-0.0143553335219622,-0.0177150927484035
0,0.890277849459286,-0.10972222781375,0.401388903342925,0.347887754440308,-0.144164204597473,0.179288953542709
0,0.887500065692777,-0.120833338567854,0.418055581630046,0.775187969207764,-0.469449937343597,0.330783516168594
0,1.03194452980806,-0.190277786858986,0.226388890731841,0.0949895456433296,0.0280998013913631,-0.0021380283869803
0,1.02222228662528,-0.194444450352783,0.17361112072783,-0.124616511166096,0.249233022332191,-0.0723875313997269
0,0.969444492309338,-0.14722222356986,0.25555557165632,-0.146302223205566,0.120951317250729,-0.0494800843298435
0,0.96666670854283,-0.161111118090472,0.280555576931036,-0.110261179506779,0.146607652306557,-0.08460483700037
0,1.00416669214298,-0.161111118090472,0.315277801076602,-0.0519235469400883,0.199752941727638,-0.0879645943641663
0,0.93750007624221,-0.206944452990142,0.380555573717971,0.0757472887635231,0.0394008085131645,-0.0397062413394451
0,0.944444438410764,-0.154166670830166,0.361111135976272,0.0497855171561241,-0.0366519130766392,-0.0873537287116051
0,0.888888957576031,-0.216666671860991,0.466666700296224,0.300240278244019,-0.124311074614525,0.112704634666443
0,0.887500065692777,-0.20138889761309,0.368055571080613,0.668592035770416,-0.00580321997404099,0.18509216606617
0,0.887500065692777,-0.20138889761309,0.368055571080613,0.668592035770416,-0.00580321997404099,0.18509216606617
0,0.998611124609959,-0.0958333393711199,0.0805555590452358,-0.35430184006691,0.0931569486856461,-0.00733038317412138
0,0.913888914226889,-0.144444451959316,0.319444452414435,-0.195171445608139,0.0733038261532784,-0.00702495034784079
0,0.913888914226889,-0.144444451959316,0.319444452414435,-0.0858265683054924,0.0870482996106148,-0.0803287774324417
0,0.976388951725609,-0.169444445078067,0.350000000910239,0.00885754637420177,0.00519235478714108,-0.0940732508897781
0,0.958333357243305,-0.0972222251763917,0.329166671285285,0.0394008085131645,-0.129808858036995,0.0103847095742822
0,0.958333357243305,-0.0972222251763917,0.329166671285285,-0.00549778714776039,-0.193033412098885,0.0873537287116051
0,0.954166681593543,-0.111111119697004,0.318055560531181,-0.0244346093386412,-0.262366622686386,0.0931569486856461
5,0.969444492309338,-0.156944454596674,0.327777779402031,-0.155159771442413,0.0510072484612465,-0.18509216606617
5,0.969444492309338,-0.156944454596674,0.327777779402031,-0.270307868719101,0.347887754440308,-0.0858265683054924
5,0.890277849459286,-0.15555556271342,0.236111109602691,-0.152410879731178,0.0467311926186085,-0.0326812900602817
5,0.954166681593543,-0.175000000455119,0.272222225631511,-0.0152716310694814,0.105374254286289,0.0103847095742822
5,0.931944508709193,-0.1194444466846,0.320833344297689,0.114842668175697,-0.0742201283574104,0.110566608607769
5,0.912500022343635,-0.115277783190802,0.309722233543585,0.00885754637420177,-0.159435823559761,0.0852157026529312
5,0.969444492309338,-0.140277788465518,0.325000019947452,0.0607810914516449,-0.348193198442459,0.138360977172852
5,0.976388951725609,-0.13750000469901,0.283333336385615,0.0268780700862408,-0.11606439948082,-0.000916297896765172
5,1.04305556762637,-0.179166676104882,0.261111114877407,0.146302223205566,0.109039448201656,-0.0641408488154411
5,1.02916674604155,-0.17361112072783,0.272222225631511,0.139277279376984,0.158824965357781,-0.0913243517279625
5,0.993055557076942,-0.161111118090472,0.286111120152123,0.0146607663482428,0.119729585945606,-0.0907134860754013
5,0.94305554652751,-0.152777778946911,0.281944444502361,-0.0503963828086853,0.0607810914516449,-0.0665843114256859
5,0.944444438410764,-0.13750000469901,0.29166668768514,-0.0299323964864016,0.104763388633728,-0.0357356183230877
5,0.96666670854283,-0.12916666555545,0.319444452414435,0.0821613743901253,0.0259617734700441,0.0232128798961639
5,0.95000000594378,-0.136111112815755,0.315277801076602,0.0946841165423393,-0.0580321997404099,0.0726929605007172
5,0.975000059842355,-0.154166670830166,0.29166668768514,0.0681114718317986,-0.101709060370922,0.0497855171561241
5,0.980555627375371,-0.158333334323963,0.286111120152123,0.0149661982432008,-0.113315500319004,-0.00122173049021512
5,0.979166735492117,-0.151388899219622,0.283333336385615,-0.0192422550171614,-0.0595593601465225,-0.0448985956609249
5,0.983333411141879,-0.14722222356986,0.280555576931036,-0.078801617026329,-0.00733038317412138,-0.0626136884093285
5,0.973611167959101,-0.140277788465518,0.288888903918631,-0.03176499158144,0.0259617734700441,-0.0412334054708481
5,0.977777843608863,-0.13750000469901,0.313888909193348,0.0552833043038845,0.0482583530247212,0.0244346093386412
5,0.987499989543926,-0.133333341205212,0.320833344297689,0.127365410327911,0.0641408488154411,0.0678060427308083
5,0.969444492309338,-0.134722233088466,0.318055560531181,0.149356558918953,0.0241291765123606,0.0626136884093285
5,0.945833330294018,-0.140277788465518,0.288888903918631,0.0323758572340012,-0.0357356183230877,0.0284052342176437
5,0.944444438410764,-0.141666668192807,0.294444447139719,-0.0458148941397667,-0.0525344125926495,-0.017409659922123
5,0.956944465360051,-0.144444451959316,0.297222230906227,-0.113010071218014,-0.0357356183230877,-0.0323758572340012
5,0.980555627375371,-0.14722222356986,0.309722233543585,-0.117896988987923,-0.0100792767480016,-0.0171042270958424
5,0.990277773310434,-0.151388899219622,0.305555557893823,-0.102930791676045,0.0186313893646002,-0.0109955742955208
5,0.993055557076942,-0.144444451959316,0.298611122789481,-0.0397062413394451,0.0177150927484035,-0.01588249579072
5,0.986111194908388,-0.152777778946911,0.301388906555989,-0.0113010071218014,0.0183259565383196,-0.0326812900602817
5,0.973611167959101,-0.152777778946911,0.320833344297689,0.0705549344420433,0.0106901414692402,-0.0113010071218014
5,0.975000059842355,-0.141666668192807,0.298611122789481,0.0937678143382072,0.019547687843442,0.0189368221908808
5,0.970833384192592,-0.14722222356986,0.286111120152123,0.0558941699564457,0.0363464802503586,0.0149661982432008
5,0.969444492309338,-0.154166670830166,0.290277795801886,-0.0418442711234093,0.0271835029125214,-0.0161879286170006
5,0.96666670854283,-0.190277786858986,0.315277801076602,-0.029626963660121,0.00427605677396059,-0.00641408516094089
5,0.96666670854283,-0.190277786858986,0.315277801076602,0.0326812900602817,0.0271835029125214,0.0106901414692402
5,0.983333411141879,-0.151388899219622,0.311111125426839,0.0186313893646002,0.0354301854968071,-0.00763581553474069
5,0.968055600426084,-0.14722222356986,0.312500017310094,0.011606439948082,-0.0259617734700441,-0.0113010071218014
5,0.968055600426084,-0.14722222356986,0.312500017310094,0.0131336031481624,-0.0152716310694814,-0.00702495034784079
5,0.979166735492117,-0.144444451959316,0.301388906555989,0.0262672062963247,0.00885754637420177,0.00641408516094089
5,0.980555627375371,-0.14583334384257,0.311111125426839,0.0265726372599602,0.00244346098043024,0.00885754637420177
5,0.973611167959101,-0.151388899219622,0.306944449777077,0.0226020142436027,0.0045814891345799,0.000610865245107561
5,0.968055600426084,-0.144444451959316,0.305555557893823,0.0164933614432812,-0.000305432622553781,0.00702495034784079
5,0.96666670854283,-0.136111112815755,0.301388906555989,0.00580321997404099,-0.00244346098043024,-0.00183259579353034
5,0.96666670854283,-0.136111112815755,0.301388906555989,-0.00488692196086049,-0.00977384392172098,0.00733038317412138
5,0.972222276075846,-0.14583334384257,0.293055555256465,-0.0140499006956816,-0.00885754637420177,0.00488692196086049
5,0.976388951725609,-0.144444451959316,0.306944449777077,-0.0113010071218014,-0.0128281703218818,-0.000610865245107561
5,0.976388951725609,-0.144444451959316,0.306944449777077,0.00549778714776039,-0.0268780700862408,-0.0045814891345799
5,0.968055600426084,-0.148611115453114,0.300000014672736,-0.000610865245107561,-0.0164933614432812,0.0134390350431204
5,0.975000059842355,-0.148611115453114,0.301388906555989,0.00183259579353034,-0.0183259565383196,0.00305432616733015
5,0.973611167959101,-0.14722222356986,0.298611122789481,-0.00702495034784079,-0.0183259565383196,0.0021380283869803
5,0.973611167959101,-0.14722222356986,0.298611122789481,0.00183259579353034,-0.0103847095742822,0.00885754637420177
5,0.976388951725609,-0.15555556271342,0.301388906555989,0.0033597587607801,-0.013744467869401,0.015577063895762
5,0.976388951725609,-0.156944454596674,0.300000014672736,0.0204639863222837,-0.011606439948082,0.01191187184304
5,0.976388951725609,-0.156944454596674,0.300000014672736,0.0250454749912024,-0.00641408516094089,0.0149661982432008
5,0.975000059842355,-0.152777778946911,0.304166666010569,0.0226020142436027,-0.00824668072164059,0.0140499006956816
5,0.973611167959101,-0.156944454596674,0.298611122789481,0.0219911485910416,-0.0177150927484035,0.0103847095742822
5,0.972222276075846,-0.150000007336368,0.301388906555989,0.0232128798961639,-0.000916297896765172,0.0161879286170006
5,0.973611167959101,-0.15555556271342,0.305555557893823,0.0287106670439243,-0.00763581553474069,0.0113010071218014
5,0.973611167959101,-0.159722226207217,0.306944449777077,0.02382374368608,-0.000610865245107561,0.00733038317412138
5,0.973611167959101,-0.14722222356986,0.301388906555989,0.0189368221908808,0.00549778714776039,0.00366519158706069
5,0.973611167959101,-0.140277788465518,0.302777798439244,0.00152716308366507,0.0109955742955208,-0.0109955742955208
5,0.976388951725609,-0.144444451959316,0.298611122789481,0.00122173049021512,0.0140499006956816,-0.0192422550171614
5,0.976388951725609,-0.144444451959316,0.304166666010569,-0.00519235478714108,0.02382374368608,-0.0198531206697226
5,0.977777843608863,-0.144444451959316,0.309722233543585,-0.00824668072164059,0.0271835029125214,-0.0177150927484035
5,0.973611167959101,-0.140277788465518,0.305555557893823,-0.0103847095742822,0.0222965814173222,-0.0207694191485643
5,0.973611167959101,-0.130555557438704,0.301388906555989,-0.0143553335219622,0.0256563406437635,-0.0134390350431204
5,0.973611167959101,-0.12777778582816,0.298611122789481,-0.0280998013913631,0.027488935738802,-0.00885754637420177
5,0.975000059842355,-0.133333341205212,0.301388906555989,-0.0537561401724815,0.0171042270958424,-0.0189368221908808
5,0.975000059842355,-0.144444451959316,0.302777798439244,-0.0583376325666905,0.00885754637420177,-0.0113010071218014
5,0.979166735492117,-0.144444451959316,0.298611122789481,-0.0458148941397667,0.0192422550171614,-0.0103847095742822
5,0.977777843608863,-0.150000007336368,0.304166666010569,-0.0406225398182869,0.0201585534960032,-0.019547687843442
5,0.976388951725609,-0.150000007336368,0.311111125426839,-0.0326812900602817,0.00977384392172098,-0.021685715764761
5,0.963888924776322,-0.150000007336368,0.300000014672736,-0.0287106670439243,0.00580321997404099,-0.0177150927484035
5,0.96666670854283,-0.140277788465518,0.297222230906227,-0.0329867228865623,0.00519235478714108,-0.01588249579072
5,0.973611167959101,-0.141666668192807,0.305555557893823,-0.0305432621389627,0.0128281703218818,-0.0241291765123606
5,0.972222276075846,-0.140277788465518,0.297222230906227,-0.0531452745199203,0.00122173049021512,-0.021685715764761
5,0.968055600426084,-0.134722233088466,0.306944449777077,-0.0592539273202419,0.00916297826915979,-0.0167987942695618
5,0.96666670854283,-0.136111112815755,0.302777798439244,-0.0638354197144508,0.00733038317412138,-0.0122173046693206
5,0.979166735492117,-0.14583334384257,0.298611122789481,-0.0668897479772568,-0.00183259579353034,-0.0106901414692402
5,0.973611167959101,-0.156944454596674,0.304166666010569,-0.0693332031369209,-0.011606439948082,-0.00794124789535999
5,0.973611167959101,-0.156944454596674,0.300000014672736,-0.0546724386513233,-0.0103847095742822,-0.0027488935738802
5,0.969444492309338,-0.163888889701015,0.29166668768514,-0.0302378293126821,0.00183259579353034,-0.00580321997404099
5,0.979166735492117,-0.161111118090472,0.298611122789481,-0.011606439948082,0.013744467869401,-0.0201585534960032
5,0.983333411141879,-0.156944454596674,0.308333341660331,-0.00824668072164059,0.00916297826915979,-0.0339030213654041
5,0.986111194908388,-0.14722222356986,0.304166666010569,-0.0222965814173222,-0.0113010071218014,-0.0308486949652433
5,0.975000059842355,-0.141666668192807,0.297222230906227,-0.0201585534960032,-0.00763581553474069,-0.011606439948082
5,0.975000059842355,-0.141666668192807,0.297222230906227,-0.0222965814173222,-0.0125227374956012,0.00183259579353034
5,0.973611167959101,-0.143055560076062,0.301388906555989,-0.0277943685650826,0.0033597587607801,0.00763581553474069
5,0.969444492309338,-0.151388899219622,0.294444447139719,-0.0207694191485643,0.01191187184304,0.00733038317412138
5,0.973611167959101,-0.150000007336368,0.301388906555989,-0.0189368221908808,0.0277943685650826,0.0109955742955208
5,0.972222276075846,-0.159722226207217,0.294444447139719,-0.0146607663482428,0.0235183127224445,-0.000610865245107561
5,0.972222276075846,-0.17361112072783,0.302777798439244,0.00183259579353034,0.0229074470698834,-0.00549778714776039
5,0.983333411141879,-0.169444445078067,0.298611122789481,0.0287106670439243,-0.000610865245107561,-0.00610865233466029
5,0.993055557076942,-0.163888889701015,0.298611122789481,0.0161879286170006,0.0363464802503586,-0.00580321997404099
5,0.973611167959101,-0.161111118090472,0.306944449777077,0.0516181141138077,0.021685715764761,0.0122173046693206
5,0.96666670854283,-0.161111118090472,0.300000014672736,0.0342084541916847,0.0351247526705265,-0.00152716308366507
5,0.968055600426084,-0.14722222356986,0.305555557893823,0.03176499158144,-0.00885754637420177,0.013744467869401
5,0.970833384192592,-0.136111112815755,0.305555557893823,0.0308486949652433,-0.000610865245107561,0.0213802829384804
5,0.970833384192592,-0.136111112815755,0.309722233543585,0.0253509078174829,0.0152716310694814,0.0106901414692402
5,0.963888924776322,-0.14722222356986,0.300000014672736,0.0259617734700441,-0.00946841109544039,0.00733038317412138
5,0.952777789710289,-0.14722222356986,0.300000014672736,0.017409659922123,-0.0021380283869803,-0.00824668072164059
5,0.975000059842355,-0.126388893944906,0.306944449777077,0.0045814891345799,-0.00855211354792118,0.00824668072164059
5,0.976388951725609,-0.13750000469901,0.298611122789481,-0.00183259579353034,-0.00366519158706069,0.0143553335219622
5,0.975000059842355,-0.134722233088466,0.301388906555989,0.00183259579353034,-0.0021380283869803,0.0131336031481624
5,0.970833384192592,-0.141666668192807,0.312500017310094,-0.0167987942695618,0.0027488935738802,0.00855211354792118
5,0.972222276075846,-0.13750000469901,0.319444452414435,-0.00488692196086049,-0.00366519158706069,0.0128281703218818
5,0.973611167959101,-0.140277788465518,0.301388906555989,-0.0229074470698834,-0.00763581553474069,0.000916297896765172
5,0.975000059842355,-0.144444451959316,0.305555557893823,-0.0308486949652433,0.0033597587607801,-0.0045814891345799
5,0.973611167959101,-0.144444451959316,0.301388906555989,-0.0284052342176437,-0.00916297826915979,0.00641408516094089
5,0.973611167959101,-0.14583334384257,0.294444447139719,-0.03176499158144,-0.011606439948082,-0.00580321997404099
5,0.96666670854283,-0.150000007336368,0.297222230906227,-0.0357356183230877,-0.0122173046693206,0.00427605677396059
5,0.975000059842355,-0.156944454596674,0.306944449777077,-0.029626963660121,-0.0152716310694814,0.00824668072164059
5,0.976388951725609,-0.156944454596674,0.294444447139719,-0.0103847095742822,-0.00733038317412138,0.0183259565383196
5,0.976388951725609,-0.166666673467524,0.298611122789481,-0.00549778714776039,-0.00305432616733015,0.013744467869401
5,0.976388951725609,-0.166666673467524,0.298611122789481,-0.0045814891345799,-0.0103847095742822,0.00427605677396059
5,0.970833384192592,-0.161111118090472,0.295833339022973,0.00916297826915979,0.011606439948082,0.00702495034784079
5,0.973611167959101,-0.161111118090472,0.309722233543585,0.00610865233466029,0.00183259579353034,0.0045814891345799
5,0.969444492309338,-0.156944454596674,0.306944449777077,0.0143553335219622,-0.00152716308366507,0.00397062394768
5,0.973611167959101,-0.158333334323963,0.302777798439244,0.0250454749912024,-0.01588249579072,0.000610865245107561
5,0.976388951725609,-0.163888889701015,0.29166668768514,0.0204639863222837,-0.013744467869401,0.0134390350431204
5,0.979166735492117,-0.161111118090472,0.294444447139719,0.0210748501121998,-0.00366519158706069,0.00305432616733015
5,0.977777843608863,-0.163888889701015,0.301388906555989,0.0271835029125214,0.00397062394768,0.00763581553474069
5,0.979166735492117,-0.163888889701015,0.308333341660331,0.0332921557128429,0.00885754637420177,0.00763581553474069
5,0.976388951725609,-0.158333334323963,0.301388906555989,0.0326812900602817,-0.00366519158706069,0.0131336031481624
5,0.976388951725609,-0.159722226207217,0.294444447139719,0.0360410511493683,-0.0033597587607801,0.0140499006956816
5,0.976388951725609,-0.159722226207217,0.294444447139719,0.0302378293126821,-0.0103847095742822,0.0109955742955208
5,0.969444492309338,-0.151388899219622,0.305555557893823,0.0369573459029198,-0.00824668072164059,0.0143553335219622
5,0.970833384192592,-0.148611115453114,0.300000014672736,0.0280998013913631,-0.0134390350431204,0.0210748501121998
5,0.970833384192592,-0.148611115453114,0.300000014672736,0.0232128798961639,-0.013744467869401,0.013744467869401
5,0.979166735492117,-0.143055560076062,0.308333341660331,0.00855211354792118,-0.0113010071218014,0.0164933614432812
5,0.973611167959101,-0.141666668192807,0.295833339022973,-0.00305432616733015,-0.0100792767480016,0.00427605677396059
5,0.973611167959101,-0.141666668192807,0.295833339022973,-0.0265726372599602,0.00397062394768,-0.0021380283869803
5,0.969444492309338,-0.12777778582816,0.298611122789481,-0.0503963828086853,-0.00702495034784079,-0.0152716310694814
5,0.977777843608863,-0.13750000469901,0.300000014672736,-0.0500909499824047,-0.00946841109544039,-0.0146607663482428
5,0.977777843608863,-0.13750000469901,0.300000014672736,-0.0616973899304867,0.00183259579353034,-0.0186313893646002
5,0.976388951725609,-0.144444451959316,0.300000014672736,-0.0717766657471657,-0.0045814891345799,-0.0326812900602817
5,0.980555627375371,-0.156944454596674,0.300000014672736,-0.0711658000946045,-0.0045814891345799,-0.0302378293126821
5,0.976388951725609,-0.151388899219622,0.287500012035377,-0.0571159012615681,-0.0021380283869803,-0.0265726372599602
5,0.976388951725609,-0.156944454596674,0.295833339022973,-0.0406225398182869,-0.000916297896765172,-0.0146607663482428
5,0.980555627375371,-0.161111118090472,0.295833339022973,-0.0259617734700441,0.0232128798961639,-0.01588249579072
5,0.984722303025134,-0.16527778158427,0.288888903918631,-0.0103847095742822,0.0226020142436027,-0.01588249579072
5,0.980555627375371,-0.159722226207217,0.288888903918631,0.00580321997404099,0.0171042270958424,-0.0164933614432812
5,0.975000059842355,-0.15555556271342,0.295833339022973,0.00946841109544039,0.0131336031481624,-0.00702495034784079
5,0.970833384192592,-0.156944454596674,0.305555557893823,0.015577063895762,0.00977384392172098,-0.00641408516094089
5,0.973611167959101,-0.154166670830166,0.300000014672736,0.0204639863222837,0.00397062394768,0.00763581553474069
5,0.972222276075846,-0.163888889701015,0.288888903918631,0.0271835029125214,-0.00122173049021512,-0.00122173049021512
5,0.973611167959101,-0.161111118090472,0.293055555256465,0.0280998013913631,0.0027488935738802,0.00610865233466029
5,0.975000059842355,-0.156944454596674,0.304166666010569,0.0293215326964855,-0.00671951752156019,0.00610865233466029
5,0.973611167959101,-0.156944454596674,0.297222230906227,0.0293215326964855,-0.00794124789535999,-0.0152716310694814
5,0.973611167959101,-0.15555556271342,0.294444447139719,0.0262672062963247,-0.00855211354792118,-0.0100792767480016
5,0.973611167959101,-0.156944454596674,0.281944444502361,0.0277943685650826,0.00671951752156019,-0.015577063895762
5,0.976388951725609,-0.161111118090472,0.288888903918631,0.0293215326964855,0.0161879286170006,-0.00916297826915979
5,0.980555627375371,-0.156944454596674,0.300000014672736,0.0253509078174829,0.011606439948082,-0.0149661982432008
5,0.979166735492117,-0.15555556271342,0.295833339022973,0.0250454749912024,0.00580321997404099,-0.0128281703218818
5,0.975000059842355,-0.150000007336368,0.295833339022973,0.0164933614432812,0.0113010071218014,-0.017409659922123
5,0.968055600426084,-0.141666668192807,0.297222230906227,0.00305432616733015,0.00763581553474069,-0.00977384392172098
5,0.969444492309338,-0.143055560076062,0.290277795801886,-0.00610865233466029,-0.0033597587607801,0.00366519158706069
5,0.969444492309338,-0.141666668192807,0.302777798439244,-0.00549778714776039,-0.0213802829384804,-0.0106901414692402
5,0.976388951725609,-0.150000007336368,0.302777798439244,-0.00855211354792118,-0.0253509078174829,-0.00794124789535999
5,0.981944519258625,-0.154166670830166,0.295833339022973,0.00824668072164059,-0.0232128798961639,-0.0033597587607801
5,0.979166735492117,-0.161111118090472,0.288888903918631,0.019547687843442,-0.01588249579072,-0.00183259579353034
5,0.976388951725609,-0.156944454596674,0.286111120152123,0.0232128798961639,-0.0131336031481624,0.00152716308366507
5,0.977777843608863,-0.161111118090472,0.284722228268869,0.0314595587551594,-0.0146607663482428,0.0100792767480016
5,0.970833384192592,-0.156944454596674,0.294444447139719,0.0277943685650826,-0.0204639863222837,0.000305432622553781
5,0.968055600426084,-0.158333334323963,0.298611122789481,0.0433714315295219,-0.0308486949652433,-0.00244346098043024
5,0.973611167959101,-0.156944454596674,0.29166668768514,0.0473420582711697,-0.0235183127224445,-0.00397062394768
5,0.975000059842355,-0.154166670830166,0.290277795801886,0.0424551330506802,-0.0131336031481624,0.00244346098043024
5,0.980555627375371,-0.14722222356986,0.290277795801886,0.0381790772080422,-0.000305432622553781,0.00366519158706069
5,0.976388951725609,-0.141666668192807,0.295833339022973,0.0314595587551594,-0.00244346098043024,0.0021380283869803
5,0.972222276075846,-0.138888896582264,0.29166668768514,0.0229074470698834,-0.0122173046693206,0.00610865233466029
5,0.970833384192592,-0.134722233088466,0.281944444502361,0.017409659922123,-0.0106901414692402,0.0161879286170006
5,0.970833384192592,-0.140277788465518,0.290277795801886,0.0128281703218818,-0.00427605677396059,0.0113010071218014
5,0.976388951725609,-0.150000007336368,0.301388906555989,0.00794124789535999,-0.015577063895762,0.011606439948082
5,0.976388951725609,-0.150000007336368,0.301388906555989,-0.000305432622553781,-0.0183259565383196,0.00488692196086049
5,0.980555627375371,-0.151388899219622,0.298611122789481,0.000916297896765172,-0.0027488935738802,0.0021380283869803
5,0.973611167959101,-0.14722222356986,0.294444447139719,0.00427605677396059,0.0033597587607801,-0.00397062394768
5,0.973611167959101,-0.14722222356986,0.294444447139719,-0.000305432622553781,0.00152716308366507,-0.00427605677396059
5,0.973611167959101,-0.150000007336368,0.29166668768514,-0.00580321997404099,0.00488692196086049,0.00244346098043024
5,0.976388951725609,-0.156944454596674,0.312500017310094,0.00305432616733015,-0.01191187184304,-0.0033597587607801
5,0.973611167959101,-0.154166670830166,0.302777798439244,0.0131336031481624,-0.00610865233466029,0.00152716308366507
5,0.975000059842355,-0.154166670830166,0.301388906555989,0.0213802829384804,0.000610865245107561,0.00305432616733015
5,0.976388951725609,-0.150000007336368,0.301388906555989,0.0113010071218014,0.00763581553474069,-0.0033597587607801
5,0.973611167959101,-0.148611115453114,0.294444447139719,0.00397062394768,0.013744467869401,-0.0106901414692402
5,0.973611167959101,-0.14583334384257,0.29166668768514,-0.000916297896765172,0.00397062394768,-0.00702495034784079
5,0.975000059842355,-0.14722222356986,0.288888903918631,0.00122173049021512,0.0244346093386412,-0.00183259579353034
5,0.980555627375371,-0.152777778946911,0.293055555256465,0.00488692196086049,0.0400116741657257,-0.0152716310694814
5,0.979166735492117,-0.154166670830166,0.29166668768514,0.0021380283869803,0.0390953756868839,-0.0106901414692402
5,0.976388951725609,-0.15555556271342,0.301388906555989,-0.00580321997404099,0.0479529201984406,-0.0164933614432812
5,0.973611167959101,-0.154166670830166,0.294444447139719,-0.0143553335219622,0.0232128798961639,-0.0186313893646002
5,0.970833384192592,-0.133333341205212,0.294444447139719,-0.019547687843442,0.0109955742955208,-0.017409659922123
5,0.970833384192592,-0.140277788465518,0.293055555256465,-0.0201585534960032,0.00122173049021512,0.00397062394768
5,0.979166735492117,-0.154166670830166,0.288888903918631,-0.0171042270958424,-0.00580321997404099,0.000916297896765172
5,0.976388951725609,-0.156944454596674,0.281944444502361,-0.00641408516094089,-0.00855211354792118,0.00488692196086049
5,0.977777843608863,-0.159722226207217,0.295833339022973,0.00366519158706069,-0.00610865233466029,0.00397062394768
5,0.979166735492117,-0.154166670830166,0.295833339022973,0.017409659922123,-0.00427605677396059,-0.00122173049021512
5,0.976388951725609,-0.154166670830166,0.293055555256465,0.00702495034784079,-0.0134390350431204,0.00183259579353034
5,0.969444492309338,-0.14722222356986,0.286111120152123,0.0134390350431204,-0.0167987942695618,0.0045814891345799
5,0.969444492309338,-0.143055560076062,0.281944444502361,0.0180205255746841,-0.0198531206697226,0.0164933614432812
5,0.969444492309338,-0.148611115453114,0.29166668768514,0.0293215326964855,-0.0229074470698834,0.021685715764761
5,0.973611167959101,-0.15555556271342,0.301388906555989,0.0271835029125214,-0.0241291765123606,0.00610865233466029
5,0.979166735492117,-0.154166670830166,0.298611122789481,0.0302378293126821,-0.0113010071218014,0.00977384392172098
5,0.979166735492117,-0.156944454596674,0.294444447139719,0.03176499158144,-0.0106901414692402,0.00549778714776039
5,0.975000059842355,-0.150000007336368,0.295833339022973,0.0232128798961639,0.00916297826915979,0.00610865233466029
5,0.981944519258625,-0.14722222356986,0.301388906555989,0.0299323964864016,-0.0021380283869803,0.0027488935738802
5,0.977777843608863,-0.14722222356986,0.297222230906227,0.0265726372599602,0.00549778714776039,0.00488692196086049
5,0.977777843608863,-0.144444451959316,0.297222230906227,0.0280998013913631,0.0134390350431204,-0.00366519158706069
5,0.979166735492117,-0.141666668192807,0.297222230906227,0.0222965814173222,0.0149661982432008,-0.00733038317412138
5,0.973611167959101,-0.140277788465518,0.301388906555989,-0.00152716308366507,0.0103847095742822,-0.00519235478714108
5,0.969444492309338,-0.144444451959316,0.309722233543585,-0.0189368221908808,0.011606439948082,-0.00610865233466029
5,0.973611167959101,-0.148611115453114,0.301388906555989,-0.0149661982432008,0.0106901414692402,-0.00244346098043024
5,0.980555627375371,-0.15555556271342,0.302777798439244,-0.00580321997404099,0.0219911485910416,0.000305432622553781
5,0.976388951725609,-0.154166670830166,0.300000014672736,0.00733038317412138,0.0323758572340012,-0.0122173046693206
5,0.979166735492117,-0.158333334323963,0.297222230906227,0.00549778714776039,0.0247400421649218,-0.00916297826915979
5,0.984722303025134,-0.14722222356986,0.295833339022973,-0.00488692196086049,0.0290160998702049,-0.0198531206697226
5,0.979166735492117,-0.13750000469901,0.302777798439244,0.000305432622553781,0.0448985956609249,-0.0235183127224445
5,0.975000059842355,-0.134722233088466,0.293055555256465,-0.027488935738802,0.0381790772080422,-0.0277943685650826
5,0.96666670854283,-0.138888896582264,0.287500012035377,-0.0348193198442459,0.0326812900602817,-0.0226020142436027
5,0.969444492309338,-0.140277788465518,0.294444447139719,-0.0412334054708481,0.0229074470698834,-0.0256563406437635
5,0.970833384192592,-0.144444451959316,0.301388906555989,-0.037568211555481,0.0140499006956816,-0.0192422550171614
5,0.972222276075846,-0.151388899219622,0.295833339022973,-0.0372627787292004,0.00885754637420177,-0.0146607663482428
5,0.973611167959101,-0.151388899219622,0.305555557893823,-0.0421497002243996,0.00183259579353034,-0.000916297896765172
5,0.972222276075846,-0.154166670830166,0.301388906555989,-0.0360410511493683,0.000916297896765172,0.00977384392172098
5,0.969444492309338,-0.156944454596674,0.305555557893823,-0.0149661982432008,-0.0122173046693206,0.00519235478714108
5,0.96666670854283,-0.156944454596674,0.302777798439244,-0.0213802829384804,-0.0149661982432008,-0.000305432622553781
5,0.965277816659576,-0.154166670830166,0.293055555256465,-0.00885754637420177,-0.0134390350431204,0.0106901414692402
5,0.970833384192592,-0.151388899219622,0.298611122789481,-0.00763581553474069,-0.01588249579072,0.00641408516094089
5,0.972222276075846,-0.154166670830166,0.301388906555989,-0.00549778714776039,-0.0167987942695618,0.00763581553474069
5,0.973611167959101,-0.148611115453114,0.295833339022973,-0.00794124789535999,-0.0128281703218818,-0.0033597587607801
5,0.970833384192592,-0.14722222356986,0.297222230906227,-0.00885754637420177,-0.015577063895762,-0.000610865245107561
5,0.972222276075846,-0.151388899219622,0.298611122789481,-0.011606439948082,-0.00977384392172098,0.00519235478714108
5,0.975000059842355,-0.15555556271342,0.290277795801886,-0.00855211354792118,-0.00824668072164059,0.0045814891345799
5,0.979166735492117,-0.161111118090472,0.301388906555989,0.0045814891345799,0.00977384392172098,0.00183259579353034
5,0.972222276075846,-0.161111118090472,0.29166668768514,0.017409659922123,0.0204639863222837,-0.00244346098043024
5,0.973611167959101,-0.156944454596674,0.288888903918631,0.017409659922123,0.0128281703218818,-0.0131336031481624
5,0.973611167959101,-0.151388899219622,0.298611122789481,0.0131336031481624,0.0134390350431204,-0.0287106670439243
5,0.977777843608863,-0.150000007336368,0.297222230906227,0.0192422550171614,0.00763581553474069,-0.0183259565383196
5,0.977777843608863,-0.150000007336368,0.302777798439244,0.015577063895762,0.00671951752156019,-0.0250454749912024
5,0.976388951725609,-0.148611115453114,0.295833339022973,0.00794124789535999,0.00549778714776039,-0.0213802829384804
5,0.973611167959101,-0.150000007336368,0.302777798439244,0.00794124789535999,0.0021380283869803,-0.0180205255746841
5,0.973611167959101,-0.150000007336368,0.311111125426839,0.0143553335219622,-0.00366519158706069,-0.0146607663482428
5,0.970833384192592,-0.148611115453114,0.301388906555989,0.0210748501121998,-0.00702495034784079,-0.0125227374956012
5,0.969444492309338,-0.150000007336368,0.295833339022973,0.0204639863222837,-0.011606439948082,-0.011606439948082
5,0.975000059842355,-0.152777778946911,0.295833339022973,0.0213802829384804,-0.00183259579353034,-0.00916297826915979
5,0.976388951725609,-0.152777778946911,0.297222230906227,0.0262672062963247,0.000610865245107561,-0.000610865245107561
5,0.979166735492117,-0.158333334323963,0.295833339022973,0.029626963660121,0.0100792767480016,-0.00152716308366507
5,0.981944519258625,-0.156944454596674,0.298611122789481,0.0241291765123606,0.0177150927484035,-0.00305432616733015
5,0.970833384192592,-0.150000007336368,0.300000014672736,0.0265726372599602,0.02382374368608,-0.0113010071218014
5,0.969444492309338,-0.138888896582264,0.300000014672736,0.027488935738802,0.0140499006956816,-0.0109955742955208
5,0.968055600426084,-0.134722233088466,0.298611122789481,0.019547687843442,0.00244346098043024,-0.00397062394768
5,0.973611167959101,-0.143055560076062,0.295833339022973,0.0259617734700441,0.00519235478714108,0.00519235478714108
5,0.973611167959101,-0.143055560076062,0.302777798439244,0.029626963660121,-0.00916297826915979,0.017409659922123
5,0.969444492309338,-0.144444451959316,0.302777798439244,0.0320704244077206,0.00183259579353034,0.0113010071218014
5,0.968055600426084,-0.14722222356986,0.311111125426839,0.00946841109544039,0.00305432616733015,0.0113010071218014
5,0.969444492309338,-0.14722222356986,0.308333341660331,0.0113010071218014,0.00305432616733015,0.0109955742955208
5,0.975000059842355,-0.140277788465518,0.295833339022973,-0.00244346098043024,0.000610865245107561,0.0106901414692402
5,0.975000059842355,-0.140277788465518,0.295833339022973,-0.00671951752156019,0.0235183127224445,-0.00366519158706069
5,0.979166735492117,-0.14722222356986,0.295833339022973,-0.0128281703218818,0.0161879286170006,-0.00519235478714108
5,0.973611167959101,-0.154166670830166,0.295833339022973,-0.0171042270958424,0.0253509078174829,-0.0259617734700441
5,0.973611167959101,-0.154166670830166,0.295833339022973,-0.00824668072164059,0.0189368221908808,-0.0171042270958424
5,0.976388951725609,-0.150000007336368,0.300000014672736,0.00397062394768,0.00916297826915979,-0.0109955742955208
5,0.976388951725609,-0.144444451959316,0.305555557893823,-0.00305432616733015,0.015577063895762,0.00610865233466029
5,0.976388951725609,-0.144444451959316,0.305555557893823,-0.00794124789535999,0.0131336031481624,0.011606439948082
5,0.973611167959101,-0.141666668192807,0.301388906555989,-0.0131336031481624,0.00183259579353034,0.0167987942695618
5,0.973611167959101,-0.14722222356986,0.301388906555989,-0.00671951752156019,-0.0122173046693206,0.0271835029125214
5,0.973611167959101,-0.14722222356986,0.301388906555989,-0.0021380283869803,-0.0262672062963247,0.0204639863222837
5,0.973611167959101,-0.154166670830166,0.288888903918631,0.00702495034784079,-0.0250454749912024,0.0152716310694814
5,0.979166735492117,-0.150000007336368,0.29166668768514,0.0219911485910416,-0.00488692196086049,0.00855211354792118
5,0.979166735492117,-0.150000007336368,0.29166668768514,0.021685715764761,0.0106901414692402,0.0106901414692402
5,0.975000059842355,-0.150000007336368,0.298611122789481,0.017409659922123,0.00427605677396059,0.000916297896765172
5,0.976388951725609,-0.14722222356986,0.297222230906227,0.01191187184304,0.00152716308366507,0.00671951752156019
5,0.973611167959101,-0.148611115453114,0.300000014672736,0.0189368221908808,0.00794124789535999,0.0045814891345799
5,0.972222276075846,-0.148611115453114,0.295833339022973,0.0106901414692402,0.00397062394768,-0.0021380283869803
5,0.973611167959101,-0.150000007336368,0.295833339022973,0.0131336031481624,-0.000610865245107561,0.000916297896765172
5,0.975000059842355,-0.14722222356986,0.295833339022973,0.00885754637420177,-0.000916297896765172,-0.00671951752156019
5,0.968055600426084,-0.150000007336368,0.295833339022973,0.00733038317412138,0.00427605677396059,0.0021380283869803
5,0.969444492309338,-0.150000007336368,0.305555557893823,-0.00397062394768,0.00305432616733015,-0.00427605677396059
5,0.969444492309338,-0.14722222356986,0.313888909193348,-0.00733038317412138,0.00122173049021512,-0.0106901414692402
5,0.970833384192592,-0.150000007336368,0.308333341660331,-0.0106901414692402,0.00763581553474069,-0.00488692196086049
5,0.972222276075846,-0.14722222356986,0.308333341660331,-0.0122173046693206,-0.000610865245107561,0.00183259579353034
5,0.979166735492117,-0.144444451959316,0.300000014672736,-0.017409659922123,-0.00488692196086049,-0.00580321997404099
5,0.976388951725609,-0.14722222356986,0.288888903918631,-0.0125227374956012,0.00427605677396059,-0.00152716308366507
5,0.975000059842355,-0.15555556271342,0.298611122789481,-0.00824668072164059,-0.0033597587607801,0.00397062394768
5,0.979166735492117,-0.159722226207217,0.294444447139719,-0.00641408516094089,-0.000305432622553781,-0.00122173049021512
5,0.973611167959101,-0.154166670830166,0.294444447139719,0.00733038317412138,0.00244346098043024,0.00183259579353034
5,0.973611167959101,-0.156944454596674,0.301388906555989,0.00885754637420177,0.00488692196086049,0.00916297826915979
5,0.968055600426084,-0.150000007336368,0.301388906555989,0.00580321997404099,-0.00366519158706069,0.00855211354792118
5,0.977777843608863,-0.154166670830166,0.305555557893823,0.00824668072164059,-0.0109955742955208,0.00244346098043024
5,0.976388951725609,-0.15555556271342,0.295833339022973,0.0146607663482428,-0.0113010071218014,0.0100792767480016
5,0.976388951725609,-0.156944454596674,0.29166668768514,0.0180205255746841,-0.011606439948082,0.00397062394768
5,0.979166735492117,-0.154166670830166,0.29166668768514,0.0192422550171614,-0.0103847095742822,-0.000610865245107561
5,0.96666670854283,-0.154166670830166,0.293055555256465,0.0229074470698834,-0.0198531206697226,0.0045814891345799
5,0.973611167959101,-0.152777778946911,0.295833339022973,0.0189368221908808,-0.0122173046693206,-0.00122173049021512
5,0.976388951725609,-0.154166670830166,0.301388906555989,0.0183259565383196,-0.0198531206697226,-0.000305432622553781
5,0.976388951725609,-0.151388899219622,0.298611122789481,0.0164933614432812,-0.0021380283869803,0.00519235478714108
5,0.975000059842355,-0.154166670830166,0.295833339022973,0.01191187184304,0.00763581553474069,0.00580321997404099
5,0.972222276075846,-0.148611115453114,0.300000014672736,0.00855211354792118,0.00580321997404099,-0.00152716308366507
5,0.973611167959101,-0.140277788465518,0.298611122789481,0.00152716308366507,-0.00488692196086049,-0.00671951752156019
5,0.973611167959101,-0.14722222356986,0.298611122789481,-0.0128281703218818,-0.00519235478714108,-0.00580321997404099
5,0.973611167959101,-0.154166670830166,0.29166668768514,-0.00733038317412138,0.00152716308366507,-0.0122173046693206
5,0.976388951725609,-0.152777778946911,0.293055555256465,0.00122173049021512,0.00152716308366507,-0.00855211354792118
5,0.976388951725609,-0.156944454596674,0.301388906555989,0.00580321997404099,-0.0027488935738802,-0.00885754637420177
5,0.976388951725609,-0.156944454596674,0.290277795801886,0.0106901414692402,0.0113010071218014,-0.00977384392172098
5,0.977777843608863,-0.156944454596674,0.29166668768514,0.011606439948082,0.00641408516094089,-0.00366519158706069
5,0.977777843608863,-0.148611115453114,0.305555557893823,0.00946841109544039,0.0164933614432812,-0.015577063895762
5,0.973611167959101,-0.148611115453114,0.295833339022973,0.0131336031481624,0.0128281703218818,-0.00519235478714108
5,0.973611167959101,-0.154166670830166,0.29166668768514,0.02382374368608,0.0177150927484035,0.00427605677396059
5,0.973611167959101,-0.152777778946911,0.295833339022973,0.0244346093386412,0.0210748501121998,-0.00702495034784079
5,0.972222276075846,-0.150000007336368,0.302777798439244,0.0335975885391235,0.0183259565383196,-0.0109955742955208
5,0.969444492309338,-0.152777778946911,0.308333341660331,0.0265726372599602,0.0143553335219622,-0.0143553335219622
5,0.969444492309338,-0.13750000469901,0.301388906555989,0.0192422550171614,0.00183259579353034,-0.00488692196086049
5,0.972222276075846,-0.140277788465518,0.298611122789481,0.0143553335219622,0.00427605677396059,-0.00519235478714108
5,0.975000059842355,-0.141666668192807,0.294444447139719,0.00733038317412138,0.00152716308366507,-0.0033597587607801
5,0.975000059842355,-0.144444451959316,0.300000014672736,0.00397062394768,0.000305432622553781,0.00916297826915979
5,0.976388951725609,-0.150000007336368,0.293055555256465,0.01191187184304,0.0134390350431204,0.00244346098043024
5,0.976388951725609,-0.14583334384257,0.301388906555989,0.013744467869401,0.00641408516094089,0.0027488935738802
5,0.979166735492117,-0.141666668192807,0.305555557893823,0.0027488935738802,0.0113010071218014,-0.0027488935738802
5,0.970833384192592,-0.138888896582264,0.313888909193348,-0.00122173049021512,0.00916297826915979,-0.015577063895762
5,0.973611167959101,-0.143055560076062,0.305555557893823,-0.00702495034784079,0.00916297826915979,-0.0152716310694814
5,0.976388951725609,-0.151388899219622,0.308333341660331,-0.0100792767480016,0.00519235478714108,-0.0134390350431204
5,0.972222276075846,-0.148611115453114,0.308333341660331,0.00183259579353034,0.00427605677396059,0.00183259579353034
5,0.973611167959101,-0.148611115453114,0.306944449777077,0.0125227374956012,0.000916297896765172,0.00702495034784079
5,0.979166735492117,-0.144444451959316,0.308333341660331,0.0134390350431204,0.00885754637420177,0.00488692196086049
5,0.979166735492117,-0.144444451959316,0.308333341660331,0.0152716310694814,0.0167987942695618,-0.00733038317412138
5,0.972222276075846,-0.143055560076062,0.304166666010569,0.011606439948082,0.0143553335219622,-0.0131336031481624
5,0.96666670854283,-0.14722222356986,0.312500017310094,0.00824668072164059,0.00183259579353034,-0.0045814891345799
5,0.96666670854283,-0.14722222356986,0.312500017310094,0.00946841109544039,-0.00488692196086049,-0.00397062394768
5,0.973611167959101,-0.14722222356986,0.297222230906227,0.0186313893646002,-0.0100792767480016,0.0033597587607801
5,0.975000059842355,-0.152777778946911,0.298611122789481,0.0177150927484035,0.00702495034784079,-0.000305432622553781
5,0.975000059842355,-0.152777778946911,0.298611122789481,0.0103847095742822,0.00366519158706069,-0.00366519158706069
5,0.970833384192592,-0.150000007336368,0.300000014672736,0.00733038317412138,0.0125227374956012,-0.0100792767480016
5,0.973611167959101,-0.14722222356986,0.305555557893823,0.00305432616733015,0.00183259579353034,-0.0109955742955208
5,0.973611167959101,-0.14722222356986,0.305555557893823,-0.00305432616733015,0.0045814891345799,-0.0021380283869803
5,0.976388951725609,-0.14722222356986,0.301388906555989,0.00305432616733015,0.0189368221908808,0.00122173049021512
5,0.970833384192592,-0.141666668192807,0.298611122789481,0.0033597587607801,0.0113010071218014,-0.00641408516094089
5,0.970833384192592,-0.141666668192807,0.298611122789481,-0.000305432622553781,0.00824668072164059,0.00305432616733015
5,0.973611167959101,-0.150000007336368,0.305555557893823,-0.00610865233466029,0.00671951752156019,-0.0113010071218014
5,0.970833384192592,-0.148611115453114,0.301388906555989,0.0033597587607801,-0.00122173049021512,0.00183259579353034
5,0.970833384192592,-0.150000007336368,0.301388906555989,0.000610865245107561,-0.00305432616733015,0.000305432622553781
5,0.969444492309338,-0.150000007336368,0.301388906555989,-0.00244346098043024,0.000305432622553781,-0.0045814891345799
5,0.96666670854283,-0.154166670830166,0.294444447139719,0.00519235478714108,-0.00427605677396059,-0.00946841109544039
5,0.973611167959101,-0.154166670830166,0.286111120152123,-0.000305432622553781,0.00763581553474069,-0.00244346098043024
5,0.973611167959101,-0.151388899219622,0.301388906555989,0.00946841109544039,0.00885754637420177,-0.00763581553474069
5,0.975000059842355,-0.151388899219622,0.301388906555989,0.00488692196086049,0.00855211354792118,0.000916297896765172
5,0.973611167959101,-0.14583334384257,0.308333341660331,0.00488692196086049,-0.00580321997404099,0.00671951752156019
5,0.969444492309338,-0.152777778946911,0.300000014672736,0.015577063895762,-0.00183259579353034,0.0027488935738802
5,0.969444492309338,-0.151388899219622,0.309722233543585,0.0207694191485643,0.0033597587607801,0.0033597587607801
5,0.972222276075846,-0.150000007336368,0.309722233543585,0.0125227374956012,-0.00549778714776039,0.000916297896765172
5,0.976388951725609,-0.150000007336368,0.306944449777077,0.0192422550171614,-0.00397062394768,0.0192422550171614
5,0.976388951725609,-0.150000007336368,0.308333341660331,0.0201585534960032,-0.00885754637420177,-0.00122173049021512
5,0.976388951725609,-0.14583334384257,0.306944449777077,0.013744467869401,-0.0021380283869803,0.00855211354792118
5,0.975000059842355,-0.150000007336368,0.308333341660331,0.00549778714776039,0.00488692196086049,0.00244346098043024
5,0.975000059842355,-0.144444451959316,0.308333341660331,0.000305432622553781,-0.0045814891345799,0.00855211354792118
5,0.979166735492117,-0.14722222356986,0.313888909193348,-0.00183259579353034,-0.000305432622553781,0.00122173049021512
5,0.979166735492117,-0.148611115453114,0.302777798439244,-0.000305432622553781,0.0103847095742822,-0.0021380283869803
5,0.977777843608863,-0.144444451959316,0.301388906555989,-0.0027488935738802,0.00702495034784079,-0.00702495034784079
5,0.977777843608863,-0.14722222356986,0.308333341660331,0.00183259579353034,0.00244346098043024,-0.00733038317412138
5,0.973611167959101,-0.14722222356986,0.298611122789481,-0.0033597587607801,0.01191187184304,-0.00580321997404099
5,0.970833384192592,-0.14722222356986,0.306944449777077,0.00549778714776039,0.00366519158706069,-0.00427605677396059
5,0.969444492309338,-0.14722222356986,0.301388906555989,0.00794124789535999,-0.000916297896765172,0.0109955742955208
5,0.973611167959101,-0.14583334384257,0.295833339022973,0.00855211354792118,-0.00977384392172098,0.00916297826915979
5,0.973611167959101,-0.150000007336368,0.301388906555989,0.00671951752156019,-0.00152716308366507,0.00824668072164059
5,0.976388951725609,-0.151388899219622,0.302777798439244,0.0103847095742822,-0.0125227374956012,0.013744467869401
5,0.970833384192592,-0.151388899219622,0.308333341660331,0.0140499006956816,-0.000610865245107561,0.00397062394768
5,0.973611167959101,-0.150000007336368,0.298611122789481,0.0128281703218818,-0.0027488935738802,0.0033597587607801
5,0.969444492309338,-0.14583334384257,0.304166666010569,0.0122173046693206,0.00519235478714108,0.00397062394768
5,0.975000059842355,-0.150000007336368,0.312500017310094,0.0128281703218818,0.0045814891345799,0.00824668072164059
5,0.973611167959101,-0.150000007336368,0.298611122789481,0.013744467869401,0.00366519158706069,0.0027488935738802
5,0.976388951725609,-0.151388899219622,0.305555557893823,0.0122173046693206,0.000610865245107561,-0.0027488935738802
5,0.975000059842355,-0.144444451959316,0.306944449777077,0.0140499006956816,0.00763581553474069,0.000916297896765172
5,0.976388951725609,-0.150000007336368,0.302777798439244,0.0131336031481624,0.00610865233466029,0.00183259579353034
5,0.973611167959101,-0.144444451959316,0.306944449777077,0.00488692196086049,0.00885754637420177,0.00183259579353034
5,0.976388951725609,-0.14722222356986,0.308333341660331,0.00244346098043024,0.0045814891345799,-0.0033597587607801
5,0.973611167959101,-0.148611115453114,0.29166668768514,-0.00366519158706069,0.000916297896765172,-0.00488692196086049
5,0.979166735492117,-0.143055560076062,0.295833339022973,0.00610865233466029,-0.00122173049021512,0.00397062394768
5,0.972222276075846,-0.14722222356986,0.306944449777077,0.000916297896765172,0.0021380283869803,-0.000916297896765172
5,0.975000059842355,-0.15555556271342,0.304166666010569,0.00183259579353034,0.00549778714776039,-0.0106901414692402
5,0.969444492309338,-0.151388899219622,0.304166666010569,0.00305432616733015,0.000305432622553781,-0.00305432616733015
5,0.969444492309338,-0.154166670830166,0.300000014672736,0.00946841109544039,-0.0027488935738802,-0.00824668072164059
5,0.970833384192592,-0.150000007336368,0.298611122789481,0.00671951752156019,-0.0033597587607801,-0.00366519158706069
5,0.975000059842355,-0.150000007336368,0.300000014672736,0.0161879286170006,-0.00580321997404099,-0.0045814891345799
5,0.975000059842355,-0.150000007336368,0.308333341660331,0.00305432616733015,-0.00671951752156019,-0.00885754637420177
5,0.975000059842355,-0.150000007336368,0.305555557893823,0.00397062394768,0.00152716308366507,-0.000610865245107561
5,0.979166735492117,-0.150000007336368,0.309722233543585,0.00733038317412138,0.00855211354792118,-0.00733038317412138
5,0.973611167959101,-0.158333334323963,0.308333341660331,0.011606439948082,0.01588249579072,-0.0149661982432008
5,0.973611167959101,-0.154166670830166,0.305555557893823,0.0134390350431204,0.00152716308366507,-0.00702495034784079
5,0.972222276075846,-0.150000007336368,0.301388906555989,0.019547687843442,0.00763581553474069,-0.00763581553474069
5,0.975000059842355,-0.154166670830166,0.301388906555989,0.0125227374956012,0.01588249579072,-0.0027488935738802
5,0.968055600426084,-0.148611115453114,0.301388906555989,0.0134390350431204,0.00794124789535999,-0.00244346098043024
5,0.970833384192592,-0.15555556271342,0.300000014672736,0.0229074470698834,0.00610865233466029,-0.00397062394768
5,0.970833384192592,-0.150000007336368,0.304166666010569,0.0268780700862408,-0.000305432622553781,-0.00183259579353034
5,0.973611167959101,-0.151388899219622,0.312500017310094,0.0152716310694814,0.00305432616733015,-0.000610865245107561
5,0.973611167959101,-0.140277788465518,0.304166666010569,0.00641408516094089,0.00183259579353034,-0.00244346098043024
5,0.970833384192592,-0.140277788465518,0.300000014672736,-0.0027488935738802,0.00305432616733015,0.00488692196086049
5,0.977777843608863,-0.14722222356986,0.301388906555989,-0.00671951752156019,-0.00366519158706069,0.0021380283869803
5,0.976388951725609,-0.14722222356986,0.306944449777077,-0.00305432616733015,0.000305432622553781,0.0033597587607801
5,0.973611167959101,-0.154166670830166,0.304166666010569,0.00824668072164059,0.00671951752156019,-0.00519235478714108
5,0.973611167959101,-0.148611115453114,0.298611122789481,0.00122173049021512,0.00397062394768,-0.00183259579353034
5,0.969444492309338,-0.14722222356986,0.298611122789481,0.00977384392172098,0.00397062394768,-0.0161879286170006
5,0.969444492309338,-0.144444451959316,0.305555557893823,-0.000305432622553781,0.00610865233466029,-0.013744467869401
5,0.973611167959101,-0.144444451959316,0.302777798439244,-0.00305432616733015,0.011606439948082,-0.00549778714776039
5,0.973611167959101,-0.152777778946911,0.308333341660331,-0.00122173049021512,0.00610865233466029,0.000610865245107561
5,0.977777843608863,-0.14722222356986,0.311111125426839,0.00733038317412138,-0.00610865233466029,-0.00580321997404099
5,0.977777843608863,-0.152777778946911,0.306944449777077,0.00824668072164059,0.00610865233466029,0.0027488935738802
5,0.973611167959101,-0.14722222356986,0.305555557893823,0.0192422550171614,0.0045814891345799,-0.00641408516094089
5,0.970833384192592,-0.14722222356986,0.302777798439244,0.0164933614432812,0.00763581553474069,-0.00152716308366507
5,0.973611167959101,-0.141666668192807,0.300000014672736,0.0229074470698834,0.00183259579353034,0.00671951752156019
5,0.973611167959101,-0.141666668192807,0.300000014672736,0.017409659922123,-0.0021380283869803,0.00885754637420177
5,0.969444492309338,-0.14722222356986,0.312500017310094,0.0149661982432008,-0.00610865233466029,0.00855211354792118
5,0.973611167959101,-0.14583334384257,0.309722233543585,0.0125227374956012,-0.0021380283869803,-0.00152716308366507
5,0.973611167959101,-0.14583334384257,0.309722233543585,0.00946841109544039,-0.00977384392172098,0.00549778714776039
5,0.973611167959101,-0.141666668192807,0.301388906555989,0.01191187184304,-0.015577063895762,0.0106901414692402
5,0.980555627375371,-0.122222230451108,0.298611122789481,0.0027488935738802,-0.0256563406437635,0.0198531206697226
5,0.980555627375371,-0.122222230451108,0.298611122789481,-0.0149661982432008,0.01588249579072,0.0146607663482428
5,0.990277773310434,-0.140277788465518,0.302777798439244,-0.0204639863222837,0.0488692186772823,0.00152716308366507
5,0.952777789710289,-0.180555567988136,0.308333341660331,0.0171042270958424,0.0201585534960032,-0.00702495034784079
5,0.952777789710289,-0.180555567988136,0.308333341660331,0.0171042270958424,0.0125227374956012,-0.0323758572340012
5,0.96666670854283,-0.163888889701015,0.308333341660331,0.0204639863222837,0.0363464802503586,-0.0482583530247212
5,1.00555558402623,-0.134722233088466,0.281944444502361,-0.0262672062963247,0.0604756586253643,-0.0705549344420433
5,1.0125000434425,-0.156944454596674,0.295833339022973,0.0045814891345799,0.0626136884093285,-0.102014496922493
5,0.99583334084345,-0.17361112072783,0.288888903918631,0.0189368221908808,0.0742201283574104,-0.101403631269932
5,0.958333357243305,-0.177777784221628,0.298611122789481,0.0372627787292004,0.0507018156349659,-0.0839939713478088
5,0.927777833059431,-0.148611115453114,0.311111125426839,0.0198531206697226,0.0140499006956816,-0.0552833043038845
5,0.922222265526414,-0.1194444466846,0.318055560531181,-0.029626963660121,0.0143553335219622,-0.01588249579072
5,0.940277860008718,-0.106944444047242,0.319444452414435,-0.0629191175103188,-0.0268780700862408,0.0192422550171614
5,0.973611167959101,-0.0916666697993398,0.308333341660331,-0.0641408488154411,-0.0500909499824047,0.0583376325666905
5,0.998611124609959,-0.130555557438704,0.301388906555989,-0.0766635909676552,0.0125227374956012,0.0604756586253643
5,0.991666665193688,-0.166666673467524,0.305555557893823,-0.0277943685650826,0.00305432616733015,0.0442877300083637
5,0.983333411141879,-0.184722231481934,0.297222230906227,0.0229074470698834,0.0332921557128429,0.0125227374956012
5,0.963888924776322,-0.166666673467524,0.304166666010569,0.0400116741657257,0.0229074470698834,-0.00855211354792118
5,0.958333357243305,-0.15555556271342,0.316666668647927,0.0262672062963247,0.00549778714776039,-0.0271835029125214
5,0.963888924776322,-0.148611115453114,0.312500017310094,0.0226020142436027,0.0100792767480016,-0.0271835029125214
5,0.958333357243305,-0.120833338567854,0.330555563168539,0.0448985956609249,-0.00763581553474069,-0.01191187184304
5,0.976388951725609,-0.0986111170596459,0.323611128064198,0.0555887371301651,0.00671951752156019,0.0226020142436027
5,0.973611167959101,-0.118055554801345,0.323611128064198,0.0222965814173222,-0.01191187184304,0.0326812900602817
5,0.973611167959101,-0.136111112815755,0.305555557893823,0.0180205255746841,-0.0152716310694814,0.0287106670439243
5,0.975000059842355,-0.140277788465518,0.300000014672736,0.0204639863222837,-0.00122173049021512,0.00916297826915979
5,0.96666670854283,-0.151388899219622,0.302777798439244,0.0149661982432008,-0.00488692196086049,-0.0109955742955208
5,0.970833384192592,-0.156944454596674,0.308333341660331,0.0250454749912024,0.00733038317412138,-0.0222965814173222
5,0.969444492309338,-0.15555556271342,0.308333341660331,0.0384845100343227,-0.00305432616733015,-0.011606439948082
5,0.96666670854283,-0.143055560076062,0.309722233543585,0.0229074470698834,-0.00641408516094089,-0.00916297826915979
5,0.973611167959101,-0.123611110178398,0.315277801076602,0.00366519158706069,-0.00488692196086049,0.0103847095742822
5,0.981944519258625,-0.120833338567854,0.319444452414435,-0.0247400421649218,-0.00977384392172098,0.0250454749912024
5,0.969444492309338,-0.136111112815755,0.309722233543585,-0.0293215326964855,-0.00702495034784079,0.0320704244077206
5,0.968055600426084,-0.156944454596674,0.305555557893823,-0.00733038317412138,-0.00183259579353034,0.0284052342176437
5,0.968055600426084,-0.170833336961321,0.312500017310094,0.0177150927484035,0.00733038317412138,0.00671951752156019
5,0.970833384192592,-0.169444445078067,0.312500017310094,0.0332921557128429,0.0198531206697226,-0.0045814891345799
5,0.975000059842355,-0.150000007336368,0.315277801076602,0.0360410511493683,0.00549778714776039,-0.00855211354792118
5,0.968055600426084,-0.136111112815755,0.322222236180943,0.0335975885391235,0.0113010071218014,0.0122173046693206
5,0.976388951725609,-0.133333341205212,0.312500017310094,0.0027488935738802,0.0213802829384804,0.0033597587607801
5,0.976388951725609,-0.150000007336368,0.308333341660331,-0.00977384392172098,0.0207694191485643,-0.00885754637420177
5,0.976388951725609,-0.150000007336368,0.298611122789481,-0.00671951752156019,0.0372627787292004,-0.0277943685650826
5,0.976388951725609,-0.150000007336368,0.298611122789481,-0.0180205255746841,0.0335975885391235,-0.0308486949652433
5,0.96666670854283,-0.148611115453114,0.315277801076602,-0.0247400421649218,0.0262672062963247,-0.0320704244077206
5,0.963888924776322,-0.144444451959316,0.313888909193348,-0.0293215326964855,0.0198531206697226,-0.02382374368608
5,0.969444492309338,-0.144444451959316,0.312500017310094,-0.0284052342176437,0.0177150927484035,-0.015577063895762
5,0.973611167959101,-0.141666668192807,0.315277801076602,-0.0268780700862408,0.00824668072164059,-0.00427605677396059
5,0.973611167959101,-0.140277788465518,0.312500017310094,-0.0265726372599602,0.00763581553474069,0.000610865245107561
5,0.969444492309338,-0.140277788465518,0.313888909193348,-0.0140499006956816,-0.0152716310694814,0.0128281703218818
5,0.970833384192592,-0.14722222356986,0.320833344297689,0.0109955742955208,-0.0131336031481624,0.0247400421649218
5,0.969444492309338,-0.152777778946911,0.330555563168539,0.0186313893646002,-0.0103847095742822,0.027488935738802
5,0.973611167959101,-0.150000007336368,0.318055560531181,0.0290160998702049,-0.0204639863222837,0.0152716310694814
5,0.976388951725609,-0.144444451959316,0.329166671285285,0.0244346093386412,-0.0125227374956012,0.000916297896765172
5,0.973611167959101,-0.144444451959316,0.308333341660331,0.017409659922123,-0.0113010071218014,0.0033597587607801
5,0.976388951725609,-0.143055560076062,0.305555557893823,0.0177150927484035,-0.00305432616733015,0.00122173049021512
5,0.976388951725609,-0.140277788465518,0.318055560531181,0.0100792767480016,0.000610865245107561,-0.00610865233466029
5,0.973611167959101,-0.144444451959316,0.327777779402031,0.0183259565383196,0.00671951752156019,0.00549778714776039
5,0.96666670854283,-0.143055560076062,0.318055560531181,0.0305432621389627,0.0027488935738802,0.000916297896765172
5,0.969444492309338,-0.13750000469901,0.315277801076602,0.029626963660121,-0.00885754637420177,0.00122173049021512
5,0.973611167959101,-0.13750000469901,0.312500017310094,0.0113010071218014,-0.0122173046693206,0.00977384392172098
5,0.970833384192592,-0.143055560076062,0.315277801076602,0.0100792767480016,-0.00427605677396059,0.00702495034784079
5,0.969444492309338,-0.148611115453114,0.311111125426839,0.0146607663482428,0.00427605677396059,0.0113010071218014
5,0.968055600426084,-0.144444451959316,0.305555557893823,0.00397062394768,-0.0045814891345799,0.00427605677396059
5,0.976388951725609,-0.148611115453114,0.313888909193348,0.0122173046693206,-0.00244346098043024,-0.01191187184304
5,0.975000059842355,-0.14583334384257,0.315277801076602,0.00946841109544039,-0.00580321997404099,-0.0164933614432812
5,0.973611167959101,-0.144444451959316,0.320833344297689,-0.000610865245107561,0.0131336031481624,-0.0183259565383196
5,0.972222276075846,-0.152777778946911,0.318055560531181,-0.0027488935738802,0.0241291765123606,-0.0189368221908808
5,0.969444492309338,-0.143055560076062,0.312500017310094,-0.00549778714776039,0.0232128798961639,-0.0140499006956816
5,0.970833384192592,-0.141666668192807,0.315277801076602,0.00610865233466029,0.0146607663482428,-0.015577063895762
5,0.970833384192592,-0.141666668192807,0.315277801076602,0.000305432622553781,0.00519235478714108,-0.01191187184304
5,0.968055600426084,-0.14722222356986,0.312500017310094,0.00488692196086049,0.000916297896765172,-0.00580321997404099
5,0.969444492309338,-0.140277788465518,0.315277801076602,0.00733038317412138,0.0033597587607801,0.00152716308366507
5,0.973611167959101,-0.14722222356986,0.308333341660331,0.00519235478714108,0.0021380283869803,-0.00610865233466029
5,0.969444492309338,-0.14722222356986,0.309722233543585,0.00855211354792118,0.00580321997404099,-0.00946841109544039
5,0.972222276075846,-0.144444451959316,0.315277801076602,0.00977384392172098,-0.00610865233466029,-0.0027488935738802
5,0.969444492309338,-0.14722222356986,0.312500017310094,0.00610865233466029,-0.00794124789535999,0.0033597587607801
5,0.969444492309338,-0.14722222356986,0.305555557893823,0.0177150927484035,-0.00244346098043024,0.00580321997404099
5,0.973611167959101,-0.14583334384257,0.320833344297689,0.0232128798961639,0.00427605677396059,0.000305432622553781
5,0.976388951725609,-0.13750000469901,0.325000019947452,0.0253509078174829,0.00305432616733015,-0.0027488935738802
5,0.976388951725609,-0.140277788465518,0.313888909193348,0.021685715764761,0.00580321997404099,-0.011606439948082
5,0.970833384192592,-0.14722222356986,0.319444452414435,0.00519235478714108,0.00427605677396059,-0.0113010071218014
5,0.973611167959101,-0.14583334384257,0.312500017310094,0.00946841109544039,0.01191187184304,-0.0186313893646002
5,0.972222276075846,-0.144444451959316,0.312500017310094,0.00916297826915979,0.00702495034784079,-0.0253509078174829
5,0.970833384192592,-0.13750000469901,0.311111125426839,0.00152716308366507,0.000610865245107561,-0.0229074470698834
5,0.973611167959101,-0.140277788465518,0.315277801076602,0.00641408516094089,0.00427605677396059,-0.02382374368608
5,0.973611167959101,-0.140277788465518,0.315277801076602,-0.00366519158706069,0.0146607663482428,-0.0143553335219622
5,0.976388951725609,-0.144444451959316,0.316666668647927,-0.00549778714776039,0.0186313893646002,-0.015577063895762
5,0.976388951725609,-0.150000007336368,0.313888909193348,0.00397062394768,0.03176499158144,-0.0131336031481624
5,0.976388951725609,-0.150000007336368,0.313888909193348,0.011606439948082,0.0222965814173222,-0.017409659922123
5,0.969444492309338,-0.161111118090472,0.295833339022973,0.0226020142436027,0.0253509078174829,-0.0277943685650826
5,0.965277816659576,-0.14722222356986,0.312500017310094,0.0253509078174829,0.0335975885391235,-0.0488692186772823
5,0.965277816659576,-0.14722222356986,0.312500017310094,0.0109955742955208,0.017409659922123,-0.0351247526705265
5,0.961111141009813,-0.118055554801345,0.318055560531181,-0.00580321997404099,0.0113010071218014,-0.0229074470698834
5,0.969444492309338,-0.120833338567854,0.319444452414435,-0.0268780700862408,0.00244346098043024,-0.00702495034784079
5,0.969444492309338,-0.120833338567854,0.319444452414435,-0.0329867228865623,-0.00183259579353034,0.0106901414692402
5,0.968055600426084,-0.130555557438704,0.318055560531181,-0.0161879286170006,0.00488692196086049,-0.0027488935738802
5,0.973611167959101,-0.14722222356986,0.322222236180943,-0.000916297896765172,0.0113010071218014,-0.00855211354792118
5,0.976388951725609,-0.150000007336368,0.315277801076602,0.0134390350431204,0.00641408516094089,-0.0161879286170006
5,0.973611167959101,-0.154166670830166,0.308333341660331,0.0366519130766392,0.0186313893646002,-0.0342084541916847
5,0.969444492309338,-0.15555556271342,0.313888909193348,0.0537561401724815,0.0329867228865623,-0.0360410511493683
5,0.969444492309338,-0.140277788465518,0.323611128064198,0.0561996027827263,0.0128281703218818,-0.0363464802503586
5,0.973611167959101,-0.134722233088466,0.319444452414435,0.0219911485910416,0.00427605677396059,-0.0284052342176437
5,0.968055600426084,-0.125000002061652,0.322222236180943,0.00641408516094089,0.0021380283869803,-0.0299323964864016
5,0.965277816659576,-0.111111119697004,0.315277801076602,-0.0128281703218818,0.0021380283869803,-0.00702495034784079
5,0.961111141009813,-0.108333335930496,0.313888909193348,-0.0204639863222837,-0.00183259579353034,0.00855211354792118
5,0.96666670854283,-0.118055554801345,0.316666668647927,-0.0253509078174829,-0.00641408516094089,0.00610865233466029
5,0.969444492309338,-0.134722233088466,0.329166671285285,-0.0140499006956816,0.000916297896765172,0.00366519158706069
5,0.975000059842355,-0.134722233088466,0.316666668647927,-0.00824668072164059,-0.00916297826915979,0.00763581553474069
5,0.979166735492117,-0.134722233088466,0.319444452414435,0.000305432622553781,0.00305432616733015,0.000916297896765172
5,0.976388951725609,-0.134722233088466,0.322222236180943,0.00824668072164059,-0.0113010071218014,0.0045814891345799
5,0.975000059842355,-0.136111112815755,0.306944449777077,0.0284052342176437,-0.0164933614432812,-0.00519235478714108
5,0.983333411141879,-0.136111112815755,0.315277801076602,0.0366519130766392,-0.0100792767480016,0.00244346098043024
5,0.976388951725609,-0.144444451959316,0.316666668647927,0.0662788823246956,-0.0213802829384804,-0.00397062394768
5,0.970833384192592,-0.154166670830166,0.315277801076602,0.0781907513737679,-0.000305432622553781,-0.00519235478714108
5,0.962500032893068,-0.143055560076062,0.327777779402031,0.0571159012615681,0.0149661982432008,-0.00183259579353034
5,0.95000000594378,-0.134722233088466,0.325000019947452,0.0271835029125214,-0.0305432621389627,0.0106901414692402
5,0.956944465360051,-0.125000002061652,0.309722233543585,0.0177150927484035,-0.0409279726445675,0.0235183127224445
5,0.976388951725609,-0.122222230451108,0.301388906555989,0.0109955742955208,-0.00580321997404099,0.02382374368608
5,0.969444492309338,-0.131944449321958,0.302777798439244,0.0213802829384804,0.015577063895762,0.021685715764761
5,0.972222276075846,-0.140277788465518,0.298611122789481,0.0222965814173222,0.0180205255746841,-0.00702495034784079
5,0.976388951725609,-0.148611115453114,0.320833344297689,-0.00152716308366507,0.0247400421649218,-0.0320704244077206
5,0.976388951725609,-0.144444451959316,0.318055560531181,-0.0277943685650826,0.0229074470698834,-0.0555887371301651
5,0.986111194908388,-0.12916666555545,0.312500017310094,-0.0458148941397667,0.0164933614432812,-0.0705549344420433
5,0.976388951725609,-0.113888891307548,0.322222236180943,-0.0360410511493683,0.00946841109544039,-0.0461203269660473
5,0.965277816659576,-0.111111119697004,0.318055560531181,-0.0253509078174829,-0.0021380283869803,0.00122173049021512
5,0.952777789710289,-0.122222230451108,0.325000019947452,0.00549778714776039,-0.0134390350431204,0.0378736443817616
5,0.956944465360051,-0.148611115453114,0.316666668647927,0.0167987942695618,-0.0421497002243996,0.0412334054708481
5,0.976388951725609,-0.15555556271342,0.311111125426839,0.0241291765123606,-0.0311541277915239,0.0250454749912024
5,0.987499989543926,-0.156944454596674,0.308333341660331,0.0357356183230877,-0.0171042270958424,-0.000610865245107561
5,0.98888888142718,-0.154166670830166,0.309722233543585,0.0403171069920063,0.0372627787292004,-0.027488935738802
5,0.98888888142718,-0.154166670830166,0.309722233543585,0.03176499158144,0.0357356183230877,-0.0210748501121998
5,0.962500032893068,-0.120833338567854,0.315277801076602,0.021685715764761,0.0247400421649218,-0.00824668072164059
5,0.961111141009813,-0.115277783190802,0.315277801076602,0.00977384392172098,0.00855211354792118,0.0152716310694814
5,0.961111141009813,-0.115277783190802,0.315277801076602,0.0122173046693206,-0.013744467869401,0.0210748501121998
5,0.979166735492117,-0.140277788465518,0.306944449777077,0.00366519158706069,-0.00824668072164059,0.0109955742955208
5,0.979166735492117,-0.140277788465518,0.316666668647927,0.0140499006956816,0.00488692196086049,-0.0189368221908808
5,0.976388951725609,-0.125000002061652,0.312500017310094,0.00641408516094089,0.02382374368608,-0.0244346093386412
5,0.976388951725609,-0.125000002061652,0.312500017310094,-0.000610865245107561,0.0186313893646002,-0.0122173046693206
5,0.96666670854283,-0.118055554801345,0.325000019947452,-0.0128281703218818,0.00702495034784079,0.000610865245107561
5,0.962500032893068,-0.120833338567854,0.318055560531181,-0.0109955742955208,0.00549778714776039,0.00427605677396059
5,0.962500032893068,-0.120833338567854,0.318055560531181,-0.0125227374956012,-0.0134390350431204,0.021685715764761
5,0.959722249126559,-0.13750000469901,0.316666668647927,0.000305432622553781,-0.00733038317412138,0.01191187184304
5,0.968055600426084,-0.150000007336368,0.311111125426839,0.00885754637420177,-0.0033597587607801,0.00427605677396059
5,0.973611167959101,-0.150000007336368,0.312500017310094,0.0128281703218818,-0.0021380283869803,-0.000305432622553781
5,0.975000059842355,-0.144444451959316,0.319444452414435,0.0287106670439243,-0.0021380283869803,0.00671951752156019
5,0.973611167959101,-0.133333341205212,0.308333341660331,0.0299323964864016,-0.00763581553474069,0.0131336031481624
5,0.977777843608863,-0.12777778582816,0.318055560531181,0.0241291765123606,0.00366519158706069,0.0103847095742822
5,0.96666670854283,-0.134722233088466,0.323611128064198,0.0229074470698834,-0.00702495034784079,0.00580321997404099
5,0.96666670854283,-0.134722233088466,0.308333341660331,0.0106901414692402,-0.0033597587607801,-0.00183259579353034
5,0.969444492309338,-0.136111112815755,0.309722233543585,0.00671951752156019,0.00427605677396059,-0.00671951752156019
5,0.970833384192592,-0.134722233088466,0.309722233543585,0.00824668072164059,0.0149661982432008,-0.00519235478714108
5,0.972222276075846,-0.13750000469901,0.306944449777077,0.013744467869401,0.0134390350431204,-0.00794124789535999
5,0.969444492309338,-0.136111112815755,0.308333341660331,0.0241291765123606,0.00702495034784079,0.000610865245107561
5,0.969444492309338,-0.13750000469901,0.334722238818301,0.0256563406437635,0.0027488935738802,-0.0149661982432008
5,0.972222276075846,-0.130555557438704,0.322222236180943,0.0152716310694814,0.0161879286170006,-0.01191187184304
5,0.975000059842355,-0.136111112815755,0.325000019947452,0.0134390350431204,0.0210748501121998,-0.00305432616733015
5,0.969444492309338,-0.140277788465518,0.318055560531181,0.0226020142436027,0.01191187184304,-0.013744467869401
5,0.969444492309338,-0.140277788465518,0.315277801076602,0.0213802829384804,-0.000916297896765172,-0.0045814891345799
5,0.968055600426084,-0.134722233088466,0.316666668647927,0.037568211555481,0.0021380283869803,0.00488692196086049
5,0.970833384192592,-0.12777778582816,0.320833344297689,0.0332921557128429,0.00305432616733015,0.00733038317412138
5,0.968055600426084,-0.1194444466846,0.331944455051793,0.0320704244077206,0.00519235478714108,0.0134390350431204
5,0.969444492309338,-0.1194444466846,0.322222236180943,0.01588249579072,-0.00152716308366507,0.0122173046693206
5,0.96666670854283,-0.12777778582816,0.325000019947452,0.015577063895762,0.00549778714776039,0.00122173049021512
5,0.977777843608863,-0.140277788465518,0.322222236180943,0.0106901414692402,0.0149661982432008,-0.00397062394768
5,0.983333411141879,-0.148611115453114,0.320833344297689,0.0125227374956012,0.0516181141138077,-0.0314595587551594
5,0.965277816659576,-0.158333334323963,0.319444452414435,0.0247400421649218,0.0342084541916847,-0.0598647929728031
5,0.963888924776322,-0.152777778946911,0.312500017310094,0.017409659922123,0.0363464802503586,-0.0662788823246956
5,0.962500032893068,-0.130555557438704,0.325000019947452,0.00397062394768,0.0390953756868839,-0.0513126812875271
5,0.958333357243305,-0.123611110178398,0.327777779402031,-0.00824668072164059,0.0253509078174829,-0.0351247526705265
5,0.959722249126559,-0.112499999424294,0.327777779402031,0.000305432622553781,0.0140499006956816,-0.0146607663482428
5,0.965277816659576,-0.115277783190802,0.326388911830706,-0.0128281703218818,0.0027488935738802,0.0152716310694814
5,0.96666670854283,-0.1194444466846,0.325000019947452,-0.011606439948082,-0.00763581553474069,0.0161879286170006
5,0.970833384192592,-0.1194444466846,0.325000019947452,-0.00610865233466029,-0.0149661982432008,0.0146607663482428
5,0.981944519258625,-0.12777778582816,0.322222236180943,0.0103847095742822,-0.0021380283869803,0.0262672062963247
5,0.976388951725609,-0.140277788465518,0.322222236180943,0.0189368221908808,0.0021380283869803,0.0342084541916847
5,0.969444492309338,-0.156944454596674,0.323611128064198,0.0323758572340012,0.00763581553474069,0.01588249579072
5,0.970833384192592,-0.154166670830166,0.319444452414435,0.0461203269660473,0.03176499158144,-0.011606439948082
5,0.96666670854283,-0.138888896582264,0.318055560531181,0.0604756586253643,0.0143553335219622,-0.0128281703218818
5,0.959722249126559,-0.134722233088466,0.326388911830706,0.0607810914516449,0.00977384392172098,-0.00427605677396059
5,0.959722249126559,-0.122222230451108,0.322222236180943,0.0320704244077206,0.0164933614432812,0.00305432616733015
5,0.962500032893068,-0.113888891307548,0.326388911830706,0.0106901414692402,0.0192422550171614,0.00763581553474069
5,0.961111141009813,-0.106944444047242,0.331944455051793,0.00855211354792118,-0.00641408516094089,0.00824668072164059
5,0.969444492309338,-0.0986111170596459,0.319444452414435,-0.00397062394768,-0.0210748501121998,0.0277943685650826
5,0.968055600426084,-0.1194444466846,0.319444452414435,-0.0146607663482428,-0.0027488935738802,0.0302378293126821
5,0.970833384192592,-0.133333341205212,0.315277801076602,-0.0204639863222837,-0.00244346098043024,0.01191187184304
5,0.976388951725609,-0.13750000469901,0.319444452414435,-0.0250454749912024,-0.000916297896765172,-0.00916297826915979
5,0.976388951725609,-0.13750000469901,0.319444452414435,-0.0268780700862408,-0.00641408516094089,-0.0268780700862408
5,0.973611167959101,-0.136111112815755,0.323611128064198,-0.0177150927484035,0.00702495034784079,-0.0335975885391235
5,0.968055600426084,-0.13750000469901,0.318055560531181,-0.0140499006956816,0.00488692196086049,-0.019547687843442
5,0.963888924776322,-0.125000002061652,0.327777779402031,0.0106901414692402,-0.0180205255746841,0.0128281703218818
5,0.979166735492117,-0.10972222781375,0.327777779402031,-0.0045814891345799,0.0323758572340012,0.0171042270958424
5,0.984722303025134,-0.134722233088466,0.325000019947452,-0.0284052342176437,0.0241291765123606,-0.000916297896765172
5,0.990277773310434,-0.162500009973726,0.306944449777077,0.00549778714776039,0.0436768643558025,-0.0394008085131645
5,0.983333411141879,-0.193055558469529,0.304166666010569,0.0537561401724815,0.0430659987032413,-0.0907134860754013
5,0.968055600426084,-0.187500003092477,0.305555557893823,0.0861319974064827,0.0351247526705265,-0.0894917547702789
5,0.948611114060526,-0.144444451959316,0.318055560531181,0.0861319974064827,0.0323758572340012,-0.0687223374843597
5,0.95000000594378,-0.10972222781375,0.327777779402031,0.0201585534960032,0.0125227374956012,-0.0226020142436027
5,0.951388897827035,-0.0944444474878658,0.322222236180943,-0.0290160998702049,-0.0256563406437635,0.00763581553474069
5,0.954166681593543,-0.0958333393711199,0.336111130701556,-0.0342084541916847,-0.0565050356090069,0.0400116741657257
5,0.970833384192592,-0.101388894748172,0.351388892793493,-0.0244346093386412,-0.0339030213654041,0.0604756586253643
5,0.975000059842355,-0.108333335930496,0.33750002258481,-0.00244346098043024,-0.0351247526705265,0.0638354197144508
5,0.976388951725609,-0.0902777839940679,0.331944455051793,-0.0247400421649218,-0.0268780700862408,0.0629191175103188
5,0.987499989543926,-0.126388893944906,0.311111125426839,-0.0675006061792374,-0.00427605677396059,0.00763581553474069
5,0.969444492309338,-0.163888889701015,0.308333341660331,-0.0192422550171614,-0.00244346098043024,-0.0467311926186085
5,0.975000059842355,-0.17361112072783,0.320833344297689,-0.00549778714776039,0.0345138870179653,-0.0791070461273193
5,0.96666670854283,-0.152777778946911,0.322222236180943,0.00519235478714108,0.0299323964864016,-0.0891863256692886
5,0.956944465360051,-0.125000002061652,0.320833344297689,0.00610865233466029,0.00733038317412138,-0.0485637858510017
5,0.95000000594378,-0.101388894748172,0.322222236180943,-0.0323758572340012,0.00183259579353034,-0.00794124789535999
5,0.951388897827035,-0.101388894748172,0.327777779402031,-0.0510072484612465,-0.0329867228865623,0.00733038317412138
5,0.965277816659576,-0.101388894748172,0.325000019947452,-0.0445931628346443,-0.0555887371301651,0.0397062413394451
5,0.983333411141879,-0.104166672436698,0.330555563168539,-0.0348193198442459,-0.0262672062963247,0.070249505341053
5,0.986111194908388,-0.13750000469901,0.325000019947452,-0.0113010071218014,-0.0329867228865623,0.0678060427308083
5,0.973611167959101,-0.152777778946911,0.309722233543585,-0.00641408516094089,-0.00397062394768,0.0314595587551594
5,0.96666670854283,-0.154166670830166,0.322222236180943,0.00763581553474069,-0.0167987942695618,-0.00397062394768
5,0.962500032893068,-0.143055560076062,0.322222236180943,0.000610865245107561,-0.0277943685650826,-0.0192422550171614
5,0.96666670854283,-0.122222230451108,0.315277801076602,-0.0125227374956012,-0.0140499006956816,-0.0140499006956816
5,0.96666670854283,-0.113888891307548,0.334722238818301,-0.0268780700862408,-0.00824668072164059,-0.00244346098043024
5,0.968055600426084,-0.1194444466846,0.322222236180943,-0.0448985956609249,0.000305432622553781,0.0241291765123606
