Activity,acc_x,acc_y,acc_z,gyro_x,gyro_y,gyro_z
0,0.98888888142718,-0.140277788465518,0.261111114877407,0.0888808965682983,-0.172569438815117,0.0885754600167274
0,1.01388893532575,-0.152777778946911,0.243055569018962,0.0681114718317986,-0.187535628676414,0.116675265133381
0,1.01527782720901,-0.154166670830166,0.265277790527169,0.107817716896534,-0.498160600662232,0.155770644545555
0,1.01527782720901,-0.154166670830166,0.265277790527169,0.107817716896534,-0.498160600662232,0.155770644545555
0,1.01527782720901,-0.154166670830166,0.265277790527169,0.0681114718317986,-0.541837453842163,0.362243086099625
0,1.01666671909226,-0.161111118090472,0.268055574293678,0.0503963828086853,-0.593455612659454,0.376598417758942
0,1.04444445950963,-0.156944454596674,0.259722222994153,0.000916297896765172,-0.698524415493011,0.241291776299477
0,1.03750000009336,-0.169444445078067,0.247222220356795,0.0748309940099716,-0.890641510486603,0.155465200543404
0,1.01527782720901,-0.169444445078067,0.250000004123303,0.04764748737216,-0.977078974246979,0.335670441389084
0,1.00000001649321,-0.150000007336368,0.250000004123303,-0.299629390239716,-1.33657312393188,0.485332429409027
0,0.969444492309338,-0.16527778158427,0.231944458264858,-0.309403240680695,-1.7534886598587,0.189062789082527
0,0.947222222177272,-0.213888888094483,0.259722222994153,0.593761026859283,-1.44347453117371,-0.119729585945606
0,1.00555558402623,-0.226388890731841,0.111111119697004,0.761443555355072,-0.846353769302368,-0.0207694191485643
0,1.00277780025972,-0.20138889761309,0.0472222237439329,0.707381963729858,-1.08550751209259,0.00519235478714108
0,1.00277780025972,-0.20138889761309,0.0472222237439329,0.439517557621002,-1.27426493167877,0.0568104684352875
0,1.05416670269241,-0.202777789496344,-0.223611131277262,0.172569438815117,0.00366519158706069,-0.105374254286289
0,1.00555558402623,-0.250000004123303,-0.237500001485945,0.00549778714776039,0.798706293106079,-0.340557366609573
0,0.98888888142718,-0.223611131277262,-0.176388892338373,-0.463952153921127,1.04274702072144,-0.51434850692749
0,1.02916674604155,-0.151388899219622,-0.0986111170596459,-0.935234665870667,0.874453604221344,-0.769384801387787
0,1.02500007039179,-0.0944444474878658,-0.00277777787846293,-0.80481493473053,-0.00183259579353034,-0.852462470531464
0,1.04166667574312,-0.0222222230277034,0.0194444453391775,-0.271529614925385,-1.06168377399445,-0.54916787147522
0,1.00000001649321,-0.0833333367337618,0.033333335301303,0.456010907888412,-1.25624442100525,-0.192117124795914
0,1.00000001649321,-0.150000007336368,-0.0722222259796579,0.989601671695709,-0.932791233062744,-0.08460483700037
0,1.10277782135859,-0.224999998848587,-0.166666673467524,1.11055302619934,-0.27458393573761,-0.522900640964508
0,1.10277782135859,-0.224999998848587,-0.166666673467524,1.06321096420288,0.679893016815186,-1.03663837909699
0,1.0361111082101,-0.220833347510754,-0.0138888899621255,0.570853590965271,1.22478485107422,-1.16980695724487
0,0.954166681593543,-0.0944444474878658,0.052777782159976,-1.46668744087219,0.853378772735596,-0.219300627708435
0,0.94305554652751,-0.00277777787846293,0.0375000018340919,-2.2513439655304,0.75105881690979,0.435241490602493
0,1.00000001649321,-0.0166666676506515,0.0930555616825939,-2.13833379745483,1.08764553070068,0.441350132226944
0,1.07777786470773,-0.0958333393711199,0.179166676104882,-1.75471043586731,1.19240891933441,0.120340451598167
0,1.06111116210868,-0.055555559848502,0.244444460902216,-1.13834738731384,1.37078166007996,-0.373238652944565
0,0.998611124609959,-0.0625000010308258,0.279166685047782,-0.898888230323792,1.87138569355011,-0.386066824197769
0,0.945833330294018,-0.0694444482911319,0.286111120152123,-0.992350578308105,2.43490886688232,-0.299629390239716
0,0.926388941176177,-0.0472222237439329,0.315277801076602,-1.28037357330322,2.62641501426697,-0.311846703290939
0,0.926388941176177,-0.0472222237439329,0.315277801076602,-1.48287534713745,2.80203890800476,-0.326812893152237
0,0.986111194908388,-0.105555564319952,0.352777784676747,-1.71775305271149,2.76324892044067,-0.326507478952408
0,1.00555558402623,-0.101388894748172,0.384722225055805,-1.84969997406006,2.50943446159363,-0.340862810611725
0,0.981944519258625,-0.0847222225390337,0.433333343721983,-1.63223195075989,1.98958814144134,-0.217773467302322
0,0.94305554652751,-0.0736111117849297,0.523611121638068,-1.23058807849884,1.60168862342834,-0.0439822971820831
0,0.972222276075846,-0.0680555564078778,0.551388910679293,-0.70829826593399,1.31000053882599,-0.00183259579353034
0,0.963888924776322,-0.0916666697993398,0.545833343146276,-0.234572261571884,0.981660425662994,0.0247400421649218
0,0.926388941176177,-0.120833338567854,0.498611116363352,0.0561996027827263,0.633467257022858,0.137139245867729
0,0.922222265526414,-0.0472222237439329,0.347222241455659,-0.335670441389084,-0.84574294090271,0.339335650205612
0,0.899999995394348,-0.134722233088466,0.334722238818301,-1.16308736801148,-1.08734011650085,0.631023824214935
0,0.933333400592447,-0.140277788465518,0.393055576355329,-1.65513932704925,-0.779769480228424,-0.0696386396884918
0,0.940277860008718,-0.172222228844576,0.427777776188966,-1.41965079307556,-0.601702272891998,-0.178983509540558
0,0.863888903677457,-0.212499996211229,0.447222262554524,-0.896139323711395,-0.349720358848572,-0.0229074470698834
0,0.813888941751883,-0.200000005729836,0.500000008246606,-0.466701060533524,-0.0033597587607801,-0.00916297826915979
0,0.865277795560711,-0.162500009973726,0.519444445988306,0.0134390350431204,-0.236099421977997,-0.021685715764761
0,0.890277849459286,-0.156944454596674,0.519444445988306,0.295658767223358,-0.283441483974457,-0.00183259579353034
0,0.929166724942685,-0.163888889701015,0.479166678621653,0.247094988822937,0.19028452038765,-0.125227376818657
0,0.913888914226889,-0.216666671860991,0.404166687109433,-0.00733038317412138,0.935845553874969,-0.353996396064758
0,0.913888914226889,-0.2194444556275,0.400000011459671,-0.283746898174286,0.950506329536438,-0.410196006298065
0,0.92083337364316,-0.20138889761309,0.415277797863537,-0.457538068294525,0.86162543296814,-0.344833433628082
0,0.899999995394348,-0.18333333959868,0.531944472937593,-0.104457959532738,0.67836582660675,-0.181426972150803
0,0.89722221162784,-0.188888894975731,0.543055559379768,-0.0751364231109619,0.0952949747443199,-0.274889349937439
0,0.899999995394348,-0.19166667874224,0.512500035195893,-0.253814518451691,0.0302378293126821,-0.367435455322266
0,0.904166671044111,-0.159722226207217,0.472222219205382,-0.291688144207001,0.339641064405441,-0.389121174812317
0,0.87500003874349,-0.13750000469901,0.516666662221798,-0.358577907085419,0.015577063895762,-0.133779495954514
0,0.847222298326124,-0.134722233088466,0.459722240879953,-0.490830212831497,0.0106901414692402,-0.216246291995048
0,0.880555606276507,-0.161111118090472,0.473611111088636,-0.467617332935333,0.0113010071218014,-0.248011291027069
0,0.861111119910949,-0.177777784221628,0.456944457113445,-0.350025773048401,-0.0919352173805237,-0.203418120741844
0,0.858333336144441,-0.154166670830166,0.456944457113445,-0.11606439948082,0.215635433793068,-0.215940862894058
0,0.862500011794203,-0.163888889701015,0.495833332596844,0.058643065392971,0.0244346093386412,-0.441960990428925
0,0.819444460661041,-0.101388894748172,0.515277818962402,0.011606439948082,-0.0290160998702049,-0.0400116741657257
0,0.808333374218867,-0.0361111129898289,0.541666667496514,0.245873257517815,0.0326812900602817,0.347887754440308
0,0.861111119910949,-0.0750000036681839,0.581944483487025,0.459370672702789,-0.145691365003586,0.418442696332932
0,0.89722221162784,-0.12916666555545,0.550000018796039,0.59650993347168,-0.102014496922493,0.341168224811554
0,0.904166671044111,-0.14722222356986,0.480555570504907,0.441350132226944,-0.133168622851372,0.280387133359909
0,0.915277806110144,-0.180555567988136,0.443055586904762,0.193949714303017,-0.374765813350677,0.380569040775299
0,0.92083337364316,-0.272222225631511,0.426388884305712,-0.0241291765123606,-0.318260788917542,0.273362189531326
0,0.898611103511094,-0.24583335278547,0.462500024646461,-0.0394008085131645,-0.00794124789535999,0.115148097276688
0,0.898611103511094,-0.204166669223633,0.509722251429385,-0.00427605677396059,0.339641064405441,-0.0284052342176437
0,0.866666687443965,-0.166666673467524,0.490277813687686,-0.166766211390495,0.513737678527832,-0.05283984541893
0,0.866666687443965,-0.166666673467524,0.490277813687686,-0.397673279047012,0.674395203590393,-0.0235183127224445
0,0.899999995394348,-0.15555556271342,0.437500019371745,-0.4544837474823,0.770301103591919,0.0968221426010132
0,0.880555606276507,-0.163888889701015,0.473611111088636,-0.36529740691185,0.353385537862778,0.0381790772080422
0,0.870833363093728,-0.17361112072783,0.512500035195893,-0.416610091924667,0.251371055841446,-0.0534507073462009
0,0.80277780668585,-0.176388892338373,0.545833343146276,-0.215940862894058,0.584292590618134,-0.0433714315295219
0,0.80277780668585,-0.176388892338373,0.545833343146276,-0.191811680793762,0.774271726608276,0.480445504188538
0,0.793055563503071,-0.154166670830166,0.555555586329055,-0.161573857069016,1.09253251552582,0.516181111335754
0,0.865277795560711,-0.195833342236038,0.544444451263022,-0.171958565711975,1.18263506889343,0.328645497560501
0,0.865277795560711,-0.195833342236038,0.544444451263022,-0.299629390239716,0.901331663131714,-0.0198531206697226
0,0.901388887277602,-0.200000005729836,0.565277780887976,-0.280692577362061,0.527787566184998,0.105068825185299
0,0.808333374218867,-0.175000000455119,0.591666678045946,-0.141720741987228,0.410501450300217,0.334143280982971
0,0.825000028194058,-0.212499996211229,0.608333332021137,-0.229685336351395,0.387899428606033,0.24312436580658
0,0.840277838909853,-0.226388890731841,0.58333337537028,-0.30757063627243,0.278249114751816,0.149051114916802
0,0.818055568777787,-0.25555557165632,0.54722223502953,-0.314901024103165,0.42271876335144,0.0995710343122482
0,0.779166693294388,-0.262500006760661,0.534722256704101,-0.329561799764633,0.520457208156586,0.0482583530247212
0,0.788888936477167,-0.25555557165632,0.591666678045946,-0.247400417923927,0.237321153283119,-0.00946841109544039
0,0.801388914802596,-0.25555557165632,0.613888899554154,-0.0992656052112579,-0.0497855171561241,-0.0623082555830479
0,0.797222239152834,-0.270833333748257,0.615277791437408,-0.0461203269660473,-0.140499010682106,-0.125227376818657
0,0.780555585177642,-0.240277785252453,0.61944446708717,0.0323758572340012,-0.186313897371292,-0.0867428630590439
0,0.773611125761372,-0.240277785252453,0.606944488761742,0.0198531206697226,-0.277332812547684,-0.0613919571042061
0,0.766666714968959,-0.241666677135707,0.584722267253534,-0.0229074470698834,-0.303600013256073,0.00916297826915979
0,0.780555585177642,-0.250000004123303,0.58333337537028,-0.0369573459029198,-0.282525181770325,0.0219911485910416
0,0.772222233878117,-0.244444460902216,0.606944488761742,-0.0403171069920063,-0.218689754605293,0.0711658000946045
0,0.770833341994863,-0.234722242031366,0.6125000076709,0.1750128865242,0.207083314657211,-0.293215304613113
0,0.89722221162784,-0.259722222994153,0.656944450687316,0.259006857872009,0.400422155857086,-0.460897833108902
0,0.790277828360421,-0.227777782615095,0.588888894279438,-0.166460782289505,0.13225232064724,-0.172874867916107
0,0.777777801411134,-0.240277785252453,0.588888894279438,-0.118507854640484,-0.0207694191485643,-0.130725160241127
0,0.726388898978447,-0.230555566381603,0.576388915954009,-0.123700208961964,0.0507018156349659,0.0201585534960032
0,0.741666709694243,-0.220833347510754,0.605555596878487,-0.00488692196086049,0.175929188728332,0.00641408516094089
0,0.779166693294388,-0.233333350148112,0.598611137462217,0.0027488935738802,0.0671951770782471,-0.0143553335219622
0,0.825000028194058,-0.250000004123303,0.569444456537738,-0.0436768643558025,-0.0552833043038845,-0.0650571510195732
0,0.820833352544296,-0.250000004123303,0.556944478212309,-0.0656680166721344,-0.123700208961964,-0.0849102661013603
0,0.806944482335612,-0.229166674498349,0.572222240304247,-0.105068825185299,-0.150272846221924,-0.0956004112958908
0,0.794444455386325,-0.216666671860991,0.577777807837263,-0.0794124826788902,-0.120340451598167,-0.0940732508897781
0,0.775000017644626,-0.223611131277262,0.584722267253534,-0.0705549344420433,-0.0870482996106148,-0.0571159012615681
0,0.780555585177642,-0.224999998848587,0.587500002396184,-0.0891863256692886,-0.0833831056952477,-0.0485637858510017
0,0.795833347269579,-0.241666677135707,0.604166704995233,-0.0219911485910416,-0.10048733651638,-0.0439822971820831
0,0.800000022919342,-0.234722242031366,0.600000029345471,-0.0125227374956012,-0.0803287774324417,-0.0956004112958908
0,0.798611131036088,-0.223611131277262,0.573611132187501,-0.0543670058250427,-0.104457959532738,-0.0901026204228401
0,0.800000022919342,-0.238888893369199,0.581944483487025,-0.0620028227567673,-0.0681114718317986,-0.0821613743901253
0,0.801388914802596,-0.243055569018962,0.591666678045946,-0.00916297826915979,-0.0952949747443199,-0.0885754600167274
0,0.805555590452358,-0.229166674498349,0.601388921228725,-0.0177150927484035,-0.0946841165423393,-0.0638354197144508
0,0.808333374218867,-0.227777782615095,0.590277786162692,-0.0430659987032413,-0.0940732508897781,-0.0763581544160843
0,0.804166698569104,-0.226388890731841,0.577777807837263,-0.0778853222727776,-0.125532805919647,-0.0766635909676552
0,0.801388914802596,-0.218055563744246,0.558333370095563,-0.102319926023483,-0.0675006061792374,-0.0775798857212067
0,0.806944482335612,-0.218055563744246,0.573611132187501,-0.0830776765942574,0.0207694191485643,-0.0662788823246956
0,0.808333374218867,-0.2194444556275,0.595833353695709,-0.0397062413394451,0.0916297882795334,-0.0671951770782471
0,0.812500049868629,-0.222222239394008,0.598611137462217,-0.0794124826788902,0.125227376818657,-0.0690277740359306
0,0.830555595727074,-0.233333350148112,0.58333337537028,-0.0210748501121998,0.0467311926186085,-0.0638354197144508
0,0.808333374218867,-0.231944458264858,0.575000024070755,0.0128281703218818,-0.0445931628346443,-0.0268780700862408
0,0.808333374218867,-0.229166674498349,0.565277780887976,0.02382374368608,-0.05283984541893,-0.0131336031481624
0,0.80277780668585,-0.233333350148112,0.580555591603771,0.141109868884087,-0.0442877300083637,-0.0357356183230877
0,0.812500049868629,-0.226388890731841,0.575000024070755,0.138055548071861,-0.0329867228865623,-0.0638354197144508
0,0.819444460661041,-0.223611131277262,0.568055564654484,0.0500909499824047,-0.0956004112958908,-0.0742201283574104
0,0.82916670384382,-0.223611131277262,0.558333370095563,-0.0491746515035629,-0.113010071218014,-0.0733038261532784
0,0.827777811960566,-0.212499996211229,0.572222240304247,-0.0366519130766392,-0.188451930880547,-0.0638354197144508
0,0.816666676894533,-0.20972223675665,0.587500002396184,-0.029626963660121,-0.194560587406159,-0.0852157026529312
0,0.811111157985375,-0.212499996211229,0.584722267253534,0.015577063895762,-0.178067222237587,-0.0684169083833694
0,0.798611131036088,-0.20972223675665,0.555555586329055,0.0109955742955208,-0.103541657328606,-0.0531452745199203
0,0.798611131036088,-0.20138889761309,0.545833343146276,-0.0907134860754013,-0.0412334054708481,-0.0354301854968071
0,0.831944487610329,-0.213888888094483,0.538888932353864,-0.16401731967926,-0.0769690200686455,-0.0424551330506802
0,0.848611190209378,-0.229166674498349,0.576388915954009,-0.113315500319004,-0.0580321997404099,-0.0943786799907684
0,0.825000028194058,-0.216666671860991,0.588888894279438,-0.0290160998702049,0.00519235478714108,-0.114842668175697
0,0.825000028194058,-0.216666671860991,0.588888894279438,0.0210748501121998,0.0366519130766392,-0.0858265683054924
0,0.825000028194058,-0.204166669223633,0.569444456537738,0.0134390350431204,0.147218525409698,-0.0720821022987366
0,0.827777811960566,-0.200000005729836,0.56666667277123,0.021685715764761,0.114231802523136,-0.0280998013913631
0,0.841666730793107,-0.212499996211229,0.559722261978817,0.0323758572340012,0.0397062413394451,-0.015577063895762
0,0.825000028194058,-0.220833347510754,0.555555586329055,0.0613919571042061,0.0287106670439243,-0.0430659987032413
0,0.831944487610329,-0.215277779977737,0.559722261978817,0.0241291765123606,0.0983493030071259,-0.0479529201984406
0,0.848611190209378,-0.216666671860991,0.554166694445801,0.0247400421649218,0.0549778714776039,-0.0210748501121998
0,0.848611190209378,-0.216666671860991,0.554166694445801,0.0427605658769607,-0.00824668072164059,-0.0781907513737679
0,0.815277785011279,-0.197222234119292,0.565277780887976,0.0348193198442459,-0.0974330082535744,-0.0736092627048492
0,0.815277785011279,-0.197222234119292,0.565277780887976,-0.000610865245107561,-0.0650571510195732,-0.0213802829384804
0,0.795833347269579,-0.198611113846581,0.563888889004722,0.0745255574584007,0.081855945289135,0.0100792767480016
0,0.795833347269579,-0.198611113846581,0.563888889004722,0.12156218290329,0.00305432616733015,0.00580321997404099
0,0.82916670384382,-0.212499996211229,0.581944483487025,0.0882700309157372,-0.00855211354792118,-0.0363464802503586
0,0.841666730793107,-0.204166669223633,0.562499997121468,0.0323758572340012,-0.011606439948082,-0.076052725315094
0,0.82222224442755,-0.193055558469529,0.548611126912784,-0.0161879286170006,0.0207694191485643,-0.0351247526705265
0,0.811111157985375,-0.206944452990142,0.569444456537738,0.00488692196086049,0.0980438739061356,-0.0271835029125214
0,0.811111157985375,-0.206944452990142,0.569444456537738,0.0855211317539215,0.137139245867729,-0.0678060427308083
0,0.840277838909853,-0.218055563744246,0.552777802562547,-0.10048733651638,0.0791070461273193,-0.164628177881241
0,0.855555552377932,-0.212499996211229,0.525000013521323,-0.163406446576118,-0.106290549039841,-0.218078896403313
0,0.855555552377932,-0.212499996211229,0.525000013521323,-0.0775798857212067,-0.273667633533478,-0.188451930880547
0,0.830555595727074,-0.195833342236038,0.551388910679293,-0.111788339912891,-0.315511912107468,-0.127365410327911
0,0.827777811960566,-0.188888894975731,0.548611126912784,-0.0653625801205635,-0.281914323568344,-0.0607810914516449
0,0.834722271376837,-0.188888894975731,0.565277780887976,0.00977384392172098,-0.303294599056244,-0.0531452745199203
0,0.831944487610329,-0.19166667874224,0.563888889004722,-0.125227376818657,-0.355523586273193,-0.0565050356090069
0,0.837500055143345,-0.19166667874224,0.525000013521323,-0.122478485107422,-0.266948103904724,0.0714712366461754
0,0.82222224442755,-0.170833336961321,0.531944472937593,-0.138971850275993,-0.313679307699203,0.115758962929249
0,0.808333374218867,-0.180555567988136,0.529166689171085,-0.0659734457731247,-0.359188765287399,0.196698606014252
0,0.849999984844916,-0.176388892338373,0.555555586329055,0.160046696662903,-0.411723166704178,0.272751331329346
0,0.831944487610329,-0.18333333959868,0.558333370095563,0.292909890413284,-0.452956587076187,0.30757063627243
0,0.848611190209378,-0.202777789496344,0.556944478212309,0.192117124795914,-0.310319542884827,0.19028452038765
0,0.886111173809523,-0.238888893369199,0.512500035195893,0.000610865245107561,-0.236099421977997,0.0864374339580536
0,0.873611146860236,-0.212499996211229,0.479166678621653,-0.0995710343122482,-0.357661604881287,0.143247902393341
0,0.880555606276507,-0.20138889761309,0.456944457113445,-0.215635433793068,-0.620639085769653,0.137750118970871
0,0.915277806110144,-0.198611113846581,0.473611111088636,0.0650571510195732,-0.924849987030029,0.118813291192055
0,0.911111130460381,-0.197222234119292,0.519444445988306,0.140499010682106,-1.13132238388062,0.000916297896765172
0,0.961111141009813,-0.186111123365188,0.447222262554524,-0.316122770309448,-1.31091678142548,-0.0271835029125214
0,0.904166671044111,-0.230555566381603,0.424999992422458,-0.0021380283869803,-1.26601827144623,-0.0219911485910416
0,0.879166714393253,-0.24583335278547,0.355555568443255,-0.187841057777405,-1.46668744087219,0.0616973899304867
0,0.887500065692777,-0.259722222994153,0.331944455051793,-0.414166629314423,-1.5824464559555,0.151189148426056
0,0.890277849459286,-0.227777782615095,0.469444484062732,-0.392480909824371,-1.55037593841553,0.253203630447388
0,0.893055633225794,-0.263888898643915,0.454166673346937,0.663399636745453,-1.12093770503998,0.22724187374115
0,0.962500032893068,-0.286111120152123,0.345833349572405,0.594982743263245,-0.758389174938202,0.037568211555481
0,0.940277860008718,-0.286111120152123,0.316666668647927,0.168293371796608,-0.529009282588959,-0.0549778714776039
0,0.93750007624221,-0.273611117514765,0.272222225631511,-0.123089343309402,-0.21685716509819,-0.0836885422468185
0,0.92083337364316,-0.238888893369199,0.281944444502361,0.0308486949652433,-0.0540615729987621,-0.200974673032761
0,0.886111173809523,-0.231944458264858,0.305555557893823,0.662483334541321,-0.23304508626461,-0.176540061831474
0,1.02638896227504,-0.25555557165632,0.106944444047242,0.29657506942749,-0.253203630447388,-0.478612929582596
0,1.16666675074056,-0.202777789496344,-0.027777779924251,-2.03754091262817,-0.974330067634583,-1.35642623901367
0,0.93750007624221,-0.268055574293678,0.281944444502361,-1.90131807327271,-1.35612082481384,-0.515264809131622
0,0.94305554652751,-0.227777782615095,0.395833335809908,-0.488997638225555,-2.02257490158081,-0.330172657966614
0,0.962500032893068,-0.13750000469901,0.345833349572405,0.903469681739807,-1.32863187789917,-0.82375180721283
0,1.08472222687628,-0.163888889701015,0.158333334323963,1.19332528114319,-1.81396436691284,-0.374765813350677
0,1.00555558402623,-0.150000007336368,0.0652777787193518,0.826500654220581,-2.03479218482971,0.037568211555481
0,0.945833330294018,-0.166666673467524,0.166666673467524,0.534507095813751,-1.85519778728485,-0.0250454749912024
0,1.0125000434425,-0.17361112072783,0.200000005729836,1.06718158721924,-1.10627698898315,-0.0836885422468185
0,1.06527783775844,-0.162500009973726,0.106944444047242,0.66584312915802,-0.986241936683655,-0.138055548071861
0,1.01666671909226,-0.0652777787193518,-0.0361111129898289,0.415388375520706,-1.22173047065735,-0.235183119773865
0,1.04861113515939,-0.16527778158427,0.0486111125881959,0.30757063627243,-0.133168622851372,0.029626963660121
0,1.04861113515939,-0.16527778158427,0.0486111125881959,0.149051114916802,-0.170125976204872,-0.0427605658769607
0,1.04305556762637,-0.202777789496344,-0.0138888899621255,0.117896988987923,-0.102625362575054,0.0354301854968071
0,1.04305556762637,-0.202777789496344,-0.0138888899621255,0.0201585534960032,0.00488692196086049,0.104457959532738
0,1.04027778385987,-0.154166670830166,-0.033333335301303,0.332005262374878,0.353690981864929,0.178678080439568
0,1.02638896227504,-0.169444445078067,-0.00277777787846293,0.373238652944565,0.201890960335732,0.161879286170006
0,0.987499989543926,-0.156944454596674,0.0250000007162294,0.273056775331497,0.342695415019989,0.117896988987923
0,0.99583334084345,-0.168055565350778,0.0486111125881959,0.261755764484406,-0.0452040284872055,0.0791070461273193
0,1.05000002704265,-0.205555561106887,-0.00138888893923146,0.340862810611725,-0.440128415822983,0.138666406273842
0,1.00972225967599,-0.205555561106887,-0.00833333382532574,0.242513507604599,0.087659165263176,0.183259576559067
0,1.00277780025972,-0.144444451959316,0.0125000003581147,0.23304508626461,0.08460483700037,0.136833816766739
0,1.01388893532575,-0.140277788465518,0.0180555564949145,0.308486938476563,0.0259617734700441,0.090408056974411
0,1.02500007039179,-0.136111112815755,0.00416666691266287,0.152410879731178,-0.209832206368446,-0.00183259579353034
0,1.00694447590948,-0.156944454596674,-0.00555555575692586,0.156076073646545,-0.386677712202072,0.00152716308366507
0,1.0125000434425,-0.179166676104882,-0.0666666706026059,-0.0134390350431204,0.11636982858181,0.0598647929728031
0,1.00138890837647,-0.172222228844576,-0.03194444645704,-0.237626582384109,-0.312763005495071,0.103541657328606
0,0.923611157409668,-0.206944452990142,-0.027777779924251,-0.639881372451782,-0.583681762218475,0.276111096143722
0,1.07222229717471,-0.252777787889811,0.03194444645704,0.127670839428902,-0.160046696662903,0.277332812547684
0,1.00555558402623,-0.169444445078067,-0.0388888906783549,0.300851136445999,0.212275668978691,0.510072469711304
0,0.959722249126559,-0.166666673467524,-0.033333335301303,0.225103840231896,0.221133217215538,0.651487767696381
0,1.07638897282447,-0.211111128639904,-0.00555555575692586,0.399200439453125,0.0861319974064827,0.380874484777451
0,1.07916665934326,-0.216666671860991,0.03194444645704,0.0754418596625328,-0.141720741987228,0.0726929605007172
0,0.998611124609959,-0.216666671860991,0.00277777787846293,0.144469633698463,-0.288022965192795,0.136833816766739
0,0.993055557076942,-0.230555566381603,-0.00277777787846293,0.187841057777405,-0.215635433793068,0.180510684847832
0,0.99583334084345,-0.222222239394008,-0.00972222266958873,0.173791155219078,-0.306043475866318,0.115453533828259
0,0.923611157409668,-0.205555561106887,-0.0166666676506515,0.00549778714776039,-0.08460483700037,0.0510072484612465
0,0.93750007624221,-0.202777789496344,0.00694444498106275,0.0849102661013603,-0.0183259565383196,0.32192599773407
0,0.96666670854283,-0.252777787889811,-0.0708333340964038,0.0601702257990837,0.394008070230484,0.48136180639267
0,1.02222228662528,-0.270833333748257,-0.0208333341834404,0.11636982858181,0.343611687421799,0.487470477819443
0,1.01805561097552,-0.262500006760661,0.0152777788063885,0.283441483974457,0.0540615729987621,0.516486585140228
0,1.00833336779274,-0.259722222994153,0.0152777788063885,-0.00305432616733015,0.175623759627342,0.318566232919693
0,1.00277780025972,-0.279166685047782,-0.029166668768514,0.211053937673569,0.275500237941742,0.550389587879181
0,1.04166667574312,-0.272222225631511,0.00972222266958873,0.22235494852066,0.204028993844986,0.309708684682846
0,1.07361118905796,-0.276388901281273,-0.0152777788063885,0.0992656052112579,0.0033597587607801,0.270918726921081
0,1.07361118905796,-0.276388901281273,-0.0152777788063885,-0.0885754600167274,-0.102319926023483,0.090408056974411
0,0.96666670854283,-0.250000004123303,-0.00972222266958873,-0.0033597587607801,-0.00763581553474069,-0.0656680166721344
0,0.96666670854283,-0.250000004123303,-0.00972222266958873,-0.24342979490757,0.439517557621002,-0.17409659922123
0,0.89722221162784,-0.261111114877407,0.00833333382532574,-0.224187538027763,0.366213709115982,0.29107728600502
0,0.926388941176177,-0.293055555256465,0.00972222266958873,-0.0769690200686455,0.315206468105316,0.515875697135925
0,0.958333357243305,-0.298611122789481,0.0222222230277034,0.0342084541916847,0.107817716896534,0.561079740524292
0,0.99583334084345,-0.334722238818301,0.0430555572111439,0.186924770474434,0.0607810914516449,0.5128213763237
0,1.05833337834217,-0.341666673922643,0.0180555564949145,0.0357356183230877,-0.165849909186363,0.297185927629471
0,1.00972225967599,-0.331944455051793,0.03194444645704,-0.0592539273202419,0.0592539273202419,0.111788339912891
0,1.04861113515939,-0.366666679197359,-0.0208333341834404,0.100181899964809,0.153938040137291,0.0525344125926495
0,1.05833337834217,-0.376388898068209,-0.00277777787846293,0.128587126731873,0.194560587406159,0.0455094613134861
0,1.05833337834217,-0.376388898068209,-0.00277777787846293,-0.0919352173805237,0.0244346093386412,-0.10598511993885
0,0.962500032893068,-0.336111130701556,0.0138888899621255,-0.492968261241913,0.109344877302647,-0.309403240680695
0,0.772222233878117,-0.294444447139719,0.215277779977737,-0.694859206676483,0.0122173046693206,-0.943786799907684
0,0.968055600426084,-0.286111120152123,0.0958333393711199,0.217162594199181,0.162490159273148,-0.573907911777496
0,1.02361117850853,-0.319444452414435,0.0750000036681839,0.288939267396927,-0.0213802829384804,-0.565050363540649
0,1.07222229717471,-0.316666668647927,0.00416666691266287,0.246789559721947,-0.0635299831628799,-0.455705463886261
0,1.07083340529146,-0.279166685047782,0.0222222230277034,0.189368233084679,-0.132863193750381,-0.100792765617371
0,0.96666670854283,-0.25555557165632,0.0388888906783549,0.160352125763893,-0.264810085296631,-0.141109868884087
0,0.96666670854283,-0.25555557165632,0.0388888906783549,0.0320704244077206,-0.440739274024963,-0.207083314657211
0,0.990277773310434,-0.281944444502361,0.052777782159976,-0.0164933614432812,-0.51740288734436,-0.162490159273148
0,0.990277773310434,-0.281944444502361,0.052777782159976,0.152105450630188,-0.096211276948452,-0.13744467496872
0,0.951388897827035,-0.175000000455119,-0.026388891079988,0.182343274354935,0.36041048169136,0.0800233483314514
0,1.01666671909226,-0.266666682410424,0.0388888906783549,-0.0100792767480016,-0.0421497002243996,-0.015577063895762
0,1.0125000434425,-0.268055574293678,0.0250000007162294,-0.0100792767480016,-0.0592539273202419,-0.0946841165423393
0,1.0125000434425,-0.268055574293678,0.0250000007162294,-0.017409659922123,-0.00733038317412138,-0.133168622851372
0,1.0125000434425,-0.268055574293678,0.0250000007162294,-0.0907134860754013,0.00855211354792118,-0.203723564743996
0,0.983333411141879,-0.259722222994153,0.00555555575692586,-0.076052725315094,0.0959058403968811,-0.337197601795196
0,0.983333411141879,-0.259722222994153,0.00555555575692586,0.0870482996106148,0.19058994948864,-0.650571465492249
0,0.958333357243305,-0.197222234119292,0.0361111129898289,0.349720358848572,0.321620553731918,-0.826500654220581
0,0.911111130460381,-0.180555567988136,0.0458333348996699,0.323453158140182,0.355523586273193,-1.30755710601807
0,1.04861113515939,-0.330555563168539,0.0388888906783549,0.385455965995789,0.368657171726227,-1.52716314792633
0,1.01944450285877,-0.20972223675665,0.0361111129898289,0.253203630447388,0.475253164768219,-1.48134827613831
0,1.08194444310977,-0.0819444448505077,0.00972222266958873,0.24862214922905,0.311846703290939,-0.366824567317963
0,1.0694445134082,-0.133333341205212,0.0652777787193518,0.221438646316528,0.189368233084679,-0.0204639863222837
0,1.0333333244436,-0.144444451959316,0.0791666671619817,-0.0616973899304867,-0.18020524084568,-0.00855211354792118
0,1.0333333244436,-0.144444451959316,0.0791666671619817,-0.0497855171561241,-0.144775062799454,0.00366519158706069
0,1.0333333244436,-0.144444451959316,0.0791666671619817,-0.0601702257990837,-0.168598800897598,0.00610865233466029
0,1.03888889197661,-0.125000002061652,0.0486111125881959,0.0439822971820831,-0.11606439948082,-0.0293215326964855
0,1.0305556379248,-0.134722233088466,0.0444444460554069,0.0372627787292004,-0.108428582549095,-0.0601702257990837
0,1.00000001649321,-0.144444451959316,0.0625000010308258,0.116980694234371,-0.078801617026329,-0.106595985591412
0,0.929166724942685,-0.172222228844576,0.0388888906783549,0.104457959532738,-0.0192422550171614,-0.113315500319004
0,0.929166724942685,-0.172222228844576,0.0388888906783549,-0.0183259565383196,0.203112691640854,-0.139582708477974
0,1.02777785415829,-0.151388899219622,-0.0458333348996699,-0.30207285284996,0.392786353826523,-0.0421497002243996
0,0.947222222177272,-0.134722233088466,0.141666668192807,-0.00671951752156019,0.00152716308366507,0.830776751041412
0,0.947222222177272,-0.134722233088466,0.141666668192807,-0.00671951752156019,0.00152716308366507,0.830776751041412
0,0.915277806110144,-0.0583333375370279,0.0583333375370279,-0.0888808965682983,0.0164933614432812,0.768163025379181
0,1.11666674019113,-0.0930555616825939,0.0902777839940679,-0.0778853222727776,0.184175878763199,0.280692577362061
0,1.10972228077486,-0.138888896582264,0.0916666697993398,0.0400116741657257,0.32742378115654,0.0558941699564457
0,1.08055555122652,-0.111111119697004,0.108333335930496,0.170736834406853,0.138055548071861,0.0739146918058395
0,1.02777785415829,-0.112499999424294,0.0916666697993398,0.186008468270302,0.0366519130766392,0.138666406273842
0,1.00416669214298,-0.134722233088466,0.0833333367337618,0.124616511166096,0.00519235478714108,0.134390354156494
0,0.951388897827035,-0.13750000469901,0.0750000036681839,-0.0302378293126821,0.0873537287116051,0.181121543049812
0,0.984722303025134,-0.15555556271342,0.0791666671619817,-0.0500909499824047,0.087659165263176,0.155770644545555
0,0.89166674134254,-0.120833338567854,0.0722222259796579,-0.0940732508897781,0.0891863256692886,0.364381104707718
0,1.00000001649321,-0.180555567988136,0.0819444448505077,-0.081855945289135,-0.00855211354792118,0.47097709774971
0,0.987499989543926,-0.197222234119292,0.0750000036681839,-0.0400116741657257,0.0998764708638191,0.441350132226944
0,1.01944450285877,-0.220833347510754,0.0750000036681839,0.0421497002243996,0.183565005660057,0.32192599773407
0,0.930555616825939,-0.169444445078067,0.0944444474878658,0.00427605677396059,0.08460483700037,0.67683869600296
0,0.94305554652751,-0.177777784221628,0.1194444466846,-0.0928515195846558,-0.05283984541893,0.838107109069824
0,0.94305554652751,-0.177777784221628,0.1194444466846,-0.132557764649391,-0.0033597587607801,0.761138081550598
0,1.05833337834217,-0.279166685047782,0.100000002864918,-0.142026171088219,-0.201280102133751,0.880256831645966
0,1.14027780495873,-0.343055565805897,0.0430555572111439,-0.0128281703218818,0.0109955742955208,0.415388375520706
0,1.14027780495873,-0.343055565805897,0.0430555572111439,0.0519235469400883,0.220216915011406,-0.0390953756868839
0,1.03194452980806,-0.275000009398019,0.101388894748172,0.000916297896765172,-0.188451930880547,0.00580321997404099
0,1.00694447590948,-0.300000014672736,0.0972222251763917,-0.152410879731178,-0.322231411933899,0.0503963828086853
0,1.00694447590948,-0.300000014672736,0.0972222251763917,-0.0244346093386412,-0.259006857872009,0.0222965814173222
0,1.00277780025972,-0.269444466176932,0.104166672436698,-0.154548913240433,-0.72906768321991,0.104152522981167
0,0.986111194908388,-0.241666677135707,0.030555557612777,-0.0592539273202419,-0.675616979598999,0.0305432621389627
0,0.986111194908388,-0.241666677135707,0.030555557612777,-0.245262399315834,-0.522900640964508,-0.0045814891345799
0,0.969444492309338,-0.259722222994153,0.030555557612777,-0.122478485107422,-0.343000829219818,0.0250454749912024
0,0.997222232726705,-0.281944444502361,-0.0111111115138517,-0.0167987942695618,0.0406225398182869,-0.0113010071218014
0,0.997222232726705,-0.281944444502361,-0.0111111115138517,-0.109039448201656,0.552222192287445,-0.113010071218014
0,0.98888888142718,-0.379166681834717,-0.15555556271342,-0.0033597587607801,0.662483334541321,-0.109344877302647
0,1.00416669214298,-0.288888903918631,0.033333335301303,-0.00885754637420177,0.24862214922905,-0.0678060427308083
0,1.00138890837647,-0.272222225631511,0.0944444474878658,-0.0497855171561241,-0.0210748501121998,-0.0580321997404099
0,1.01527782720901,-0.252777787889811,0.0388888906783549,-0.00885754637420177,-0.0537561401724815,-0.017409659922123
0,0.993055557076942,-0.259722222994153,0.0513888902767219,-0.0369573459029198,-0.166155353188515,-0.0360410511493683
0,0.976388951725609,-0.254166679773066,0.0597222233422998,-0.0149661982432008,-0.459676086902618,0.0152716310694814
0,0.987499989543926,-0.276388901281273,0.0500000014324589,-0.0998764708638191,-0.294437050819397,-0.103541657328606
0,0.975000059842355,-0.254166679773066,0.00277777787846293,-0.133779495954514,0.236404851078987,-0.120951317250729
0,1.03888889197661,-0.279166685047782,-0.0138888899621255,-0.0363464802503586,0.213802829384804,-0.0919352173805237
0,1.03194452980806,-0.250000004123303,0.0625000010308258,0.105068825185299,-0.0171042270958424,0.015577063895762
0,0.998611124609959,-0.25555557165632,0.0416666683668809,0.134084925055504,0.255341678857803,-0.0992656052112579
0,1.04166667574312,-0.286111120152123,0.00555555575692586,0.0766635909676552,0.399811297655106,-0.245262399315834
0,1.04166667574312,-0.286111120152123,0.00555555575692586,-0.10598511993885,0.392786353826523,-0.255952537059784
0,1.08472222687628,-0.252777787889811,0.029166668768514,-0.165239050984383,0.191506251692772,-0.335975885391235
0,1.0361111082101,-0.233333350148112,0.0763888894734557,-0.0387899428606033,-0.0470366254448891,-0.553443908691406
0,1.0361111082101,-0.206944452990142,0.0944444474878658,0.0693332031369209,-0.276416510343552,-0.525649547576904
0,0.969444492309338,-0.20138889761309,0.0458333348996699,-0.0583376325666905,-0.155159771442413,-0.22693644464016
0,0.95000000594378,-0.220833347510754,0.0125000003581147,-0.0348193198442459,0.140193566679955,-0.182343274354935
0,0.976388951725609,-0.233333350148112,0.029166668768514,-0.0937678143382072,0.156992360949516,-0.172569438815117
0,0.970833384192592,-0.233333350148112,0.055555559848502,-0.157603234052658,0.0131336031481624,-0.109955742955208
0,0.973611167959101,-0.233333350148112,0.0652777787193518,-0.114537231624126,-0.0937678143382072,-0.0424551330506802
0,1.00972225967599,-0.243055569018962,0.0583333375370279,0.0430659987032413,-0.138666406273842,-0.133779495954514
0,1.02500007039179,-0.233333350148112,0.0777777813567098,0.0299323964864016,-0.419664412736893,-0.433408886194229
0,1.06250005399193,-0.250000004123303,0.00972222266958873,-0.076052725315094,-0.267864406108856,-0.714101493358612
0,1.0361111082101,-0.254166679773066,-0.00555555575692586,0.0901026204228401,0.0943786799907684,-0.702495038509369
0,0.998611124609959,-0.212499996211229,-0.0125000003581147,0.116675265133381,0.183259576559067,-0.668897449970245
0,1.02083339474202,-0.176388892338373,0.03194444645704,0.0635299831628799,0.0894917547702789,-0.553749322891235
0,1.02222228662528,-0.158333334323963,0.0250000007162294,0.0647517144680023,0.0455094613134861,-0.373238652944565
0,0.958333357243305,-0.125000002061652,0.0458333348996699,-0.000916297896765172,-0.172874867916107,-0.229685336351395
0,0.936111184358955,-0.122222230451108,0.0388888906783549,-0.013744467869401,-0.0971275717020035,-0.134390354156494
0,0.888888957576031,-0.134722233088466,0.033333335301303,0.197004035115242,0.157908663153648,-0.547335267066956
0,0.933333400592447,-0.13750000469901,0.0583333375370279,0.154548913240433,-0.160046696662903,-0.506712734699249
0,1.0125000434425,-0.141666668192807,0.0583333375370279,0.202807262539864,-0.288328409194946,-0.663705110549927
0,1.01388893532575,-0.0652777787193518,0.0805555590452358,0.262977480888367,-0.482888966798782,-0.893695831298828
0,1.06388894587519,-0.0638888929140799,0.0388888906783549,0.0956004112958908,-0.510988771915436,-0.63896507024765
0,1.08611111875954,-0.0513888902767219,0.0388888906783549,-0.0106901414692402,-0.359188765287399,-0.108123145997524
0,1.09166668629255,-0.0513888902767219,-0.00972222266958873,0.176540061831474,-0.172874867916107,-0.0167987942695618
0,1.06388894587519,-0.033333335301303,-0.0125000003581147,0.297491371631622,-0.113010071218014,0.172874867916107
0,0.98888888142718,-0.0388888906783549,0.0194444453391775,0.192422553896904,-0.180510684847832,0.370184332132339
0,1.02222228662528,-0.0444444460554069,-0.0583333375370279,-0.0589484944939613,0.191200822591782,0.412334054708481
0,1.0694445134082,-0.112499999424294,-0.0388888906783549,0.309097826480865,0.641713917255402,0.289855569601059
0,1.11805563207438,-0.123611110178398,0.0166666676506515,0.359188765287399,0.428216546773911,0.112399205565453
0,1.00972225967599,-0.106944444047242,0.0472222237439329,0.106595985591412,0.260839462280273,-0.0100792767480016
0,0.984722303025134,-0.166666673467524,-0.113888891307548,-0.4544837474823,0.801149785518646,-0.142942473292351
0,1.00138890837647,-0.0875000002275597,0.0472222237439329,0.0222965814173222,0.838412523269653,-0.0140499006956816
0,1.05277781080915,-0.0722222259796579,0.101388894748172,0.0531452745199203,0.318566232919693,0.112399205565453
0,1.0125000434425,-0.0736111117849297,0.126388893944906,0.11117747426033,-0.0693332031369209,0.177150920033455
0,0.93750007624221,-0.0486111125881959,0.0458333348996699,0.131641462445259,0.232128798961639,0.239153742790222
0,1.00138890837647,-0.123611110178398,0.0750000036681839,0.120645888149738,0.295353353023529,0.150883719325066
0,1.0125000434425,-0.120833338567854,0.0986111170596459,0.00885754637420177,0.0192422550171614,0.0736092627048492
0,1.04027778385987,-0.113888891307548,0.0847222225390337,0.000610865245107561,-0.261144906282425,0.0705549344420433
0,1.05833337834217,-0.120833338567854,0.0722222259796579,-0.109955742955208,-0.194560587406159,0.00671951752156019
0,1.03194452980806,-0.118055554801345,0.055555559848502,-0.108428582549095,-0.167682513594627,0.0171042270958424
0,0.987499989543926,-0.161111118090472,0.033333335301303,-0.0736092627048492,0.131641462445259,0.0534507073462009
0,1.00277780025972,-0.140277788465518,0.0416666683668809,-0.0665843114256859,0.278859972953796,0.000916297896765172
0,0.984722303025134,-0.136111112815755,0.0416666683668809,-0.103847093880177,0.226631000638008,0.109650313854218
0,0.980555627375371,-0.111111119697004,0.120833338567854,0.00122173049021512,-0.164322748780251,0.255341678857803
0,0.973611167959101,-0.125000002061652,0.133333341205212,0.0821613743901253,-0.430660009384155,0.364075690507889
0,0.962500032893068,-0.136111112815755,0.0944444474878658,-0.0308486949652433,-0.609948933124542,0.541532039642334
0,0.890277849459286,-0.15555556271342,0.0861111144222878,-0.0922406539320946,-0.860403716564178,0.784045517444611
0,0.933333400592447,-0.16527778158427,-0.00694444498106275,-0.263282924890518,-0.213191971182823,0.929736912250519
0,1.09861114570882,-0.158333334323963,0.0388888906783549,-0.179288953542709,-0.311846703290939,0.821002900600433
0,1.10416671324184,-0.190277786858986,0.0472222237439329,0.126449108123779,-0.245567828416824,0.67683869600296
0,1.06250005399193,-0.236111109602691,-0.0111111115138517,0.126143679022789,0.275194793939591,0.491746515035629
0,0.94305554652751,-0.238888893369199,0.0361111129898289,0.104152522981167,0.218384325504303,0.432798027992248
0,1.04166667574312,-0.212499996211229,0.026388891079988,0.0980438739061356,0.245567828416824,0.239764615893364
0,1.00972225967599,-0.222222239394008,0.0430555572111439,0.208305045962334,0.232128798961639,-0.521678924560547
0,1.10972228077486,-0.236111109602691,0.0361111129898289,0.142942473292351,0.295047909021378,-0.671035468578339
0,1.0361111082101,-0.227777782615095,0.055555559848502,0.0784961804747581,0.214719131588936,-0.620333671569824
0,1.09305557817581,-0.280555576931036,-0.0222222230277034,0.125227376818657,0.383623361587524,-0.541226625442505
0,1.09583336194232,-0.234722242031366,0.0791666671619817,0.19578230381012,0.187535628676414,-0.345749735832214
0,1.00555558402623,-0.2194444556275,0.052777782159976,0.0861319974064827,0.347276896238327,-0.404392778873444
0,0.986111194908388,-0.181944447715425,0.0916666697993398,0.0595593601465225,0.469449937343597,-0.495411723852158
0,0.980555627375371,-0.150000007336368,0.0930555616825939,-0.0516181141138077,0.377514719963074,-0.53969943523407
0,0.93750007624221,-0.108333335930496,0.0958333393711199,-0.0736092627048492,0.23243422806263,-0.299323976039886
0,1.02916674604155,-0.134722233088466,0.12777778582816,0.0754418596625328,0.138055548071861,-0.263893783092499
0,0.952777789710289,-0.12777778582816,0.0944444474878658,-0.0592539273202419,0.188451930880547,-0.0299323964864016
0,1.08750001064279,-0.115277783190802,0.123611110178398,-0.0833831056952477,0.0952949747443199,-0.122783914208412
0,1.08611111875954,-0.113888891307548,0.113888891307548,0.000610865245107561,0.0754418596625328,-0.0842994004487991
0,1.0361111082101,-0.134722233088466,0.108333335930496,0.102930791676045,0.0729983970522881,-0.0171042270958424
0,1.03194452980806,-0.133333341205212,0.0861111144222878,-0.0357356183230877,0.122478485107422,0.0241291765123606
0,1.01944450285877,-0.130555557438704,0.113888891307548,-0.128281697630882,0.0870482996106148,-0.00152716308366507
0,1.01388893532575,-0.131944449321958,0.126388893944906,-0.0592539273202419,0.070249505341053,-0.00733038317412138
0,1.01388893532575,-0.136111112815755,0.116666675074056,-0.0387899428606033,0.112399205565453,0.0351247526705265
0,1.01666671909226,-0.123611110178398,0.13750000469901,0.00702495034784079,0.144164204597473,0.0882700309157372
0,1.01666671909226,-0.123611110178398,0.13750000469901,-0.0280998013913631,0.208305045962334,0.107817716896534
0,1.00277780025972,-0.14722222356986,0.126388893944906,-0.122478485107422,0.0946841165423393,0.101709060370922
0,1.01805561097552,-0.14722222356986,0.1194444466846,-0.0833831056952477,0.00824668072164059,-0.0164933614432812
0,1.01805561097552,-0.14722222356986,0.1194444466846,-0.0571159012615681,-0.0442877300083637,-0.00977384392172098
0,1.02638896227504,-0.13750000469901,0.134722233088466,-0.0833831056952477,0.0464257597923279,0.0106901414692402
0,1.0125000434425,-0.134722233088466,0.136111112815755,-0.0308486949652433,0.0329867228865623,0.0626136884093285
0,1.0125000434425,-0.134722233088466,0.136111112815755,0.0293215326964855,-0.0366519130766392,0.0161879286170006
0,1.00416669214298,-0.148611115453114,0.126388893944906,-0.0140499006956816,-0.0943786799907684,-0.0772744566202164
0,1.00138890837647,-0.125000002061652,0.10972222781375,-0.187841057777405,-0.0555887371301651,-0.0910189226269722
0,1.00138890837647,-0.125000002061652,0.10972222781375,-0.148134827613831,0.0534507073462009,-0.0271835029125214
0,1.02361117850853,-0.122222230451108,0.151388899219622,0.0320704244077206,0.13744467496872,0.00733038317412138
0,1.0361111082101,-0.14722222356986,0.154166670830166,0.0928515195846558,0.0351247526705265,0.00824668072164059
0,1.01944450285877,-0.154166670830166,0.143055560076062,-0.00702495034784079,-0.0897971913218498,0.0210748501121998
0,1.00972225967599,-0.14722222356986,0.120833338567854,-0.0791070461273193,-0.0149661982432008,0.00824668072164059
0,1.02916674604155,-0.131944449321958,0.118055554801345,0.0262672062963247,0.0424551330506802,-0.027488935738802
0,1.01111115155925,-0.143055560076062,0.141666668192807,0.19028452038765,-0.0287106670439243,-0.00671951752156019
0,1.00555558402623,-0.163888889701015,0.14722222356986,0.204945296049118,-0.111788339912891,0.0253509078174829
0,1.00416669214298,-0.168055565350778,0.113888891307548,0.0705549344420433,-0.113010071218014,0.0219911485910416
0,1.00555558402623,-0.140277788465518,0.10972222781375,-0.0372627787292004,-0.0027488935738802,0.0021380283869803
0,1.03888889197661,-0.130555557438704,0.104166672436698,-0.0021380283869803,-0.021685715764761,-0.0510072484612465
0,1.03750000009336,-0.15555556271342,0.0972222251763917,-0.0198531206697226,0.0329867228865623,-0.156992360949516
0,1.00416669214298,-0.14722222356986,0.1194444466846,0.0146607663482428,0.0143553335219622,-0.159130394458771
0,1.00000001649321,-0.123611110178398,0.122222230451108,0.0479529201984406,-0.0705549344420433,-0.0491746515035629
0,1.0361111082101,-0.120833338567854,0.108333335930496,0.0729983970522881,-0.0842994004487991,0.0384845100343227
0,1.02916674604155,-0.130555557438704,0.133333341205212,0.210443079471588,-0.134695783257484,0.0335975885391235
0,1.01527782720901,-0.150000007336368,0.111111119697004,0.0748309940099716,-0.0913243517279625,-0.015577063895762
0,0.998611124609959,-0.12916666555545,0.126388893944906,0.172569438815117,-0.186008468270302,0.0455094613134861
0,1.0125000434425,-0.111111119697004,0.104166672436698,0.013744467869401,-0.0186313893646002,0.0568104684352875
0,1.00416669214298,-0.101388894748172,0.120833338567854,0.235183119773865,-0.283441483974457,0.114842668175697
0,1.04583335139288,-0.118055554801345,0.123611110178398,0.18020524084568,0.138666406273842,0.0986547395586967
0,1.05555559457566,-0.120833338567854,0.0833333367337618,-0.281914323568344,0.162184715270996,0.0601702257990837
0,0.99583334084345,-0.130555557438704,0.100000002864918,-0.218078896403313,0.171347707509995,-0.00977384392172098
0,0.979166735492117,-0.140277788465518,0.122222230451108,-0.155770644545555,0.0531452745199203,0.01191187184304
0,0.983333411141879,-0.136111112815755,0.133333341205212,0.03176499158144,-0.0748309940099716,0.0500909499824047
0,0.993055557076942,-0.131944449321958,0.130555557438704,0.0720821022987366,-0.0577267669141293,0.0500909499824047
0,1.08055555122652,-0.150000007336368,0.0652777787193518,-0.267253547906876,0.0968221426010132,-0.109344877302647
0,1.08055555122652,-0.156944454596674,0.0958333393711199,-0.29046642780304,0.267864406108856,-0.142026171088219
0,0.979166735492117,-0.152777778946911,0.136111112815755,-0.0653625801205635,0.102319926023483,-0.0757472887635231
0,0.99583334084345,-0.130555557438704,0.120833338567854,-0.0363464802503586,0.0271835029125214,-0.0836885422468185
0,1.01388893532575,-0.143055560076062,0.0944444474878658,-0.0873537287116051,-0.103236228227615,-0.116675265133381
0,1.02361117850853,-0.15555556271342,0.106944444047242,-0.0357356183230877,-0.116980694234371,-0.136528387665749
0,1.02361117850853,-0.148611115453114,0.120833338567854,0.0378736443817616,0.00580321997404099,-0.0595593601465225
0,1.01111115155925,-0.131944449321958,0.116666675074056,0.0458148941397667,0.00763581553474069,0.00183259579353034
0,1.01666671909226,-0.118055554801345,0.104166672436698,-0.0629191175103188,0.0113010071218014,0.0369573459029198
0,1.01944450285877,-0.1194444466846,0.0986111170596459,-0.102625362575054,-0.0580321997404099,0.0366519130766392
0,1.03888889197661,-0.136111112815755,0.143055560076062,-0.0210748501121998,0.0210748501121998,-0.0241291765123606
0,1.00277780025972,-0.14722222356986,0.14583334384257,0.0500909499824047,0.0219911485910416,-0.0186313893646002
0,0.997222232726705,-0.14583334384257,0.125000002061652,0.0827722400426865,-0.0235183127224445,-0.0152716310694814
0,1.00277780025972,-0.125000002061652,0.12777778582816,0.0794124826788902,-0.131641462445259,0.0247400421649218
0,1.01666671909226,-0.118055554801345,0.115277783190802,0.126143679022789,-0.114842668175697,0.0598647929728031
0,1.00694447590948,-0.111111119697004,0.118055554801345,0.134695783257484,-0.0812450796365738,0.106290549039841
0,1.01944450285877,-0.12777778582816,0.12777778582816,0.1750128865242,-0.0772744566202164,0.122173048555851
0,1.04583335139288,-0.143055560076062,0.12777778582816,0.22174409031868,-0.0021380283869803,0.0519235469400883
0,1.0361111082101,-0.136111112815755,0.0972222251763917,0.170736834406853,-0.0592539273202419,0.0714712366461754
0,1.0361111082101,-0.125000002061652,0.10972222781375,-0.0500909499824047,-0.178067222237587,0.0803287774324417
0,1.03472221632685,-0.134722233088466,0.141666668192807,0.0565050356090069,-0.17409659922123,0.111482910811901
0,1.05277781080915,-0.12777778582816,0.1194444466846,0.0821613743901253,-0.0149661982432008,0.0574213340878487
0,1.01805561097552,-0.12777778582816,0.113888891307548,0.05283984541893,0.00733038317412138,0.154548913240433
0,0.938888968125464,-0.152777778946911,0.156944454596674,0.0656680166721344,-0.0027488935738802,-0.0106901414692402
0,0.944444438410764,-0.131944449321958,0.158333334323963,0.265115529298782,0.0427605658769607,-0.131641462445259
0,0.944444438410764,-0.131944449321958,0.158333334323963,-0.0284052342176437,-0.0222965814173222,0.0763581544160843
0,1.0333333244436,-0.12777778582816,0.101388894748172,0.0797179117798805,0.0638354197144508,0.00244346098043024
0,1.01527782720901,-0.136111112815755,0.101388894748172,-0.0351247526705265,-0.00855211354792118,-0.0186313893646002
0,1.01527782720901,-0.136111112815755,0.101388894748172,-0.135612085461616,0.0412334054708481,0.0867428630590439
0,0.987499989543926,-0.15555556271342,0.150000007336368,0.0290160998702049,0.0232128798961639,-0.00702495034784079
0,1.00277780025972,-0.150000007336368,0.0847222225390337,-0.00580321997404099,-0.0192422550171614,-0.0561996027827263
0,1.00277780025972,-0.150000007336368,0.0847222225390337,-0.0830776765942574,-0.0113010071218014,-0.0345138870179653
0,1.02916674604155,-0.144444451959316,0.0930555616825939,-0.0348193198442459,0.0164933614432812,-0.00946841109544039
0,1.01111115155925,-0.138888896582264,0.0916666697993398,0.0128281703218818,0.021685715764761,0.0149661982432008
0,1.01111115155925,-0.138888896582264,0.0916666697993398,0.0250454749912024,0.03176499158144,0.0723875313997269
0,1.02777785415829,-0.143055560076062,0.0708333340964038,-0.0824668109416962,0.0256563406437635,-0.113620936870575
0,1.01805561097552,-0.161111118090472,0.0819444448505077,0.133779495954514,-0.00427605677396059,0.0968221426010132
0,1.01805561097552,-0.161111118090472,0.0819444448505077,0.0815505087375641,0.0519235469400883,-0.0626136884093285
0,1.00138890837647,-0.14583334384257,0.0972222251763917,0.0745255574584007,0.0265726372599602,0.0821613743901253
0,1.00555558402623,-0.118055554801345,0.0875000002275597,0.015577063895762,0.0711658000946045,0.0491746515035629
0,1.05833337834217,-0.179166676104882,0.111111119697004,-0.0219911485910416,0.098960168659687,-0.0720821022987366
0,1.01527782720901,-0.134722233088466,0.106944444047242,-0.0849102661013603,0.0226020142436027,0.0265726372599602
0,0.968055600426084,-0.150000007336368,0.12777778582816,-0.0766635909676552,-0.16951510310173,0.114842668175697
0,0.976388951725609,-0.16527778158427,0.269444466176932,0.211053937673569,-0.120340451598167,-0.205556154251099
0,1.03194452980806,-0.190277786858986,0.163888889701015,0.11087204515934,-0.139888137578964,-0.0262672062963247
0,1.0305556379248,-0.163888889701015,0.106944444047242,0.161268427968025,-0.04764748737216,0.0580321997404099
0,1.00277780025972,-0.144444451959316,0.0791666671619817,0.0363464802503586,0.0232128798961639,0.0714712366461754
0,1.04861113515939,-0.158333334323963,0.104166672436698,0.249538451433182,0.135306656360626,0.019547687843442
0,0.938888968125464,-0.177777784221628,0.0430555572111439,-0.0653625801205635,-0.0675006061792374,-0.0113010071218014
0,1.04305556762637,-0.134722233088466,0.14722222356986,-0.0965167060494423,-0.392175495624542,-0.0516181141138077
0,0.968055600426084,-0.126388893944906,0.104166672436698,-0.149661988019943,-0.282830595970154,-0.0357356183230877
0,1.02777785415829,-0.113888891307548,0.055555559848502,-0.156076073646545,0.157603234052658,-0.0259617734700441
0,1.05833337834217,-0.102777780553444,0.0972222251763917,-0.0525344125926495,0.0925460830330849,-0.027488935738802
0,1.00000001649321,-0.13750000469901,0.0750000036681839,-0.107512280344963,0.358577907085419,0.0021380283869803
0,1.02083339474202,-0.144444451959316,0.0819444448505077,-0.211970239877701,0.209832206368446,0.0448985956609249
0,0.99583334084345,-0.133333341205212,0.140277788465518,0.128281697630882,0.157603234052658,0.0186313893646002
0,1.03888889197661,-0.14583334384257,0.113888891307548,0.125838235020638,0.0812450796365738,0.0540615729987621
0,1.04027778385987,-0.152777778946911,0.116666675074056,0.0287106670439243,0.0742201283574104,-0.0369573459029198
0,1.00000001649321,-0.170833336961321,0.100000002864918,-0.0913243517279625,0.17470745742321,-0.0384845100343227
0,0.997222232726705,-0.154166670830166,0.116666675074056,-0.0577267669141293,0.0620028227567673,-0.0311541277915239
0,1.00277780025972,-0.151388899219622,0.104166672436698,-0.0638354197144508,0.167377084493637,-0.000610865245107561
0,1.06250005399193,-0.140277788465518,0.108333335930496,0.00397062394768,0.141109868884087,-0.0232128798961639
0,1.01527782720901,-0.136111112815755,0.125000002061652,0.0726929605007172,0.0739146918058395,0.0021380283869803
0,1.01666671909226,-0.152777778946911,0.13750000469901,0.0122173046693206,-0.0687223374843597,-0.017409659922123
0,1.00555558402623,-0.136111112815755,0.193055558469529,-0.115148097276688,0.135001212358475,0.00549778714776039
0,1.01388893532575,-0.12777778582816,0.100000002864918,-0.148440256714821,0.0616973899304867,-0.0400116741657257
0,1.02222228662528,-0.130555557438704,0.115277783190802,-0.15332718193531,0.0604756586253643,-0.0491746515035629
0,1.03888889197661,-0.166666673467524,0.108333335930496,-0.0827722400426865,0.0372627787292004,-0.00824668072164059
0,1.02500007039179,-0.141666668192807,0.1194444466846,-0.0772744566202164,-0.0171042270958424,-0.0140499006956816
0,1.00833336779274,-0.144444451959316,0.105555564319952,-0.11117747426033,-0.119729585945606,-0.0207694191485643
0,1.01805561097552,-0.143055560076062,0.122222230451108,-0.130419731140137,-0.0952949747443199,-0.0415388382971287
0,1.00694447590948,-0.141666668192807,0.115277783190802,-0.150883719325066,-0.118507854640484,-0.0339030213654041
0,1.00000001649321,-0.133333341205212,0.108333335930496,-0.154243469238281,-0.224187538027763,-0.00671951752156019
0,1.00972225967599,-0.14722222356986,0.0972222251763917,-0.314595609903336,-0.22693644464016,-0.0766635909676552
0,1.00277780025972,-0.150000007336368,0.116666675074056,-0.159435823559761,-0.289244681596756,-0.0497855171561241
0,1.02361117850853,-0.170833336961321,0.108333335930496,-0.076052725315094,-0.278249114751816,-0.0357356183230877
0,1.12222230772414,-0.140277788465518,0.118055554801345,0.146302223205566,-0.0754418596625328,0.00763581553474069
0,1.00694447590948,-0.120833338567854,0.0722222259796579,-0.0830776765942574,-0.160962998867035,0.0284052342176437
0,0.99583334084345,-0.130555557438704,0.0944444474878658,-0.0131336031481624,-0.127670839428902,0.0378736443817616
0,1.0125000434425,-0.14722222356986,0.123611110178398,0.0503963828086853,-0.0946841165423393,0.0690277740359306
0,1.02500007039179,-0.154166670830166,0.113888891307548,0.107817716896534,-0.00366519158706069,0.0736092627048492
0,1.0361111082101,-0.151388899219622,0.100000002864918,0.0705549344420433,0.0775798857212067,0.0574213340878487
0,1.00555558402623,-0.141666668192807,0.0777777813567098,0.146607652306557,0.0177150927484035,0.0424551330506802
0,0.977777843608863,-0.151388899219622,0.0722222259796579,0.104763388633728,-0.11087204515934,0.0183259565383196
0,1.00833336779274,-0.144444451959316,0.0888888921108138,0.0995710343122482,-0.0983493030071259,0.00671951752156019
0,1.01666671909226,-0.14722222356986,0.0819444448505077,0.109955742955208,-0.0369573459029198,-0.0122173046693206
0,1.00277780025972,-0.14583334384257,0.0944444474878658,0.203418120741844,-0.0623082555830479,-0.00855211354792118
0,1.01944450285877,-0.13750000469901,0.0944444474878658,0.325285732746124,-0.0723875313997269,0.0565050356090069
0,1.05000002704265,-0.14722222356986,0.0777777813567098,0.289855569601059,-0.0186313893646002,0.0607810914516449
0,1.0361111082101,-0.14722222356986,0.0986111170596459,0.254730820655823,-0.0171042270958424,0.0192422550171614
0,1.02916674604155,-0.15555556271342,0.0916666697993398,0.207388743758202,0.0351247526705265,0.0497855171561241
0,1.04444445950963,-0.14722222356986,0.0888888921108138,0.0372627787292004,0.200669229030609,0.0467311926186085
0,1.06527783775844,-0.154166670830166,0.101388894748172,-0.00122173049021512,0.387288570404053,-0.00610865233466029
0,1.0513889189259,-0.113888891307548,0.104166672436698,-0.108428582549095,0.539394021034241,-0.102014496922493
0,0.962500032893068,-0.150000007336368,0.131944449321958,-0.144469633698463,-0.0335975885391235,-0.019547687843442
0,0.99583334084345,-0.154166670830166,0.126388893944906,-0.0629191175103188,0.0436768643558025,-0.019547687843442
0,1.01111115155925,-0.158333334323963,0.118055554801345,-0.0626136884093285,0.0329867228865623,-0.0204639863222837
0,1.00833336779274,-0.15555556271342,0.122222230451108,-0.0650571510195732,0.0452040284872055,-0.0308486949652433
0,1.00555558402623,-0.154166670830166,0.12777778582816,-0.0497855171561241,0.0366519130766392,-0.019547687843442
0,1.00555558402623,-0.150000007336368,0.108333335930496,-0.0320704244077206,0.0360410511493683,-0.0106901414692402
0,1.01666671909226,-0.143055560076062,0.118055554801345,-0.029626963660121,0.0342084541916847,-0.00580321997404099
0,1.00277780025972,-0.152777778946911,0.122222230451108,-0.0229074470698834,-0.0409279726445675,-0.00122173049021512
0,1.00277780025972,-0.166666673467524,0.12777778582816,0.115148097276688,-0.0812450796365738,0.0161879286170006
0,1.0125000434425,-0.156944454596674,0.108333335930496,0.102014496922493,-0.0812450796365738,-0.000610865245107561
0,0.973611167959101,-0.163888889701015,0.00416666691266287,-0.238848313689232,-0.109650313854218,-0.00244346098043024
0,1.02500007039179,-0.154166670830166,0.0777777813567098,0.132557764649391,-0.021685715764761,0.0427605658769607
0,1.0305556379248,-0.14722222356986,0.101388894748172,-0.0366519130766392,0.0171042270958424,-0.00824668072164059
0,1.02916674604155,-0.130555557438704,0.0944444474878658,-0.0995710343122482,0.0956004112958908,-0.0204639863222837
0,1.02500007039179,-0.130555557438704,0.116666675074056,-0.0604756586253643,0.148745685815811,0.00427605677396059
0,1.02500007039179,-0.130555557438704,0.116666675074056,-0.0284052342176437,0.164933621883392,0.0256563406437635
0,1.01111115155925,-0.163888889701015,0.108333335930496,-0.0201585534960032,0.194866016507149,-0.00733038317412138
0,0.991666665193688,-0.161111118090472,0.111111119697004,-0.0421497002243996,0.139888137578964,-0.0235183127224445
0,0.991666665193688,-0.161111118090472,0.111111119697004,-0.0671951770782471,0.0827722400426865,-0.00549778714776039
0,1.00416669214298,-0.180555567988136,0.101388894748172,-0.0400116741657257,0.103541657328606,0.00610865233466029
0,1.01111115155925,-0.206944452990142,0.101388894748172,0.0192422550171614,0.120951317250729,0.0232128798961639
0,1.01111115155925,-0.206944452990142,0.101388894748172,0.0299323964864016,0.136528387665749,0.0305432621389627
0,1.01666671909226,-0.206944452990142,0.111111119697004,-0.0161879286170006,0.204639852046967,0.0253509078174829
0,1.00555558402623,-0.20972223675665,0.10972222781375,0.00183259579353034,0.197614908218384,0.0491746515035629
0,1.00555558402623,-0.20972223675665,0.10972222781375,-0.0400116741657257,0.183259576559067,0.0577267669141293
0,1.0125000434425,-0.212499996211229,0.1194444466846,0.0253509078174829,0.140804439783096,0.0513126812875271
0,0.99583334084345,-0.179166676104882,0.131944449321958,0.0314595587551594,0.0986547395586967,0.0574213340878487
0,0.99583334084345,-0.179166676104882,0.122222230451108,-0.0671951770782471,0.131030589342117,0.0381790772080422
0,1.00138890837647,-0.17361112072783,0.14722222356986,0.0161879286170006,0.0968221426010132,0.0406225398182869
0,1.00000001649321,-0.166666673467524,0.156944454596674,0.0351247526705265,0.0580321997404099,0.0381790772080422
0,1.00277780025972,-0.158333334323963,0.15555556271342,-0.000305432622553781,0.0507018156349659,0.0149661982432008
0,1.00277780025972,-0.116666675074056,0.134722233088466,-0.0397062413394451,0.0329867228865623,0.00152716308366507
0,1.00555558402623,-0.104166672436698,0.138888896582264,-0.0943786799907684,0.00610865233466029,-0.0177150927484035
0,1.00972225967599,-0.0916666697993398,0.13750000469901,-0.162795588374138,0.0192422550171614,-0.0439822971820831
0,1.02916674604155,-0.0750000036681839,0.148611115453114,-0.172263994812965,-0.0394008085131645,-0.0623082555830479
0,1.02500007039179,-0.0652777787193518,0.130555557438704,-0.183870434761047,-0.0699440687894821,-0.0699440687894821
0,1.01805561097552,-0.0611111152255539,0.131944449321958,-0.175929188728332,-0.106290549039841,-0.0937678143382072
0,1.01944450285877,-0.0458333348996699,0.12916666555545,-0.149356558918953,-0.111482910811901,-0.0916297882795334
0,1.03194452980806,-0.0500000014324589,0.122222230451108,-0.0998764708638191,-0.0885754600167274,-0.102930791676045
0,1.02222228662528,-0.0416666683668809,0.123611110178398,-0.0803287774324417,-0.0717766657471657,-0.108428582549095
0,1.01944450285877,-0.0347222241455659,0.118055554801345,-0.106901414692402,-0.0800233483314514,-0.0980438739061356
0,1.02500007039179,-0.026388891079988,0.0902777839940679,-0.159130394458771,-0.0980438739061356,-0.0806342139840126
0,1.04166667574312,-0.0388888906783549,0.0930555616825939,-0.222965821623802,-0.0870482996106148,-0.0595593601465225
0,1.0361111082101,-0.0652777787193518,0.0861111144222878,-0.272140473127365,-0.098960168659687,-0.0455094613134861
0,1.03194452980806,-0.0750000036681839,0.0916666697993398,-0.304821759462357,-0.106290549039841,-0.0372627787292004
0,1.02222228662528,-0.0833333367337618,0.0958333393711199,-0.32284227013588,-0.10567969083786,-0.0027488935738802
0,1.00277780025972,-0.105555564319952,0.112499999424294,-0.29657506942749,-0.0607810914516449,0.0128281703218818
0,0.994444448960196,-0.12777778582816,0.12777778582816,-0.200058370828629,-0.0219911485910416,0.0549778714776039
0,0.991666665193688,-0.104166672436698,0.140277788465518,-0.137750118970871,-0.0122173046693206,0.107512280344963
0,1.00416669214298,-0.0708333340964038,0.112499999424294,-0.168598800897598,0.000916297896765172,0.141415297985077
0,1.0125000434425,-0.0583333375370279,0.0902777839940679,-0.218384325504303,-0.00610865233466029,0.178678080439568
0,1.03194452980806,-0.0736111117849297,0.0902777839940679,-0.235488548874855,0.000610865245107561,0.200669229030609
0,1.03472221632685,-0.101388894748172,0.0750000036681839,-0.222660377621651,-0.0329867228865623,0.195171445608139
0,1.05277781080915,-0.195833342236038,0.052777782159976,-0.330172657966614,-0.0959058403968811,0.0290160998702049
0,1.06250005399193,-0.252777787889811,0.0750000036681839,-0.142942473292351,-0.145996794104576,-0.087659165263176
0,1.0361111082101,-0.233333350148112,0.055555559848502,0.0268780700862408,-0.176845490932465,-0.0888808965682983
0,1.00694447590948,-0.194444450352783,0.0486111125881959,0.231517925858498,-0.119729585945606,-0.0109955742955208
0,1.00000001649321,-0.179166676104882,0.0652777787193518,0.344222575426102,-0.10048733651638,0.0397062413394451
0,1.00555558402623,-0.143055560076062,0.0916666697993398,0.387288570404053,-0.0626136884093285,0.0629191175103188
0,1.0125000434425,-0.12916666555545,0.0972222251763917,0.367740869522095,-0.0681114718317986,0.0589484944939613
0,1.00555558402623,-0.12777778582816,0.111111119697004,0.366824567317963,-0.100792765617371,0.0620028227567673
0,1.02083339474202,-0.162500009973726,0.0986111170596459,0.36987891793251,-0.109344877302647,0.0763581544160843
0,1.03194452980806,-0.184722231481934,0.0708333340964038,0.338113903999329,-0.118507854640484,0.0534507073462009
0,1.02916674604155,-0.193055558469529,0.0638888929140799,0.318260788917542,-0.108734011650086,0.0271835029125214
0,1.02500007039179,-0.202777789496344,0.0680555564078778,0.32284227013588,-0.11117747426033,0.037568211555481
0,1.01944450285877,-0.195833342236038,0.0638888929140799,0.332310706377029,-0.114842668175697,0.0546724386513233
0,1.01111115155925,-0.17361112072783,0.0625000010308258,0.339335650205612,-0.118507854640484,0.100792765617371
0,1.00138890837647,-0.16527778158427,0.0625000010308258,0.294131606817245,-0.130114302039146,0.100181899964809
0,1.00833336779274,-0.166666673467524,0.0708333340964038,0.263893783092499,-0.123394779860973,0.0864374339580536
0,1.01527782720901,-0.180555567988136,0.0680555564078778,0.253814518451691,-0.121256753802299,0.0754418596625328
0,1.01527782720901,-0.187500003092477,0.0666666706026059,0.266948103904724,-0.109039448201656,0.0629191175103188
0,1.01111115155925,-0.19166667874224,0.0597222233422998,0.299323976039886,-0.0934623852372169,0.0653625801205635
0,1.01388893532575,-0.184722231481934,0.0486111125881959,0.287717521190643,-0.090408056974411,0.0708603709936142
0,1.0125000434425,-0.175000000455119,0.0486111125881959,0.262672066688538,-0.070249505341053,0.0604756586253643
0,1.01111115155925,-0.166666673467524,0.0472222237439329,0.213191971182823,-0.0574213340878487,0.0675006061792374
0,1.00833336779274,-0.176388892338373,0.033333335301303,0.161879286170006,-0.0488692186772823,0.0360410511493683
0,1.00833336779274,-0.184722231481934,0.0444444460554069,0.12156218290329,-0.0455094613134861,0.019547687843442
0,1.0125000434425,-0.19166667874224,0.033333335301303,0.0452040284872055,-0.0201585534960032,0.01191187184304
0,1.00277780025972,-0.190277786858986,0.0458333348996699,0.0452040284872055,-0.0366519130766392,0.00763581553474069
0,1.00555558402623,-0.20138889761309,0.0250000007162294,0.0342084541916847,-0.0222965814173222,-0.00244346098043024
0,1.03194452980806,-0.2194444556275,0.0375000018340919,0.0143553335219622,0.0360410511493683,-0.019547687843442
0,1.02916674604155,-0.20972223675665,0.0513888902767219,0.0109955742955208,0.0537561401724815,-0.0140499006956816
0,1.0125000434425,-0.20972223675665,0.0583333375370279,0.0152716310694814,0.0329867228865623,-0.0131336031481624
5,1.01111115155925,-0.212499996211229,0.0750000036681839,0.0720821022987366,0.0268780700862408,0.0198531206697226
5,1.01944450285877,-0.208333344873396,0.0708333340964038,0.0632245540618896,0.0378736443817616,0.04764748737216
5,1.02916674604155,-0.212499996211229,0.0652777787193518,0.0733038261532784,0.0452040284872055,0.0513126812875271
5,1.04444445950963,-0.213888888094483,0.108333335930496,0.0598647929728031,0.112093769013882,0.0574213340878487
5,1.01111115155925,-0.212499996211229,0.134722233088466,0.130419731140137,0.152410879731178,0.0589484944939613
5,0.973611167959101,-0.190277786858986,0.170833336961321,0.156992360949516,0.149661988019943,0.0280998013913631
5,0.965277816659576,-0.180555567988136,0.18333333959868,0.0849102661013603,0.13744467496872,-0.0256563406437635
5,1.00000001649321,-0.18333333959868,0.197222234119292,-0.0717766657471657,0.140499010682106,-0.0574213340878487
5,1.04444445950963,-0.193055558469529,0.193055558469529,-0.11636982858181,0.1750128865242,-0.0335975885391235
5,1.0333333244436,-0.206944452990142,0.163888889701015,-0.119118720293045,0.189979091286659,-0.0448985956609249
5,1.02500007039179,-0.208333344873396,0.17361112072783,-0.1750128865242,0.201585531234741,-0.0464257597923279
5,0.955555573476797,-0.170833336961321,0.187500003092477,-0.0839939713478088,0.150578290224075,-0.0226020142436027
5,0.947222222177272,-0.166666673467524,0.177777784221628,-0.0983493030071259,0.0595593601465225,-0.0253509078174829
5,0.956944465360051,-0.156944454596674,0.15555556271342,-0.0858265683054924,0.0516181141138077,-0.0436768643558025
5,0.962500032893068,-0.138888896582264,0.156944454596674,-0.0247400421649218,-0.00610865233466029,-0.0681114718317986
5,0.962500032893068,-0.140277788465518,0.169444445078067,0.0421497002243996,-0.10567969083786,-0.090408056974411
5,0.96666670854283,-0.130555557438704,0.18333333959868,0.0485637858510017,-0.202196389436722,-0.113620936870575
5,0.986111194908388,-0.14583334384257,0.144444451959316,0.0125227374956012,-0.24862214922905,-0.0959058403968811
5,1.01805561097552,-0.169444445078067,0.118055554801345,0.00244346098043024,-0.25961771607399,-0.0604756586253643
5,1.13472223742571,-0.181944447715425,0.0583333375370279,-0.0332921557128429,-0.200669229030609,-0.00397062394768
5,1.13472223742571,-0.181944447715425,0.0583333375370279,-0.112093769013882,-0.178372651338577,0.0693332031369209
5,1.05555559457566,-0.14722222356986,0.102777780553444,-0.211664810776711,-0.127976268529892,0.0934623852372169
5,0.918055589876652,-0.170833336961321,0.151388899219622,-0.271529614925385,-0.15851953625679,0.0736092627048492
5,0.918055589876652,-0.170833336961321,0.151388899219622,-0.270307868719101,-0.193338856101036,0.0852157026529312
5,0.99583334084345,-0.263888898643915,0.0847222225390337,-0.214413702487946,-0.201585531234741,0.100792765617371
5,1.07083340529146,-0.309722233543585,0.0569444456537738,-0.0956004112958908,-0.178678080439568,0.0907134860754013
5,1.07083340529146,-0.309722233543585,0.0569444456537738,0.0354301854968071,-0.08460483700037,0.10048733651638
5,1.08055555122652,-0.327777779402031,0.052777782159976,0.139888137578964,-0.0335975885391235,0.120035022497177
5,0.969444492309338,-0.238888893369199,0.0416666683668809,0.164628177881241,-0.0711658000946045,0.102625362575054
5,0.969444492309338,-0.238888893369199,0.0416666683668809,0.1795943826437,-0.0531452745199203,0.0870482996106148
5,0.970833384192592,-0.197222234119292,0.0541666679652478,0.201585531234741,-0.0543670058250427,0.0742201283574104
5,0.975000059842355,-0.176388892338373,0.0513888902767219,0.206472456455231,-0.0360410511493683,0.0421497002243996
5,0.98888888142718,-0.169444445078067,0.0416666683668809,0.226325571537018,-0.0800233483314514,0.0372627787292004
5,0.99583334084345,-0.163888889701015,0.0486111125881959,0.198836639523506,-0.0965167060494423,0.0204639863222837
5,1.00833336779274,-0.150000007336368,0.0500000014324589,0.1750128865242,-0.081855945289135,-0.0027488935738802
5,0.997222232726705,-0.13750000469901,0.0486111125881959,0.131336033344269,-0.0748309940099716,-0.0323758572340012
5,0.993055557076942,-0.133333341205212,0.0388888906783549,0.0778853222727776,-0.0513126812875271,-0.0629191175103188
5,1.02777785415829,-0.140277788465518,0.026388891079988,0.0479529201984406,0.00641408516094089,-0.0720821022987366
5,1.07500008094122,-0.151388899219622,0.029166668768514,0.0299323964864016,0.0684169083833694,-0.0647517144680023
5,1.11666674019113,-0.166666673467524,0.0458333348996699,-0.0280998013913631,0.223576679825783,-0.0607810914516449
5,1.11388895642462,-0.16527778158427,0.0625000010308258,-0.0421497002243996,0.277943700551987,-0.0675006061792374
5,1.07500008094122,-0.151388899219622,0.0652777787193518,-0.0626136884093285,0.246789559721947,-0.0919352173805237
5,0.993055557076942,-0.125000002061652,0.0833333367337618,-0.0888808965682983,0.22235494852066,-0.0931569486856461
5,0.98888888142718,-0.122222230451108,0.0819444448505077,-0.114842668175697,0.19578230381012,-0.098960168659687
5,1.00000001649321,-0.13750000469901,0.0930555616825939,-0.149661988019943,0.187841057777405,-0.0956004112958908
5,1.01388893532575,-0.134722233088466,0.104166672436698,-0.175929188728332,0.171347707509995,-0.0836885422468185
5,1.01527782720901,-0.134722233088466,0.0972222251763917,-0.167071640491486,0.149051114916802,-0.0558941699564457
5,1.00000001649321,-0.154166670830166,0.111111119697004,-0.145080491900444,0.11636982858181,-0.0580321997404099
5,0.99583334084345,-0.163888889701015,0.104166672436698,-0.107817716896534,0.0873537287116051,-0.0647517144680023
5,0.997222232726705,-0.170833336961321,0.100000002864918,-0.0882700309157372,0.0720821022987366,-0.0769690200686455
5,1.00833336779274,-0.17361112072783,0.0986111170596459,-0.0653625801205635,0.0650571510195732,-0.0693332031369209
5,1.00972225967599,-0.16527778158427,0.0847222225390337,-0.0757472887635231,0.0473420582711697,-0.0433714315295219
5,1.01527782720901,-0.158333334323963,0.0750000036681839,-0.0696386396884918,0.0290160998702049,-0.0152716310694814
5,1.01805561097552,-0.151388899219622,0.0694444482911319,-0.0769690200686455,0.0192422550171614,0.00122173049021512
5,1.01527782720901,-0.154166670830166,0.0763888894734557,-0.0833831056952477,0.0021380283869803,0.0204639863222837
5,1.00555558402623,-0.158333334323963,0.0847222225390337,-0.0864374339580536,-0.000305432622553781,0.0287106670439243
5,1.01111115155925,-0.15555556271342,0.0875000002275597,-0.0812450796365738,0.00305432616733015,0.0271835029125214
5,1.01944450285877,-0.162500009973726,0.0750000036681839,-0.0879645943641663,0.0210748501121998,0.0125227374956012
5,1.01527782720901,-0.163888889701015,0.0750000036681839,-0.0836885422468185,0.0113010071218014,-0.000305432622553781
5,1.00277780025972,-0.159722226207217,0.0763888894734557,-0.0699440687894821,-0.0134390350431204,0.000305432622553781
5,0.998611124609959,-0.168055565350778,0.0638888929140799,-0.0754418596625328,-0.0284052342176437,-0.00641408516094089
5,1.00000001649321,-0.17361112072783,0.0638888929140799,-0.0736092627048492,-0.0256563406437635,0.00794124789535999
5,1.0125000434425,-0.184722231481934,0.0513888902767219,-0.0488692186772823,-0.0360410511493683,0.00794124789535999
5,1.01944450285877,-0.200000005729836,0.0444444460554069,-0.0134390350431204,-0.0439822971820831,0.0280998013913631
5,1.02916674604155,-0.208333344873396,0.0416666683668809,0.0381790772080422,-0.0458148941397667,0.0378736443817616
5,1.04027778385987,-0.212499996211229,0.052777782159976,0.076052725315094,-0.0299323964864016,0.0384845100343227
5,1.03750000009336,-0.215277779977737,0.0638888929140799,0.0968221426010132,-0.0149661982432008,0.0372627787292004
5,1.02916674604155,-0.220833347510754,0.0819444448505077,0.118507854640484,0.00946841109544039,0.0326812900602817
5,1.01944450285877,-0.227777782615095,0.0847222225390337,0.145996794104576,0.021685715764761,0.0415388382971287
5,1.00972225967599,-0.236111109602691,0.0875000002275597,0.17470745742321,0.0409279726445675,0.0455094613134861
5,1.00138890837647,-0.238888893369199,0.0972222251763917,0.212275668978691,0.0412334054708481,0.0681114718317986
5,1.00555558402623,-0.236111109602691,0.105555564319952,0.271224170923233,0.0519235469400883,0.0791070461273193
5,1.01527782720901,-0.220833347510754,0.0944444474878658,0.313679307699203,0.105374254286289,0.0647517144680023
5,1.01944450285877,-0.187500003092477,0.0944444474878658,0.36041048169136,0.0873537287116051,0.0858265683054924
5,1.02361117850853,-0.170833336961321,0.0847222225390337,0.316733628511429,0.0901026204228401,0.0754418596625328
5,1.01111115155925,-0.141666668192807,0.0972222251763917,0.265726387500763,0.0784961804747581,0.0558941699564457
5,1.02500007039179,-0.134722233088466,0.0777777813567098,0.207999616861343,0.0842994004487991,0.0351247526705265
5,1.02083339474202,-0.130555557438704,0.0722222259796579,0.139277279376984,0.0833831056952477,0.00397062394768
5,1.02361117850853,-0.120833338567854,0.0736111117849297,0.0739146918058395,0.0839939713478088,-0.0201585534960032
5,1.02500007039179,-0.122222230451108,0.0680555564078778,-0.0125227374956012,0.0891863256692886,-0.0464257597923279
5,1.02916674604155,-0.12777778582816,0.0902777839940679,-0.0574213340878487,0.105068825185299,-0.0589484944939613
5,1.02638896227504,-0.12777778582816,0.0944444474878658,-0.10048733651638,0.109955742955208,-0.0598647929728031
5,1.01944450285877,-0.130555557438704,0.105555564319952,-0.152105450630188,0.108428582549095,-0.0766635909676552
5,1.00555558402623,-0.13750000469901,0.115277783190802,-0.187230199575424,0.0959058403968811,-0.102625362575054
5,1.00833336779274,-0.144444451959316,0.113888891307548,-0.207999616861343,0.0980438739061356,-0.0934623852372169
5,1.01388893532575,-0.161111118090472,0.113888891307548,-0.211053937673569,0.0891863256692886,-0.110261179506779
5,1.01388893532575,-0.161111118090472,0.113888891307548,-0.201890960335732,0.0916297882795334,-0.115758962929249
5,1.01111115155925,-0.176388892338373,0.120833338567854,-0.187230199575424,0.0742201283574104,-0.10567969083786
5,1.00972225967599,-0.177777784221628,0.118055554801345,-0.189979091286659,0.0675006061792374,-0.0937678143382072
5,1.00972225967599,-0.177777784221628,0.112499999424294,-0.182037845253944,0.0769690200686455,-0.081855945289135
5,1.01388893532575,-0.18333333959868,0.10972222781375,-0.166766211390495,0.0748309940099716,-0.096211276948452
5,1.00416669214298,-0.18333333959868,0.1194444466846,-0.149051114916802,0.0525344125926495,-0.0849102661013603
5,1.00555558402623,-0.180555567988136,0.120833338567854,-0.143858760595322,0.0409279726445675,-0.0775798857212067
5,1.00833336779274,-0.180555567988136,0.111111119697004,-0.120340451598167,0.0186313893646002,-0.0708603709936142
5,1.00416669214298,-0.179166676104882,0.112499999424294,-0.10598511993885,0.00610865233466029,-0.0659734457731247
5,1.00555558402623,-0.179166676104882,0.113888891307548,-0.0894917547702789,-0.00580321997404099,-0.0470366254448891
5,1.00972225967599,-0.180555567988136,0.115277783190802,-0.0745255574584007,0.00610865233466029,-0.0384845100343227
5,1.00972225967599,-0.18333333959868,0.113888891307548,-0.0537561401724815,-0.0103847095742822,-0.0357356183230877
5,1.00416669214298,-0.180555567988136,0.118055554801345,-0.0360410511493683,-0.0299323964864016,-0.0146607663482428
5,1.00694447590948,-0.17361112072783,0.113888891307548,-0.0369573459029198,-0.0339030213654041,0.000916297896765172
5,1.00416669214298,-0.161111118090472,0.111111119697004,-0.00488692196086049,-0.0510072484612465,0.0177150927484035
5,1.00138890837647,-0.16527778158427,0.125000002061652,0.00885754637420177,-0.0561996027827263,0.0320704244077206
5,1.00277780025972,-0.16527778158427,0.12777778582816,0.0201585534960032,-0.0638354197144508,0.0256563406437635
5,1.00000001649321,-0.161111118090472,0.131944449321958,0.021685715764761,-0.0781907513737679,0.0287106670439243
5,0.997222232726705,-0.159722226207217,0.130555557438704,0.0348193198442459,-0.090408056974411,0.0424551330506802
5,1.00555558402623,-0.163888889701015,0.122222230451108,0.0433714315295219,-0.102625362575054,0.0372627787292004
5,1.0125000434425,-0.166666673467524,0.126388893944906,0.0662788823246956,-0.107206851243973,0.0381790772080422
5,1.0125000434425,-0.170833336961321,0.118055554801345,0.0751364231109619,-0.117591559886932,0.0397062413394451
5,1.00833336779274,-0.166666673467524,0.108333335930496,0.0855211317539215,-0.127670839428902,0.0427605658769607
5,1.0125000434425,-0.170833336961321,0.111111119697004,0.0910189226269722,-0.140193566679955,0.0500909499824047
5,1.01527782720901,-0.172222228844576,0.108333335930496,0.0873537287116051,-0.139582708477974,0.0522289797663689
5,1.01805561097552,-0.17361112072783,0.101388894748172,0.100792765617371,-0.145080491900444,0.0500909499824047
5,1.01527782720901,-0.172222228844576,0.101388894748172,0.107206851243973,-0.134084925055504,0.0525344125926495
5,1.02222228662528,-0.168055565350778,0.0958333393711199,0.0986547395586967,-0.109650313854218,0.0467311926186085
5,1.02222228662528,-0.168055565350778,0.0958333393711199,0.0946841165423393,-0.103236228227615,0.0430659987032413
5,1.02222228662528,-0.16527778158427,0.102777780553444,0.0855211317539215,-0.105068825185299,0.0320704244077206
5,1.02222228662528,-0.161111118090472,0.101388894748172,0.0766635909676552,-0.0864374339580536,0.0323758572340012
5,1.01944450285877,-0.154166670830166,0.102777780553444,0.0491746515035629,-0.0803287774324417,0.0354301854968071
5,1.01111115155925,-0.14722222356986,0.0944444474878658,0.0207694191485643,-0.0751364231109619,0.0360410511493683
5,1.00972225967599,-0.14722222356986,0.104166672436698,0.00519235478714108,-0.0742201283574104,0.0473420582711697
5,1.00972225967599,-0.156944454596674,0.100000002864918,-0.0106901414692402,-0.0610865242779255,0.0439822971820831
5,1.0125000434425,-0.159722226207217,0.101388894748172,-0.00885754637420177,-0.0647517144680023,0.0406225398182869
5,1.00833336779274,-0.168055565350778,0.0986111170596459,-0.013744467869401,-0.0665843114256859,0.0461203269660473
5,1.00694447590948,-0.161111118090472,0.100000002864918,0.00977384392172098,-0.0479529201984406,0.0409279726445675
5,1.01944450285877,-0.168055565350778,0.0819444448505077,-0.00305432616733015,-0.0259617734700441,0.0415388382971287
5,1.02222228662528,-0.176388892338373,0.0777777813567098,-0.011606439948082,-0.00610865233466029,0.0397062413394451
5,1.02777785415829,-0.188888894975731,0.0680555564078778,-0.0122173046693206,0.00488692196086049,0.027488935738802
5,1.02916674604155,-0.193055558469529,0.0625000010308258,-0.0207694191485643,0.0021380283869803,0.0152716310694814
5,1.02777785415829,-0.194444450352783,0.0500000014324589,-0.0574213340878487,0.0791070461273193,-0.00519235478714108
5,1.02500007039179,-0.184722231481934,0.0611111152255539,-0.070249505341053,0.0684169083833694,-0.00671951752156019
5,1.0125000434425,-0.17361112072783,0.0694444482911319,-0.0626136884093285,0.0363464802503586,0.00824668072164059
5,1.01944450285877,-0.17361112072783,0.0750000036681839,-0.0928515195846558,0.0601702257990837,-0.01588249579072
5,1.00833336779274,-0.158333334323963,0.0805555590452358,-0.0891863256692886,0.0397062413394451,-0.0103847095742822
5,1.0125000434425,-0.159722226207217,0.0875000002275597,-0.0959058403968811,0.0268780700862408,-0.0146607663482428
5,1.02083339474202,-0.168055565350778,0.0847222225390337,-0.128281697630882,0.102014496922493,-0.0442877300083637
5,1.0125000434425,-0.158333334323963,0.0930555616825939,-0.0687223374843597,0.0271835029125214,-0.0210748501121998
5,1.00555558402623,-0.168055565350778,0.0930555616825939,-0.0864374339580536,0.0198531206697226,-0.0232128798961639
5,1.00833336779274,-0.163888889701015,0.0847222225390337,-0.0791070461273193,0.0171042270958424,-0.0284052342176437
5,1.01111115155925,-0.16527778158427,0.0847222225390337,-0.0928515195846558,0.0149661982432008,-0.01191187184304
5,1.01527782720901,-0.176388892338373,0.0763888894734557,-0.0992656052112579,-0.0100792767480016,-0.00244346098043024
5,1.0125000434425,-0.176388892338373,0.0819444448505077,-0.0824668109416962,-0.0106901414692402,-0.0027488935738802
5,1.0125000434425,-0.176388892338373,0.0819444448505077,-0.0525344125926495,-0.0189368221908808,-0.00580321997404099
5,1.01527782720901,-0.179166676104882,0.0791666671619817,-0.0265726372599602,-0.017409659922123,-0.000610865245107561
5,1.01666671909226,-0.180555567988136,0.0750000036681839,-0.0186313893646002,-0.0201585534960032,0.0027488935738802
5,1.01666671909226,-0.175000000455119,0.0750000036681839,-0.000916297896765172,-0.0167987942695618,-0.0109955742955208
5,1.01527782720901,-0.176388892338373,0.0805555590452358,0.0109955742955208,-0.00641408516094089,-0.0177150927484035
5,1.0125000434425,-0.175000000455119,0.0861111144222878,0.0259617734700441,-0.0207694191485643,-0.0189368221908808
5,1.0125000434425,-0.180555567988136,0.0875000002275597,0.0305432621389627,-0.02382374368608,-0.0146607663482428
5,1.01527782720901,-0.170833336961321,0.0777777813567098,0.03176499158144,-0.0210748501121998,-0.0122173046693206
5,1.01666671909226,-0.170833336961321,0.0847222225390337,0.011606439948082,-0.0192422550171614,-0.00855211354792118
5,1.01527782720901,-0.163888889701015,0.0791666671619817,0.000610865245107561,-0.0113010071218014,-0.0140499006956816
5,1.01944450285877,-0.172222228844576,0.0805555590452358,-0.00397062394768,-0.017409659922123,-0.00244346098043024
5,1.01527782720901,-0.17361112072783,0.0819444448505077,-0.00183259579353034,-0.0106901414692402,-0.00794124789535999
5,1.01527782720901,-0.176388892338373,0.0750000036681839,0.00549778714776039,-0.0287106670439243,-0.00916297826915979
5,1.00833336779274,-0.176388892338373,0.0875000002275597,0.00763581553474069,-0.0302378293126821,-0.00183259579353034
5,1.01111115155925,-0.176388892338373,0.0750000036681839,0.0189368221908808,-0.0280998013913631,-0.00671951752156019
5,1.01111115155925,-0.179166676104882,0.0722222259796579,0.0314595587551594,-0.0326812900602817,0.00519235478714108
5,1.00694447590948,-0.18333333959868,0.0736111117849297,0.0271835029125214,-0.0332921557128429,0.00641408516094089
5,1.00416669214298,-0.18333333959868,0.0750000036681839,0.0339030213654041,-0.0363464802503586,0.00733038317412138
5,1.0125000434425,-0.180555567988136,0.0722222259796579,0.0354301854968071,-0.0439822971820831,0.00946841109544039
5,1.01527782720901,-0.176388892338373,0.0722222259796579,0.0357356183230877,-0.0381790772080422,0.017409659922123
5,1.01388893532575,-0.176388892338373,0.0694444482911319,0.0412334054708481,-0.0381790772080422,0.0021380283869803
5,1.0125000434425,-0.176388892338373,0.0625000010308258,0.0305432621389627,-0.0394008085131645,0.0100792767480016
5,1.01388893532575,-0.180555567988136,0.0625000010308258,0.0342084541916847,-0.0326812900602817,0.0021380283869803
5,1.01527782720901,-0.190277786858986,0.0750000036681839,0.0265726372599602,-0.0152716310694814,-0.00610865233466029
5,1.01388893532575,-0.176388892338373,0.0763888894734557,0.0354301854968071,-0.0122173046693206,0.000610865245107561
5,1.01527782720901,-0.176388892338373,0.0763888894734557,0.021685715764761,-0.0192422550171614,0.00641408516094089
5,1.01805561097552,-0.175000000455119,0.0722222259796579,0.0226020142436027,-0.0143553335219622,0.0204639863222837
5,1.01666671909226,-0.177777784221628,0.0763888894734557,0.02382374368608,-0.0161879286170006,0.0180205255746841
5,1.0125000434425,-0.186111123365188,0.0708333340964038,0.00824668072164059,-0.01588249579072,0.00702495034784079
5,1.0125000434425,-0.179166676104882,0.0638888929140799,0.0232128798961639,-0.00824668072164059,0.0103847095742822
5,1.01527782720901,-0.176388892338373,0.0625000010308258,0.0146607663482428,-0.0128281703218818,0.00671951752156019
5,1.01805561097552,-0.17361112072783,0.0638888929140799,0.0161879286170006,-0.0128281703218818,0.0131336031481624
5,1.0125000434425,-0.179166676104882,0.0666666706026059,0.00641408516094089,-0.0226020142436027,0.0143553335219622
5,1.01666671909226,-0.181944447715425,0.055555559848502,0.0146607663482428,-0.0222965814173222,0.0103847095742822
5,1.02361117850853,-0.176388892338373,0.0583333375370279,0.0287106670439243,-0.0226020142436027,0.0140499006956816
5,1.02222228662528,-0.175000000455119,0.0652777787193518,0.0229074470698834,-0.0189368221908808,0.0180205255746841
5,1.02500007039179,-0.179166676104882,0.0569444456537738,0.00916297826915979,-0.00671951752156019,-0.00152716308366507
5,1.02222228662528,-0.17361112072783,0.0638888929140799,0.00885754637420177,-0.0021380283869803,0.00641408516094089
5,1.01944450285877,-0.170833336961321,0.0680555564078778,0.0021380283869803,-0.000305432622553781,-0.00610865233466029
5,1.01666671909226,-0.161111118090472,0.0722222259796579,0.000305432622553781,-0.00977384392172098,-0.00549778714776039
5,1.01666671909226,-0.158333334323963,0.0736111117849297,-0.0201585534960032,-0.00152716308366507,-0.00305432616733015
5,1.01805561097552,-0.156944454596674,0.0847222225390337,-0.0354301854968071,-0.00397062394768,-0.00671951752156019
5,1.01944450285877,-0.161111118090472,0.0736111117849297,-0.0507018156349659,0.00794124789535999,-0.01191187184304
5,1.01944450285877,-0.168055565350778,0.0694444482911319,-0.0552833043038845,0.00916297826915979,-0.01191187184304
5,1.02222228662528,-0.169444445078067,0.0652777787193518,-0.0534507073462009,0.00946841109544039,-0.00824668072164059
5,1.01388893532575,-0.17361112072783,0.0694444482911319,-0.0565050356090069,0.0131336031481624,-0.0146607663482428
5,1.0125000434425,-0.17361112072783,0.0708333340964038,-0.0418442711234093,0.00946841109544039,-0.0192422550171614
5,1.0125000434425,-0.177777784221628,0.0694444482911319,-0.0384845100343227,0.011606439948082,-0.0189368221908808
5,1.01527782720901,-0.179166676104882,0.0666666706026059,-0.029626963660121,0.00794124789535999,-0.00702495034784079
5,1.01527782720901,-0.176388892338373,0.0708333340964038,-0.0189368221908808,0.0134390350431204,-0.00488692196086049
5,1.01527782720901,-0.179166676104882,0.0652777787193518,-0.0149661982432008,0.0125227374956012,-0.00794124789535999
5,1.01527782720901,-0.179166676104882,0.0652777787193518,-0.015577063895762,0.0045814891345799,-0.00763581553474069
5,1.01388893532575,-0.17361112072783,0.0708333340964038,-0.0128281703218818,-0.00244346098043024,-0.0128281703218818
5,1.01388893532575,-0.180555567988136,0.0708333340964038,-0.00397062394768,-0.00122173049021512,-0.0021380283869803
5,1.01388893532575,-0.180555567988136,0.0708333340964038,-0.00733038317412138,-0.0045814891345799,0.00152716308366507
5,1.0125000434425,-0.176388892338373,0.0694444482911319,-0.0021380283869803,-0.00885754637420177,0.0103847095742822
5,1.01944450285877,-0.190277786858986,0.0597222233422998,0.00519235478714108,-0.0198531206697226,0.0125227374956012
5,1.01944450285877,-0.190277786858986,0.0597222233422998,0.00824668072164059,-0.0103847095742822,0.00855211354792118
5,1.01944450285877,-0.190277786858986,0.0722222259796579,0.0180205255746841,-0.0128281703218818,0.00152716308366507
5,1.01944450285877,-0.187500003092477,0.0652777787193518,0.0244346093386412,-0.00977384392172098,-0.0021380283869803
5,1.01666671909226,-0.186111123365188,0.0652777787193518,0.0308486949652433,-0.00183259579353034,0.00855211354792118
5,1.01666671909226,-0.179166676104882,0.0722222259796579,0.0290160998702049,0.000305432622553781,0.000305432622553781
5,1.02083339474202,-0.181944447715425,0.0597222233422998,0.0320704244077206,0.00488692196086049,-0.00152716308366507
5,1.01527782720901,-0.179166676104882,0.0625000010308258,0.0409279726445675,0.00122173049021512,-0.0021380283869803
5,1.01527782720901,-0.175000000455119,0.0625000010308258,0.03176499158144,0.00885754637420177,-0.00244346098043024
5,1.01388893532575,-0.180555567988136,0.0611111152255539,0.0280998013913631,0.0021380283869803,0.00549778714776039
5,1.01527782720901,-0.180555567988136,0.0625000010308258,0.0326812900602817,0.00183259579353034,0.000916297896765172
5,1.01666671909226,-0.186111123365188,0.0625000010308258,0.0342084541916847,0.00610865233466029,-0.000916297896765172
5,1.0125000434425,-0.180555567988136,0.0583333375370279,0.0384845100343227,0.00152716308366507,-0.0045814891345799
5,1.0125000434425,-0.18333333959868,0.0625000010308258,0.0430659987032413,0.00488692196086049,-0.0109955742955208
5,1.01527782720901,-0.179166676104882,0.0625000010308258,0.0452040284872055,0.00244346098043024,-0.00183259579353034
5,1.01111115155925,-0.172222228844576,0.0680555564078778,0.0360410511493683,-0.000610865245107561,-0.000305432622553781
5,1.0125000434425,-0.176388892338373,0.0638888929140799,0.0342084541916847,-0.00794124789535999,0.00519235478714108
5,1.01527782720901,-0.17361112072783,0.0611111152255539,0.0329867228865623,-0.00519235478714108,0.00305432616733015
5,1.01388893532575,-0.176388892338373,0.0625000010308258,0.0250454749912024,-0.01191187184304,0.00671951752156019
5,1.01388893532575,-0.175000000455119,0.0680555564078778,0.0180205255746841,-0.00763581553474069,0.00244346098043024
5,1.01388893532575,-0.175000000455119,0.0680555564078778,0.013744467869401,-0.0134390350431204,0.00946841109544039
5,1.01388893532575,-0.18333333959868,0.0652777787193518,0.0152716310694814,-0.00733038317412138,0.0131336031481624
5,1.01388893532575,-0.18333333959868,0.0638888929140799,0.0232128798961639,-0.0167987942695618,0.00977384392172098
5,1.01527782720901,-0.181944447715425,0.0583333375370279,0.0293215326964855,-0.0247400421649218,0.00946841109544039
5,1.01527782720901,-0.177777784221628,0.0736111117849297,0.0311541277915239,-0.015577063895762,0.00916297826915979
5,1.01666671909226,-0.175000000455119,0.0708333340964038,0.019547687843442,-0.0106901414692402,0.0125227374956012
5,1.01805561097552,-0.175000000455119,0.0652777787193518,0.00977384392172098,-0.0128281703218818,0.00671951752156019
5,1.01805561097552,-0.17361112072783,0.0777777813567098,-0.00427605677396059,-0.00152716308366507,-0.000305432622553781
5,1.01388893532575,-0.17361112072783,0.0694444482911319,-0.0106901414692402,-0.00855211354792118,-0.00305432616733015
5,1.01527782720901,-0.17361112072783,0.0708333340964038,-0.011606439948082,-0.000305432622553781,-0.00244346098043024
5,1.01527782720901,-0.177777784221628,0.0694444482911319,-0.00549778714776039,-0.0027488935738802,-0.00183259579353034
5,1.01388893532575,-0.181944447715425,0.0666666706026059,0.000916297896765172,-0.00366519158706069,0.0033597587607801
5,1.01388893532575,-0.181944447715425,0.0666666706026059,0.00305432616733015,-0.000916297896765172,-0.00183259579353034
5,1.01527782720901,-0.180555567988136,0.0652777787193518,0.0140499006956816,-0.000305432622553781,0.00824668072164059
5,1.01944450285877,-0.181944447715425,0.0652777787193518,0.00885754637420177,-0.00305432616733015,0.00824668072164059
5,1.01944450285877,-0.177777784221628,0.0680555564078778,0.0122173046693206,-0.00641408516094089,-0.000305432622553781
5,1.01944450285877,-0.17361112072783,0.0805555590452358,0.00794124789535999,0.000610865245107561,0.000305432622553781
5,1.01527782720901,-0.176388892338373,0.0680555564078778,0.00702495034784079,0.00519235478714108,-0.00610865233466029
5,1.00972225967599,-0.17361112072783,0.0597222233422998,-0.00152716308366507,0.00183259579353034,0.00916297826915979
5,1.0125000434425,-0.17361112072783,0.0625000010308258,-0.00244346098043024,-0.00305432616733015,0.00152716308366507
5,1.01388893532575,-0.176388892338373,0.0652777787193518,-0.0033597587607801,0.000305432622553781,-0.0027488935738802
5,1.0125000434425,-0.18333333959868,0.0694444482911319,0.00244346098043024,0.00671951752156019,-0.0027488935738802
5,1.0125000434425,-0.184722231481934,0.0652777787193518,-0.00244346098043024,0.000305432622553781,-0.00549778714776039
5,1.01527782720901,-0.180555567988136,0.0569444456537738,-0.00244346098043024,0.00519235478714108,-0.000916297896765172
5,1.01944450285877,-0.18333333959868,0.0597222233422998,0.000610865245107561,0.0113010071218014,-0.0027488935738802
5,1.01527782720901,-0.176388892338373,0.0638888929140799,-0.000610865245107561,0.0021380283869803,-0.00580321997404099
5,1.00972225967599,-0.180555567988136,0.0472222237439329,0.00397062394768,0.00397062394768,-0.0033597587607801
5,1.0125000434425,-0.184722231481934,0.0486111125881959,-0.000610865245107561,0.00519235478714108,-0.000610865245107561
5,1.0125000434425,-0.179166676104882,0.0583333375370279,-0.00183259579353034,0.00855211354792118,-0.00488692196086049
5,1.01527782720901,-0.180555567988136,0.055555559848502,0.00244346098043024,0.00183259579353034,-0.0027488935738802
5,1.0125000434425,-0.180555567988136,0.0625000010308258,0.00580321997404099,0.00580321997404099,0.00152716308366507
5,1.01805561097552,-0.190277786858986,0.0611111152255539,0.0122173046693206,0.000305432622553781,0.00427605677396059
5,1.01944450285877,-0.188888894975731,0.055555559848502,0.00580321997404099,0.0027488935738802,-0.00122173049021512
5,1.01666671909226,-0.18333333959868,0.0583333375370279,0.00152716308366507,-0.000610865245107561,0.00855211354792118
5,1.01388893532575,-0.18333333959868,0.0583333375370279,0.000916297896765172,0.00488692196086049,-0.00183259579353034
5,1.01527782720901,-0.184722231481934,0.0625000010308258,0.00671951752156019,0.00671951752156019,-0.000916297896765172
5,1.01527782720901,-0.186111123365188,0.0583333375370279,0.00763581553474069,0.00397062394768,-0.00824668072164059
5,1.01527782720901,-0.177777784221628,0.0694444482911319,0.0103847095742822,0.00244346098043024,-0.00763581553474069
5,1.01527782720901,-0.181944447715425,0.0638888929140799,0.0161879286170006,-0.0033597587607801,-0.0021380283869803
5,1.01527782720901,-0.180555567988136,0.0638888929140799,0.0210748501121998,0.00244346098043024,-0.00244346098043024
5,1.01527782720901,-0.180555567988136,0.0638888929140799,0.0235183127224445,-0.000305432622553781,-0.0045814891345799
5,1.0125000434425,-0.18333333959868,0.0611111152255539,0.0131336031481624,-0.00427605677396059,0.00763581553474069
5,1.0125000434425,-0.176388892338373,0.0569444456537738,0.0100792767480016,-0.00397062394768,0.00549778714776039
5,1.01527782720901,-0.180555567988136,0.0652777787193518,0.00549778714776039,-0.00794124789535999,0.0021380283869803
5,1.01388893532575,-0.177777784221628,0.0625000010308258,0.0100792767480016,-0.00244346098043024,-0.00610865233466029
5,1.01388893532575,-0.177777784221628,0.0652777787193518,0.01588249579072,0.00122173049021512,-0.00366519158706069
5,1.01388893532575,-0.180555567988136,0.0666666706026059,0.0125227374956012,0.00183259579353034,-0.00305432616733015
5,1.01527782720901,-0.180555567988136,0.0652777787193518,0.0103847095742822,0.00519235478714108,-0.00763581553474069
5,1.0125000434425,-0.180555567988136,0.0680555564078778,0.01588249579072,0.00152716308366507,-0.00916297826915979
5,1.01388893532575,-0.18333333959868,0.0680555564078778,0.0103847095742822,-0.000610865245107561,0.0021380283869803
5,1.01666671909226,-0.181944447715425,0.0638888929140799,0.0183259565383196,-0.00152716308366507,0.00183259579353034
5,1.01388893532575,-0.179166676104882,0.0680555564078778,0.0161879286170006,0.00152716308366507,-0.00366519158706069
5,1.01388893532575,-0.175000000455119,0.0625000010308258,0.013744467869401,0.00122173049021512,-0.00641408516094089
5,1.01666671909226,-0.17361112072783,0.0625000010308258,0.0045814891345799,0.00549778714776039,-0.00122173049021512
5,1.01666671909226,-0.170833336961321,0.0638888929140799,-0.000305432622553781,0.00519235478714108,-0.00122173049021512
5,1.01666671909226,-0.180555567988136,0.0625000010308258,-0.000305432622553781,0.00519235478714108,0.000916297896765172
5,1.01666671909226,-0.179166676104882,0.0666666706026059,0.00305432616733015,0.00885754637420177,-0.00671951752156019
5,1.02083339474202,-0.184722231481934,0.0722222259796579,-0.00152716308366507,0.00427605677396059,-0.00946841109544039
5,1.01527782720901,-0.179166676104882,0.0791666671619817,0.00824668072164059,0.00824668072164059,-0.0103847095742822
5,1.0125000434425,-0.177777784221628,0.0722222259796579,0.0128281703218818,0.00366519158706069,-0.00488692196086049
5,1.0125000434425,-0.176388892338373,0.0680555564078778,0.00122173049021512,0.0140499006956816,-0.00610865233466029
5,1.0125000434425,-0.180555567988136,0.0611111152255539,0.0033597587607801,0.0027488935738802,0.000916297896765172
5,1.01944450285877,-0.18333333959868,0.0652777787193518,0.017409659922123,0.00549778714776039,-0.0033597587607801
5,1.01527782720901,-0.180555567988136,0.0750000036681839,0.0177150927484035,0.00488692196086049,-0.00122173049021512
5,1.01388893532575,-0.179166676104882,0.055555559848502,0.013744467869401,0.000916297896765172,-0.00427605677396059
5,1.01944450285877,-0.177777784221628,0.0500000014324589,0.01191187184304,0.00549778714776039,-0.00122173049021512
5,1.01805561097552,-0.177777784221628,0.0652777787193518,0.00702495034784079,-0.00122173049021512,-0.00733038317412138
5,1.0125000434425,-0.180555567988136,0.0694444482911319,0.01191187184304,-0.0033597587607801,0.00580321997404099
5,1.01666671909226,-0.177777784221628,0.0666666706026059,0.0189368221908808,0.000916297896765172,0.00580321997404099
5,1.01666671909226,-0.176388892338373,0.0680555564078778,0.00824668072164059,0.0021380283869803,0.0027488935738802
5,1.01805561097552,-0.177777784221628,0.0680555564078778,0.00427605677396059,0.00397062394768,-0.00855211354792118
5,1.01527782720901,-0.180555567988136,0.0638888929140799,-0.00397062394768,-0.000610865245107561,-0.00244346098043024
5,1.01527782720901,-0.180555567988136,0.0652777787193518,0.011606439948082,0.0027488935738802,-0.00610865233466029
5,1.01527782720901,-0.180555567988136,0.0611111152255539,0.01191187184304,-0.000610865245107561,0.00427605677396059
5,1.01527782720901,-0.177777784221628,0.0736111117849297,0.0122173046693206,-0.00122173049021512,-0.0021380283869803
5,1.0125000434425,-0.176388892338373,0.0750000036681839,0.0143553335219622,0.00152716308366507,-0.011606439948082
5,1.01527782720901,-0.17361112072783,0.0722222259796579,0.0122173046693206,0.00763581553474069,-0.00977384392172098
5,1.01388893532575,-0.176388892338373,0.0652777787193518,0.00366519158706069,0.00122173049021512,-0.00763581553474069
5,1.01388893532575,-0.176388892338373,0.0652777787193518,0.00366519158706069,-0.000916297896765172,0.0021380283869803
5,1.0125000434425,-0.176388892338373,0.0694444482911319,0.00122173049021512,-0.00305432616733015,0.00152716308366507
5,1.0125000434425,-0.176388892338373,0.0694444482911319,-0.00366519158706069,0.000305432622553781,-0.00122173049021512
5,1.0125000434425,-0.179166676104882,0.0652777787193518,0.00152716308366507,0.0027488935738802,0.00183259579353034
5,1.01527782720901,-0.180555567988136,0.0805555590452358,0.00549778714776039,0.00580321997404099,-0.00366519158706069
5,1.01527782720901,-0.180555567988136,0.0805555590452358,0.00946841109544039,0.0109955742955208,-0.0103847095742822
5,1.01944450285877,-0.176388892338373,0.0736111117849297,0.00397062394768,0.0222965814173222,-0.017409659922123
5,1.02361117850853,-0.166666673467524,0.0708333340964038,0.000916297896765172,0.0277943685650826,-0.0232128798961639
5,1.02222228662528,-0.163888889701015,0.0625000010308258,-0.0198531206697226,0.0342084541916847,-0.0271835029125214
5,1.01388893532575,-0.163888889701015,0.0625000010308258,-0.0458148941397667,0.0345138870179653,-0.0369573459029198
5,1.01527782720901,-0.168055565350778,0.0638888929140799,-0.0650571510195732,0.0277943685650826,-0.0473420582711697
5,1.01527782720901,-0.156944454596674,0.0652777787193518,-0.104152522981167,0.0363464802503586,-0.0406225398182869
5,1.02083339474202,-0.166666673467524,0.0638888929140799,-0.117896988987923,0.0363464802503586,-0.0500909499824047
5,1.01944450285877,-0.169444445078067,0.0625000010308258,-0.128281697630882,0.0406225398182869,-0.0583376325666905
5,1.01527782720901,-0.177777784221628,0.0680555564078778,-0.113620936870575,0.0256563406437635,-0.0516181141138077
5,1.01666671909226,-0.186111123365188,0.0625000010308258,-0.0891863256692886,0.0198531206697226,-0.037568211555481
5,1.0125000434425,-0.190277786858986,0.0666666706026059,-0.0662788823246956,0.011606439948082,-0.0290160998702049
5,1.00972225967599,-0.190277786858986,0.0694444482911319,-0.0397062413394451,0.00733038317412138,-0.02382374368608
5,1.01944450285877,-0.190277786858986,0.0736111117849297,-0.0259617734700441,0.00946841109544039,-0.0229074470698834
5,1.01527782720901,-0.187500003092477,0.0652777787193518,0.0021380283869803,-0.00702495034784079,-0.0027488935738802
5,1.01527782720901,-0.187500003092477,0.0652777787193518,0.021685715764761,-0.0143553335219622,0.0045814891345799
5,1.01388893532575,-0.18333333959868,0.0652777787193518,0.0262672062963247,-0.00733038317412138,0.00610865233466029
5,1.01388893532575,-0.18333333959868,0.0652777787193518,0.02382374368608,0.00152716308366507,-0.0045814891345799
5,1.01944450285877,-0.175000000455119,0.0625000010308258,0.0320704244077206,-0.000305432622553781,0.00977384392172098
5,1.01666671909226,-0.17361112072783,0.0652777787193518,0.0439822971820831,0.000305432622553781,0.0100792767480016
5,1.01527782720901,-0.170833336961321,0.0652777787193518,0.0568104684352875,0.00488692196086049,-0.00397062394768
5,1.01527782720901,-0.170833336961321,0.0652777787193518,0.0653625801205635,0.00580321997404099,-0.00244346098043024
5,1.01944450285877,-0.170833336961321,0.0583333375370279,0.0653625801205635,0.00916297826915979,0.00244346098043024
5,1.0125000434425,-0.175000000455119,0.0652777787193518,0.0733038261532784,0.0106901414692402,-0.00152716308366507
5,1.0125000434425,-0.175000000455119,0.0652777787193518,0.0827722400426865,0.0143553335219622,-0.00916297826915979
5,1.02083339474202,-0.179166676104882,0.0652777787193518,0.0922406539320946,0.01588249579072,0.0021380283869803
5,1.02222228662528,-0.169444445078067,0.0541666679652478,0.0879645943641663,0.0113010071218014,-0.0021380283869803
5,1.01527782720901,-0.161111118090472,0.0680555564078778,0.0748309940099716,0.00763581553474069,0.00366519158706069
5,1.01527782720901,-0.16527778158427,0.0666666706026059,0.070249505341053,0.0189368221908808,-0.00122173049021512
5,1.01527782720901,-0.170833336961321,0.0666666706026059,0.0733038261532784,0.0134390350431204,-0.0045814891345799
5,1.01805561097552,-0.169444445078067,0.0638888929140799,0.0711658000946045,0.0152716310694814,-0.0113010071218014
5,1.01527782720901,-0.17361112072783,0.0680555564078778,0.0781907513737679,0.0134390350431204,-0.00427605677396059
5,1.01944450285877,-0.176388892338373,0.0652777787193518,0.0800233483314514,0.013744467869401,-0.00916297826915979
5,1.0125000434425,-0.166666673467524,0.0680555564078778,0.0882700309157372,0.0164933614432812,-0.000610865245107561
5,1.01527782720901,-0.170833336961321,0.0736111117849297,0.104763388633728,0.0109955742955208,-0.0140499006956816
5,1.00972225967599,-0.179166676104882,0.0708333340964038,0.103847093880177,0.00183259579353034,-0.00183259579353034
5,1.0125000434425,-0.177777784221628,0.0750000036681839,0.113926365971565,0.0100792767480016,0.0027488935738802
5,1.00972225967599,-0.172222228844576,0.0750000036681839,0.108428582549095,-0.00916297826915979,0.00488692196086049
5,1.01527782720901,-0.163888889701015,0.0750000036681839,0.0977384373545647,-0.00610865233466029,0.00427605677396059
5,1.00972225967599,-0.16527778158427,0.0847222225390337,0.103847093880177,-0.00977384392172098,0.00397062394768
5,1.00972225967599,-0.166666673467524,0.0833333367337618,0.109955742955208,-0.017409659922123,0.0100792767480016
5,1.0125000434425,-0.161111118090472,0.0805555590452358,0.101709060370922,-0.01588249579072,0.0152716310694814
5,1.01527782720901,-0.163888889701015,0.0750000036681839,0.106290549039841,-0.019547687843442,0.0167987942695618
5,1.01805561097552,-0.162500009973726,0.0708333340964038,0.102319926023483,-0.0152716310694814,0.0305432621389627
5,1.01666671909226,-0.156944454596674,0.0722222259796579,0.105068825185299,-0.019547687843442,0.03176499158144
5,1.01944450285877,-0.151388899219622,0.0722222259796579,0.0910189226269722,-0.0033597587607801,0.0171042270958424
5,1.02222228662528,-0.14583334384257,0.0625000010308258,0.0766635909676552,-0.00855211354792118,0.01588249579072
5,1.02083339474202,-0.14722222356986,0.0666666706026059,0.0473420582711697,-0.00183259579353034,0.0045814891345799
5,1.01805561097552,-0.150000007336368,0.0652777787193518,0.0250454749912024,0.00641408516094089,-0.00183259579353034
5,1.01805561097552,-0.148611115453114,0.0666666706026059,0.00244346098043024,0.0183259565383196,-0.0232128798961639
5,1.02083339474202,-0.15555556271342,0.055555559848502,-0.019547687843442,0.0171042270958424,-0.0262672062963247
5,1.01944450285877,-0.158333334323963,0.0694444482911319,-0.0378736443817616,0.0241291765123606,-0.0339030213654041
5,1.01944450285877,-0.168055565350778,0.0680555564078778,-0.0555887371301651,0.0387899428606033,-0.0442877300083637
5,1.01944450285877,-0.168055565350778,0.0680555564078778,-0.0558941699564457,0.0555887371301651,-0.0568104684352875
5,1.0125000434425,-0.190277786858986,0.0763888894734557,-0.0445931628346443,0.0574213340878487,-0.064446285367012
5,1.0125000434425,-0.205555561106887,0.0805555590452358,-0.0134390350431204,0.0366519130766392,-0.0479529201984406
5,1.00972225967599,-0.194444450352783,0.0916666697993398,0.0390953756868839,0.00549778714776039,-0.0164933614432812
5,1.00972225967599,-0.194444450352783,0.0916666697993398,0.0531452745199203,-0.0109955742955208,-0.00977384392172098
5,1.0125000434425,-0.15555556271342,0.0819444448505077,0.0442877300083637,-0.0229074470698834,0.0100792767480016
5,1.01111115155925,-0.134722233088466,0.0847222225390337,-0.000916297896765172,-0.0290160998702049,0.0256563406437635
5,1.01111115155925,-0.134722233088466,0.0847222225390337,-0.0467311926186085,-0.0323758572340012,0.0140499006956816
5,1.00972225967599,-0.123611110178398,0.0902777839940679,-0.0977384373545647,-0.0229074470698834,0.0134390350431204
5,1.01111115155925,-0.13750000469901,0.0916666697993398,-0.149356558918953,-0.01588249579072,-0.01588249579072
5,1.01111115155925,-0.13750000469901,0.0916666697993398,-0.182037845253944,-0.0183259565383196,-0.027488935738802
5,1.01527782720901,-0.144444451959316,0.0847222225390337,-0.20616702735424,-0.0198531206697226,-0.021685715764761
5,1.01805561097552,-0.166666673467524,0.0805555590452358,-0.211664810776711,-0.0189368221908808,-0.021685715764761
5,1.01805561097552,-0.166666673467524,0.0805555590452358,-0.203418120741844,-0.0134390350431204,-0.00885754637420177
5,1.01666671909226,-0.176388892338373,0.0750000036681839,-0.167682513594627,-0.00733038317412138,0.00397062394768
5,1.01944450285877,-0.187500003092477,0.0736111117849297,-0.139582708477974,-0.00366519158706069,-0.00916297826915979
5,1.01944450285877,-0.18333333959868,0.0694444482911319,-0.10598511993885,-0.00427605677396059,-0.0109955742955208
5,1.01944450285877,-0.180555567988136,0.0680555564078778,-0.0809396430850029,0.0027488935738802,-0.0100792767480016
5,1.02222228662528,-0.176388892338373,0.0791666671619817,-0.0500909499824047,0.000916297896765172,-0.0134390350431204
5,1.01388893532575,-0.184722231481934,0.0875000002275597,-0.0204639863222837,-0.00244346098043024,-0.00549778714776039
5,1.01666671909226,-0.186111123365188,0.0708333340964038,0.00305432616733015,0.0106901414692402,-0.0021380283869803
5,1.01805561097552,-0.181944447715425,0.0763888894734557,0.0244346093386412,0.0113010071218014,0.00397062394768
5,1.0125000434425,-0.17361112072783,0.0791666671619817,0.0510072484612465,0.0143553335219622,0.0125227374956012
5,1.01944450285877,-0.170833336961321,0.0875000002275597,0.0494800843298435,0.00733038317412138,0.0125227374956012
5,1.01527782720901,-0.162500009973726,0.0750000036681839,0.0632245540618896,0.00427605677396059,0.0103847095742822
5,1.01944450285877,-0.159722226207217,0.0777777813567098,0.0595593601465225,0.0146607663482428,0.0103847095742822
5,1.01527782720901,-0.150000007336368,0.0736111117849297,0.0390953756868839,0.00916297826915979,0.0103847095742822
5,1.01666671909226,-0.141666668192807,0.0625000010308258,0.0103847095742822,0.0164933614432812,-0.00794124789535999
5,1.01666671909226,-0.144444451959316,0.0625000010308258,-0.00641408516094089,0.0122173046693206,0.000916297896765172
5,1.01944450285877,-0.148611115453114,0.0666666706026059,-0.0213802829384804,0.0152716310694814,-0.0103847095742822
5,1.01527782720901,-0.150000007336368,0.0638888929140799,-0.0439822971820831,0.0131336031481624,-0.0186313893646002
5,1.01666671909226,-0.163888889701015,0.0652777787193518,-0.0531452745199203,0.0134390350431204,-0.0131336031481624
5,1.01805561097552,-0.163888889701015,0.0694444482911319,-0.0479529201984406,0.0106901414692402,-0.00855211354792118
5,1.01666671909226,-0.163888889701015,0.0763888894734557,-0.0540615729987621,0.00427605677396059,-0.00855211354792118
5,1.01527782720901,-0.166666673467524,0.0722222259796579,-0.0491746515035629,0.01191187184304,-0.000305432622553781
5,1.0125000434425,-0.163888889701015,0.0680555564078778,-0.0500909499824047,0.00244346098043024,-0.00641408516094089
5,1.01388893532575,-0.176388892338373,0.0750000036681839,-0.0397062413394451,-0.00488692196086049,-0.011606439948082
5,1.00972225967599,-0.177777784221628,0.0777777813567098,-0.0235183127224445,-0.00305432616733015,-0.015577063895762
5,1.01527782720901,-0.181944447715425,0.0750000036681839,-0.00885754637420177,-0.00671951752156019,-0.00488692196086049
5,1.01527782720901,-0.180555567988136,0.0847222225390337,0.000610865245107561,0.00519235478714108,0.00152716308366507
5,1.01666671909226,-0.188888894975731,0.0777777813567098,0.00916297826915979,0.0033597587607801,-0.00641408516094089
5,1.0125000434425,-0.180555567988136,0.0750000036681839,0.0253509078174829,0.00671951752156019,-0.00305432616733015
5,1.01527782720901,-0.180555567988136,0.0791666671619817,0.0442877300083637,0.00885754637420177,0.00519235478714108
5,1.0125000434425,-0.176388892338373,0.0763888894734557,0.0448985956609249,0.00671951752156019,0.00641408516094089
5,1.01388893532575,-0.172222228844576,0.0666666706026059,0.0546724386513233,0.013744467869401,0.000305432622553781
5,1.01944450285877,-0.172222228844576,0.0652777787193518,0.0534507073462009,0.0210748501121998,-0.0109955742955208
5,1.01527782720901,-0.16527778158427,0.0708333340964038,0.0552833043038845,0.0100792767480016,-0.0171042270958424
5,1.01388893532575,-0.162500009973726,0.0750000036681839,0.0473420582711697,0.00794124789535999,-0.0143553335219622
5,1.01666671909226,-0.16527778158427,0.0777777813567098,0.0442877300083637,0.0125227374956012,-0.00885754637420177
5,1.01666671909226,-0.16527778158427,0.0777777813567098,0.0424551330506802,0.0122173046693206,-0.0021380283869803
5,1.01944450285877,-0.161111118090472,0.0708333340964038,0.0253509078174829,-0.00122173049021512,-0.0152716310694814
5,1.02222228662528,-0.156944454596674,0.0611111152255539,0.015577063895762,-0.0149661982432008,-0.0140499006956816
5,1.02083339474202,-0.166666673467524,0.055555559848502,0.0366519130766392,-0.0397062413394451,-0.000916297896765172
5,1.01388893532575,-0.176388892338373,0.0708333340964038,0.0806342139840126,-0.0488692186772823,0.013744467869401
5,1.00555558402623,-0.176388892338373,0.0777777813567098,0.0977384373545647,-0.0354301854968071,0.0189368221908808
5,1.0125000434425,-0.170833336961321,0.0805555590452358,0.109955742955208,-0.0131336031481624,0.0146607663482428
5,1.01805561097552,-0.169444445078067,0.0791666671619817,0.116980694234371,0.000305432622553781,-0.000916297896765172
5,1.0125000434425,-0.170833336961321,0.0875000002275597,0.108428582549095,0.00549778714776039,0.00488692196086049
5,1.01666671909226,-0.169444445078067,0.0819444448505077,0.0998764708638191,0.00763581553474069,0.000610865245107561
5,1.02222228662528,-0.163888889701015,0.0930555616825939,0.0742201283574104,0.0171042270958424,-0.00183259579353034
5,1.01944450285877,-0.156944454596674,0.0861111144222878,0.0400116741657257,0.0177150927484035,-0.00183259579353034
5,1.01388893532575,-0.156944454596674,0.0708333340964038,0.0271835029125214,0.0171042270958424,0.00122173049021512
5,1.0125000434425,-0.144444451959316,0.0791666671619817,-0.0021380283869803,0.0033597587607801,-0.00427605677396059
5,1.01111115155925,-0.140277788465518,0.0750000036681839,-0.0400116741657257,-0.00763581553474069,-0.00183259579353034
5,1.01527782720901,-0.152777778946911,0.0819444448505077,-0.0503963828086853,-0.0021380283869803,0.00885754637420177
5,1.01944450285877,-0.15555556271342,0.0777777813567098,-0.0418442711234093,0.00244346098043024,0.00946841109544039
5,1.02222228662528,-0.166666673467524,0.0736111117849297,-0.0485637858510017,0.02382374368608,0.00488692196086049
5,1.0125000434425,-0.177777784221628,0.0680555564078778,-0.0424551330506802,0.00794124789535999,0.00244346098043024
5,1.01388893532575,-0.176388892338373,0.0680555564078778,-0.0143553335219622,0.0045814891345799,0.01191187184304
5,1.01805561097552,-0.172222228844576,0.0722222259796579,-0.00305432616733015,0.00946841109544039,0.0235183127224445
5,1.00972225967599,-0.169444445078067,0.0722222259796579,0.0201585534960032,-0.00702495034784079,0.0207694191485643
5,1.01111115155925,-0.16527778158427,0.0652777787193518,0.0305432621389627,-0.00855211354792118,0.0180205255746841
5,1.01944450285877,-0.156944454596674,0.0666666706026059,0.0351247526705265,0.00305432616733015,0.00671951752156019
5,1.02083339474202,-0.15555556271342,0.0680555564078778,0.03176499158144,-0.00305432616733015,0.00397062394768
5,1.01944450285877,-0.156944454596674,0.0763888894734557,0.0140499006956816,0.00549778714776039,0.00366519158706069
5,1.01805561097552,-0.156944454596674,0.0750000036681839,-0.0021380283869803,0.00152716308366507,-0.01191187184304
5,1.01527782720901,-0.152777778946911,0.0763888894734557,0.00427605677396059,0.00244346098043024,-0.0021380283869803
5,1.0125000434425,-0.156944454596674,0.0763888894734557,-0.0128281703218818,-0.000610865245107561,-0.0106901414692402
5,1.01111115155925,-0.161111118090472,0.0847222225390337,-0.019547687843442,0.000610865245107561,-0.00824668072164059
5,1.0125000434425,-0.161111118090472,0.0805555590452358,-0.0219911485910416,-0.0033597587607801,-0.0106901414692402
5,1.01388893532575,-0.163888889701015,0.0763888894734557,-0.0268780700862408,-0.000305432622553781,-0.00519235478714108
5,1.0125000434425,-0.166666673467524,0.0847222225390337,-0.0299323964864016,0.00763581553474069,-0.00824668072164059
5,1.01527782720901,-0.162500009973726,0.0819444448505077,-0.0445931628346443,0.0045814891345799,-0.0122173046693206
5,1.01388893532575,-0.169444445078067,0.0777777813567098,-0.0360410511493683,0.00122173049021512,-0.0128281703218818
5,1.0125000434425,-0.172222228844576,0.0819444448505077,-0.0430659987032413,0.00824668072164059,-0.0128281703218818
5,1.01944450285877,-0.180555567988136,0.0763888894734557,-0.0326812900602817,0.00733038317412138,-0.00519235478714108
5,1.0125000434425,-0.176388892338373,0.0736111117849297,-0.0171042270958424,0.00702495034784079,-0.00488692196086049
5,1.00972225967599,-0.176388892338373,0.0694444482911319,-0.00397062394768,0.00824668072164059,-0.00488692196086049
5,1.0125000434425,-0.179166676104882,0.0708333340964038,0.0103847095742822,-0.000610865245107561,-0.000916297896765172
