Activity,acc_x,acc_y,acc_z,gyro_x,gyro_y,gyro_z
0,0.404166687109433,0.130555557438704,0.909722238577127,0.188757359981537,-1.27579212188721,1.7134770154953
0,0.312500017310094,0.156944454596674,1.13611112930897,0.404087364673615,-1.06382179260254,1.66582953929901
0,0.316666668647927,0.170833336961321,1.13055556177595,0.158824965357781,0.432798027992248,1.3179417848587
0,0.316666668647927,0.170833336961321,1.13055556177595,0.158824965357781,0.432798027992248,1.3179417848587
0,0.388888900705567,0.104166672436698,0.884722281926269,0.314901024103165,-0.098960168659687,1.37169790267944
0,0.411111122213775,0.123611110178398,0.856944444261187,0.472198843955994,-0.336892187595367,1.52441418170929
0,0.411111122213775,0.123611110178398,0.856944444261187,0.619417369365692,-0.553138494491577,1.6090190410614
0,0.381944465601225,0.131944449321958,0.869444471210474,0.74464476108551,0.439822971820831,1.26418566703796
0,0.298611122789481,0.150000007336368,0.84583340644287,0.681114733219147,0.630107522010803,1.23028254508972
0,0.25555557165632,0.111111119697004,0.863888903677457,0.38026362657547,0.768773913383484,1.02289390563965
0,0.25555557165632,0.111111119697004,0.863888903677457,0.0998764708638191,0.125838235020638,0.933096647262573
0,0.277777793164528,0.0250000007162294,0.93750007624221,0.0100792767480016,-0.0635299831628799,0.975246369838715
0,0.277777793164528,0.0250000007162294,0.93750007624221,-0.131641462445259,0.280692577362061,0.849408149719238
0,0.279166685047782,-0.00277777787846293,0.947222222177272,-0.254730820655823,0.458148926496506,0.715934038162231
0,0.280555576931036,-0.0138888899621255,0.951388897827035,-0.367435455322266,0.535117983818054,0.560468852519989
0,0.269444466176932,-0.0472222237439329,0.987499989543926,-0.234572261571884,0.533590793609619,0.525954961776733
0,0.233333350148112,-0.0416666683668809,1.12222230772414,-0.419053554534912,0.0540615729987621,0.214413702487946
0,0.200000005729836,-0.0583333375370279,1.15277783190802,-0.540310323238373,-0.127670839428902,0.120340451598167
0,0.163888889701015,-0.0861111144222878,1.10555560512509,-0.514043092727661,-0.0928515195846558,0.0329867228865623
0,0.13750000469901,-0.0916666697993398,1.00833336779274,-0.35430184006691,0.0467311926186085,-0.0751364231109619
0,0.170833336961321,-0.0763888894734557,0.954166681593543,-0.341779112815857,-0.122173048555851,-0.178067222237587
0,0.20972223675665,-0.0569444456537738,0.904166671044111,-0.482278108596802,-0.202807262539864,-0.11087204515934
0,0.20972223675665,-0.0569444456537738,0.904166671044111,-0.445015341043472,-0.150272846221924,-0.0351247526705265
0,0.212499996211229,-0.0541666679652478,0.86805557932722,-0.251371055841446,0.192422553896904,-0.0125227374956012
0,0.206944452990142,-0.0819444448505077,0.92083337364316,-0.0885754600167274,0.270918726921081,0.0045814891345799
0,0.193055558469529,-0.0958333393711199,1.00277780025972,0.0183259565383196,0.0662788823246956,0.101403631269932
0,0.193055558469529,-0.0958333393711199,1.00277780025972,0.159435823559761,0.0226020142436027,0.0983493030071259
0,0.144444451959316,-0.0777777813567098,1.10416671324184,0.00610865233466029,-0.235488548874855,0.0913243517279625
0,0.134722233088466,-0.0819444448505077,1.12222230772414,-0.146302223205566,-0.22235494852066,0.108734011650086
0,0.140277788465518,-0.0875000002275597,1.10138892947533,-0.188146501779556,-0.0561996027827263,0.111788339912891
0,0.154166670830166,-0.0944444474878658,1.04861113515939,-0.126449108123779,0.0675006061792374,0.107817716896534
0,0.166666673467524,-0.0847222225390337,0.986111194908388,0.0146607663482428,0.0684169083833694,0.0815505087375641
0,0.154166670830166,-0.0833333367337618,0.933333400592447,0.0421497002243996,-0.155159771442413,0.106901414692402
0,0.154166670830166,-0.0833333367337618,0.933333400592447,0.0653625801205635,-0.535117983818054,0.156076073646545
0,0.188888894975731,-0.0569444456537738,0.952777789710289,0.205250725150108,-0.499382346868515,0.102930791676045
0,0.20972223675665,-0.0361111129898289,0.95000000594378,0.359188765287399,-0.1795943826437,0.0824668109416962
0,0.234722242031366,-0.03194444645704,0.962500032893068,0.4914411008358,0.135917514562607,0.102930791676045
0,0.247222220356795,-0.0513888902767219,0.968055600426084,0.555887401103973,0.151189148426056,0.114842668175697
0,0.2194444556275,-0.0486111125881959,0.984722303025134,0.495411723852158,-0.0714712366461754,0.163101017475128
0,0.224999998848587,-0.0402777795226179,1.03888889197661,0.456927210092545,-0.0610865242779255,0.160657554864883
0,0.243055569018962,-0.029166668768514,1.07777786470773,0.404392778873444,0.0280998013913631,0.16920967400074
0,0.241666677135707,-0.026388891079988,1.08472222687628,0.345138877630234,0.0439822971820831,0.17989981174469
0,0.243055569018962,-0.03194444645704,1.0361111082101,0.272140473127365,0.000610865245107561,0.261450320482254
0,0.238888893369199,-0.0194444453391775,0.973611167959101,0.151800006628036,-0.122173048555851,0.314290165901184
0,0.244444460902216,-0.00277777787846293,0.915277806110144,0.0546724386513233,-0.255341678857803,0.313068449497223
0,0.263888898643915,0.0111111115138517,0.905555562927365,0.0287106670439243,-0.427911102771759,0.29596421122551
0,0.269444466176932,0.00972222266958873,0.905555562927365,-0.0262672062963247,-0.573602437973022,0.30757063627243
0,0.300000014672736,0.00277777787846293,0.904166671044111,0.0623082555830479,-0.4331034719944,0.268169850111008
0,0.295833339022973,0.00555555575692586,0.911111130460381,0.159435823559761,-0.323147714138031,0.239153742790222
0,0.301388906555989,0.029166668768514,0.934722292475701,0.165849909186363,-0.319787949323654,0.157297804951668
0,0.316666668647927,0.0361111129898289,0.973611167959101,0.143553331494331,-0.282525181770325,0.122173048555851
0,0.325000019947452,0.029166668768514,0.986111194908388,0.136528387665749,-0.0403171069920063,0.0778853222727776
0,0.325000019947452,0.0222222230277034,0.990277773310434,0.123089343309402,0.286495804786682,0.0335975885391235
0,0.309722233543585,0.0125000003581147,0.959722249126559,0.0537561401724815,0.298102229833603,0.0235183127224445
0,0.308333341660331,0.00138888893923146,0.926388941176177,-0.0171042270958424,0.123394779860973,0.0348193198442459
0,0.295833339022973,0.00833333382532574,0.933333400592447,-0.0577267669141293,-0.0372627787292004,0.00610865233466029
0,0.300000014672736,-0.00555555575692586,0.93750007624221,-0.0852157026529312,-0.0778853222727776,0.017409659922123
0,0.308333341660331,-0.0166666676506515,0.940277860008718,-0.0858265683054924,-0.0302378293126821,0.0308486949652433
0,0.308333341660331,-0.03194444645704,0.95000000594378,-0.0806342139840126,0.0433714315295219,0.019547687843442
0,0.334722238818301,-0.0444444460554069,0.955555573476797,-0.101098194718361,-0.0714712366461754,0.0519235469400883
0,0.295833339022973,-0.0361111129898289,0.938888968125464,-0.0616973899304867,-0.22724187374115,0.0290160998702049
0,0.297222230906227,-0.027777779924251,0.93750007624221,-0.0235183127224445,-0.0852157026529312,0.0522289797663689
0,0.304166666010569,-0.0222222230277034,0.938888968125464,-0.0280998013913631,0.108123145997524,0.0433714315295219
0,0.316666668647927,-0.0388888906783549,0.938888968125464,-0.0314595587551594,0.10567969083786,0.0106901414692402
0,0.312500017310094,-0.0388888906783549,0.941666654644256,-0.0143553335219622,0.0711658000946045,-0.0100792767480016
0,0.309722233543585,-0.0361111129898289,0.940277860008718,0.00855211354792118,0.160046696662903,-0.0149661982432008
0,0.295833339022973,-0.00555555575692586,0.931944508709193,-0.0113010071218014,0.212275668978691,-0.0140499006956816
0,0.290277795801886,-0.00972222266958873,0.94305554652751,0.0424551330506802,0.397062420845032,-0.0598647929728031
0,0.279166685047782,-0.00833333382532574,0.947222222177272,0.0803287774324417,0.426994800567627,-0.078801617026329
0,0.283333336385615,-0.0125000003581147,0.976388951725609,0.0464257597923279,0.259006857872009,-0.131641462445259
0,0.275000009398019,-0.0111111115138517,0.98888888142718,-0.0448985956609249,0.12705996632576,-0.0992656052112579
0,0.273611117514765,-0.00277777787846293,0.99583334084345,-0.0244346093386412,0.182954147458077,-0.107206851243973
0,0.262500006760661,-0.00555555575692586,0.975000059842355,0.0247400421649218,0.152716308832169,-0.114537231624126
0,0.275000009398019,-0.00416666691266287,0.944444438410764,0.0241291765123606,-0.0400116741657257,-0.132863193750381
0,0.275000009398019,-0.00972222266958873,0.94305554652751,0.00763581553474069,-0.145996794104576,-0.0797179117798805
0,0.277777793164528,-0.00694444498106275,0.956944465360051,0.00794124789535999,-0.144775062799454,-0.0326812900602817
0,0.272222225631511,-0.00416666691266287,0.970833384192592,0.0180205255746841,-0.0870482996106148,-0.0027488935738802
0,0.275000009398019,-0.00555555575692586,0.956944465360051,-0.00702495034784079,-0.0922406539320946,-0.0109955742955208
0,0.276388901281273,-0.00555555575692586,0.940277860008718,-0.0378736443817616,-0.0580321997404099,-0.00366519158706069
0,0.273611117514765,-0.00972222266958873,0.952777789710289,-0.0290160998702049,-0.0213802829384804,-0.0265726372599602
0,0.272222225631511,-0.00694444498106275,0.95000000594378,0.0177150927484035,-0.000916297896765172,-0.0479529201984406
0,0.276388901281273,-0.00694444498106275,0.961111141009813,0.0256563406437635,0.133779495954514,-0.0897971913218498
0,0.269444466176932,-0.00833333382532574,0.96666670854283,-0.000305432622553781,0.209221348166466,-0.0943786799907684
0,0.269444466176932,-0.00833333382532574,0.96666670854283,-0.0742201283574104,0.133779495954514,-0.0794124826788902
0,0.263888898643915,-0.0111111115138517,0.977777843608863,-0.058643065392971,0.0800233483314514,-0.0626136884093285
0,0.261111114877407,-0.0111111115138517,0.984722303025134,-0.00733038317412138,0.214413702487946,-0.0733038261532784
0,0.258333331110899,-0.00416666691266287,0.979166735492117,0.0433714315295219,0.281914323568344,-0.101709060370922
0,0.252777787889811,-0.00555555575692586,0.963888924776322,0.0510072484612465,0.0442877300083637,-0.0873537287116051
0,0.262500006760661,-0.00555555575692586,0.96666670854283,0.0232128798961639,-0.00549778714776039,-0.0931569486856461
0,0.256944463539574,-0.00972222266958873,0.979166735492117,-0.0171042270958424,0.0222965814173222,-0.0739146918058395
0,0.258333331110899,-0.0152777788063885,0.968055600426084,-0.0345138870179653,-0.116675265133381,-0.05283984541893
0,0.259722222994153,-0.0208333341834404,0.96666670854283,-0.0519235469400883,-0.18539759516716,-0.00946841109544039
0,0.265277790527169,-0.0194444453391775,0.959722249126559,-0.0403171069920063,-0.0922406539320946,0.01588249579072
0,0.262500006760661,-0.0166666676506515,0.95000000594378,-0.0384845100343227,0.0500909499824047,0.0134390350431204
0,0.25555557165632,-0.0194444453391775,0.962500032893068,-0.0629191175103188,0.0861319974064827,0.0207694191485643
0,0.24583335278547,-0.0125000003581147,0.96666670854283,-0.0800233483314514,0.128587126731873,0.0210748501121998
0,0.243055569018962,-0.00972222266958873,0.963888924776322,-0.128281697630882,0.139888137578964,0.019547687843442
0,0.24583335278547,-0.0166666676506515,0.965277816659576,-0.128281697630882,0.133168622851372,-0.0113010071218014
0,0.24583335278547,-0.0166666676506515,0.965277816659576,-0.0983493030071259,0.166155353188515,-0.0109955742955208
0,0.243055569018962,-0.0208333341834404,0.975000059842355,-0.0852157026529312,0.138971850275993,-0.0171042270958424
0,0.238888893369199,-0.0222222230277034,0.973611167959101,-0.0668897479772568,0.122173048555851,-0.0733038261532784
0,0.238888893369199,-0.0222222230277034,0.973611167959101,-0.0134390350431204,0.123089343309402,-0.0928515195846558
0,0.243055569018962,-0.026388891079988,0.980555627375371,-0.0418442711234093,0.0638354197144508,-0.0403171069920063
0,0.243055569018962,-0.029166668768514,0.979166735492117,-0.0766635909676552,0.00122173049021512,-0.0445931628346443
0,0.238888893369199,-0.0388888906783549,0.973611167959101,-0.0965167060494423,0.00885754637420177,-0.0607810914516449
0,0.233333350148112,-0.0347222241455659,0.969444492309338,-0.16890424489975,0.0167987942695618,-0.0241291765123606
0,0.234722242031366,-0.0250000007162294,0.96666670854283,-0.277332812547684,-0.205556154251099,0.0723875313997269
0,0.222222239394008,-0.0361111129898289,0.969444492309338,-0.275194793939591,-0.437990367412567,-0.108123145997524
0,0.233333350148112,-0.027777779924251,0.98888888142718,-0.0821613743901253,-0.0458148941397667,-0.170125976204872
0,0.270833333748257,-0.052777782159976,0.976388951725609,-0.0675006061792374,-0.139582708477974,-0.191506251692772
0,0.288888903918631,-0.0736111117849297,0.951388897827035,-0.0400116741657257,-0.240070044994354,-0.170736834406853
0,0.288888903918631,-0.0750000036681839,0.93750007624221,0.0561996027827263,-0.261450320482254,-0.178067222237587
0,0.298611122789481,-0.0722222259796579,0.923611157409668,0.0839939713478088,-0.644157409667969,-0.162795588374138
0,0.308333341660331,-0.106944444047242,0.906944454810619,0.0442877300083637,-1.22081422805786,-0.243735238909721
0,0.29166668768514,-0.029166668768514,0.923611157409668,0.138971850275993,-1.17927539348602,-0.509767055511475
0,0.309722233543585,-0.0458333348996699,0.961111141009813,0.176234617829323,-0.285274058580399,-0.565050363540649
0,0.404166687109433,-0.0152777788063885,0.969444492309338,-0.248316720128059,-0.375071257352829,-0.495411723852158
0,0.379166681834717,-0.113888891307548,0.886111173809523,-0.76694130897522,-0.815810561180115,-0.54916787147522
0,0.334722238818301,-0.134722233088466,0.733333358394718,-1.1688905954361,-0.537866830825806,-0.273667633533478
0,0.344444457689151,-0.055555559848502,0.729166682744956,-1.63284277915955,-0.0021380283869803,-0.399200439453125
0,0.334722238818301,-0.0986111170596459,0.825000028194058,-1.7324138879776,0.173791155219078,-0.363159388303757
0,0.365277787314105,-0.0916666697993398,0.972222276075846,-1.7290540933609,0.255341678857803,-0.446237057447434
0,0.469444484062732,-0.14583334384257,1.09444447005906,-0.980438709259033,0.433408886194229,-0.871399283409119
0,0.468055592179478,-0.154166670830166,1.05694448645892,-0.710436284542084,0.614225029945374,-1.17041778564453
0,0.430555559955475,-0.177777784221628,0.923611157409668,-0.999375522136688,-0.0870482996106148,-1.28495502471924
0,0.470833327322128,-0.283333336385615,0.879166714393253,-1.50822627544403,-1.85825204849243,-1.29747772216797
0,0.570833348420992,-0.395833335809908,0.784722260827405,-1.77975594997406,-3.35914802551269,-1.42820298671722
0,0.581944483487025,-0.406944470875941,0.82916670384382,-1.99661302566528,-4.05614519119263,-1.57419979572296
0,0.580555591603771,-0.358333352209763,0.812500049868629,-2.440101146698,-4.63707828521729,-1.74402022361755
0,0.697222266677827,-0.312500017310094,0.680555564078778,-3.53629899024963,-4.84355068206787,-1.75257241725922
0,0.725000007095193,-0.312500017310094,0.608333332021137,-3.67954683303833,-3.83501195907593,-1.67285442352295
0,0.695833374794573,-0.423611149163062,0.712500028769764,-2.79440307617188,-2.04731488227844,-0.922101080417633
0,0.70416667747024,-0.511111143312639,0.73055557462821,-2.08427214622498,-2.5558602809906,-0.20616702735424
0,0.731944466511464,-0.562499997121468,0.636111121062362,-2.02196407318115,-2.76508164405823,0.112093769013882
0,0.820833352544296,-0.404166687109433,0.458333348996699,-2.0323486328125,-3.69451308250427,-0.30695977807045
0,0.656944450687316,-0.190277786858986,0.230555566381603,-2.97460842132568,-5.62545824050903,-1.40407371520996
0,0.572222240304247,-0.315277801076602,0.376388898068209,-2.63282918930054,-2.08182883262634,-0.135001212358475
0,1.1861111398584,-0.597222245578963,0.358333352209763,-2.1823160648346,-1.27212691307068,-0.311846703290939
0,1.46666671678944,-0.545833343146276,0.0972222251763917,-2.06319737434387,-1.34298729896545,-0.652404069900513
0,1.04166667574312,-0.506944467662877,-0.052777782159976,-2.13589024543762,-0.647822618484497,-0.873231887817383
0,0.904166671044111,-0.470833327322128,0.0152777788063885,-2.36038327217102,-1.06534898281097,-0.837496280670166
0,1.0513889189259,-0.523611121638068,-0.0111111115138517,-2.43032741546631,-1.35428822040558,-0.867428660392761
0,1.15138894002476,-0.495833332596844,-0.0513888902767219,-2.55311131477356,-2.03448677062988,-1.04885566234589
0,1.15138894002476,-0.495833332596844,-0.0513888902767219,-1.93338847160339,-1.60962986946106,-0.410806864500046
0,0.805555590452358,-0.18333333959868,0.00555555575692586,-1.74035513401031,-1.28220617771149,0.0268780700862408
0,0.819444460661041,-0.212499996211229,-0.0750000036681839,-1.70156514644623,-1.12002146244049,0.168598800897598
0,0.873611146860236,-0.206944452990142,-0.130555557438704,-1.83229029178619,-0.923628270626068,0.00366519158706069
0,1.05416670269241,-0.288888903918631,-0.216666671860991,-2.17681837081909,-0.812450766563416,-0.352469235658646
0,1.03888889197661,-0.288888903918631,-0.248611112240049,-2.36068868637085,-0.752891421318054,-0.585819780826569
0,0.898611103511094,-0.0486111125881959,-0.250000004123303,-2.26630997657776,-0.590095818042755,-1.49509263038635
0,0.78333336894415,0.0500000014324589,-0.20972223675665,-2.03509759902954,-0.272445887327194,-1.48318076133728
0,0.848611190209378,-0.0152777788063885,-0.218055563744246,-1.62215268611908,-0.297796815633774,-1.74890720844269
0,0.923611157409668,-0.315277801076602,-0.286111120152123,-1.06504356861115,-0.248011291027069,-1.532355427742
0,0.923611157409668,-0.315277801076602,-0.286111120152123,-0.494495421648026,0.078801617026329,-0.558636248111725
0,0.808333374218867,-0.284722228268869,-0.184722231481934,-0.167682513594627,-0.0271835029125214,0.122783914208412
0,0.805555590452358,-0.0875000002275597,-0.125000002061652,-0.096211276948452,-0.0696386396884918,-0.0769690200686455
0,0.805555590452358,-0.0875000002275597,-0.125000002061652,-0.115453533828259,-0.164628177881241,-0.416610091924667
0,0.906944454810619,-0.113888891307548,-0.150000007336368,-0.124921940267086,-0.177150920033455,-1.1844676733017
0,1.00694447590948,-0.272222225631511,-0.184722231481934,-0.302378296852112,-0.0125227374956012,-1.41170954704285
0,0.979166735492117,-0.265277790527169,-0.12777778582816,-1.07420659065247,0.274278491735458,-0.754724025726318
0,0.963888924776322,-0.0819444448505077,0.00555555575692586,-1.48592972755432,0.318566232919693,0.029626963660121
0,1.04166667574312,-0.0791666671619817,-0.13750000469901,-1.33107531070709,0.532979905605316,-0.350331217050552
0,1.22361112345855,-0.156944454596674,-0.256944463539574,-1.70706295967102,0.287412106990814,-0.220827788114548
0,1.1625000750908,-0.156944454596674,-0.283333336385615,-1.3045027256012,0.364075690507889,-0.764803290367126
0,1.37083337134033,-0.0500000014324589,-0.384722225055805,-0.113620936870575,0.124311074614525,0.353385537862778
0,1.29305562037354,0.105555564319952,-0.297222230906227,-0.112704634666443,0.194560587406159,0.574518740177155
0,1.1083333888916,0.0388888906783549,-0.256944463539574,-0.184481307864189,0.52870386838913,0.287106662988663
0,0.975000059842355,0.0236111118719664,-0.258333331110899,-0.237321153283119,0.69730269908905,-0.186924770474434
0,0.95000000594378,0.0166666676506515,-0.273611117514765,-0.644157409667969,0.6139195561409,-0.00610865233466029
0,0.959722249126559,0.029166668768514,-0.280555576931036,-0.131641462445259,0.495106279850006,0.142026171088219
0,0.98888888142718,-0.029166668768514,-0.323611128064198,-0.0833831056952477,0.707381963729858,0.0485637858510017
0,0.994444448960196,-0.00416666691266287,-0.298611122789481,-0.113010071218014,0.437074095010758,-0.226325571537018
0,1.02500007039179,0.0152777788063885,-0.234722242031366,-0.611170649528503,0.351552963256836,-0.0354301854968071
0,1.00277780025972,-0.00694444498106275,-0.213888888094483,-0.564744889736176,0.325896620750427,-0.151800006628036
0,1.0333333244436,0.0583333375370279,-0.206944452990142,-0.711352586746216,0.00183259579353034,-0.156076073646545
0,0.973611167959101,0.102777780553444,-0.13750000469901,-0.480140089988708,0.275805652141571,-0.00244346098043024
0,0.993055557076942,0.0819444448505077,-0.13750000469901,-0.511905074119568,0.432492583990097,-0.321315109729767
0,0.962500032893068,-0.027777779924251,-0.150000007336368,-0.587957799434662,0.959974706172943,-0.719904720783234
0,0.94305554652751,0.0152777788063885,-0.19166667874224,-0.466701060533524,0.732427418231964,-1.16064393520355
0,1.00972225967599,-0.00138888893923146,-0.20972223675665,-0.594066441059113,0.536034226417542,-1.19607412815094
0,1.00833336779274,0.0694444482911319,-0.169444445078067,-0.569326400756836,0.441044718027115,-1.09589219093323
0,0.983333411141879,0.0986111170596459,-0.116666675074056,-0.622166275978088,0.430049121379852,-1.17958080768585
0,0.952777789710289,0.0833333367337618,-0.0736111117849297,-0.56016343832016,1.17927539348602,-1.69240212440491
0,0.898611103511094,0.150000007336368,-0.0541666679652478,-0.630412936210632,1.58702790737152,-2.0635027885437
0,0.92083337364316,0.252777787889811,-0.0750000036681839,-0.836885392665863,1.3213015794754,-2.15116190910339
0,0.969444492309338,0.355555568443255,-0.0777777813567098,-0.453567445278168,0.615141272544861,-1.78983521461487
0,0.986111194908388,0.334722238818301,-0.055555559848502,0.00946841109544039,0.499993205070496,-1.29686689376831
0,0.979166735492117,0.383333357484479,0.138888896582264,-0.47647488117218,1.14292883872986,-0.391564607620239
0,0.965277816659576,0.498611116363352,0.055555559848502,-0.503963828086853,0.890030682086945,-0.171958565711975
0,1.04583335139288,0.506944467662877,0.0402777795226179,0.0448985956609249,0.0812450796365738,0.0253509078174829
0,1.08472222687628,0.406944470875941,0.0666666706026059,-0.106290549039841,-0.489608496427536,0.113010071218014
0,0.975000059842355,0.352777784676747,0.030555557612777,0.0397062413394451,-0.0809396430850029,0.352774679660797
0,0.906944454810619,0.412500014097029,0.0597222233422998,0.331699818372726,0.859487414360046,0.604756593704224
0,0.956944465360051,0.398611119576417,0.0361111129898289,0.219911485910416,0.945924818515778,0.435241490602493
0,1.08055555122652,0.338888890156135,-0.03194444645704,-0.0421497002243996,0.18509216606617,0.568410098552704
0,1.05555559457566,0.329166671285285,0.0597222233422998,-0.219300627708435,-0.382707089185715,0.993266880512238
0,1.05555559457566,0.318055560531181,0.0708333340964038,-0.318260788917542,-0.768468499183655,0.939816176891327
0,0.787500044593913,0.181944447715425,-0.305555557893823,0.0815505087375641,-3.4358115196228,0.929736912250519
0,0.809722266102121,0.24583335278547,0.197222234119292,0.410806864500046,0.554665625095367,0.776104271411896
0,0.840277838909853,0.412500014097029,0.188888894975731,-0.242208063602448,-0.276111096143722,0.692110300064087
0,0.959722249126559,0.269444466176932,0.0250000007162294,0.211664810776711,0.474031418561935,0.868955790996552
0,0.918055589876652,0.243055569018962,0.0625000010308258,0.131030589342117,0.711047172546387,0.372322380542755
0,1.00277780025972,0.118055554801345,-0.0166666676506515,-0.424551337957382,0.498160600662232,-0.158214092254639
0,1.03888889197661,0.104166672436698,-0.18333333959868,-0.135306656360626,0.0332921557128429,-0.813061654567719
0,0.954166681593543,0.200000005729836,-0.252777787889811,0.26908615231514,0.483805269002914,-1.82221102714539
0,0.765277823085705,0.163888889701015,-0.0388888906783549,-0.0937678143382072,0.0458148941397667,-2.53997778892517
0,0.759722255552688,-0.623611142736933,-0.172222228844576,-0.64537912607193,-2.60656189918518,-0.878118813037872
0,1.21805555592553,0.906944454810619,0.163888889701015,0.00549778714776039,0.35979962348938,1.41965079307556
0,1.08194444310977,0.548611126912784,0.0986111170596459,0.584903478622437,-0.257479697465897,1.55862271785736
0,0.581944483487025,0.240277785252453,0.0638888929140799,0.835969090461731,-0.850629866123199,2.94192695617676
0,0.812500049868629,0.0680555564078778,-0.0875000002275597,0.632550954818726,-0.753807723522186,3.15389728546143
0,1.43055562507255,0.294444447139719,-0.026388891079988,-0.456927210092545,-0.411723166704178,1.09283792972565
0,1.27222224212472,0.0583333375370279,-0.0625000010308258,-0.273667633533478,-0.325285732746124,0.675922393798828
0,1.30138897167306,0.00416666691266287,-0.105555564319952,0.124616511166096,0.305127203464508,0.112093769013882
0,1.21388897752348,0.113888891307548,-0.104166672436698,0.0507018156349659,0.631329238414764,-0.0879645943641663
0,1.0694445134082,0.134722233088466,-0.0222222230277034,0.0913243517279625,0.975857257843018,-0.184175878763199
0,0.976388951725609,0.148611115453114,-0.0708333340964038,0.124616511166096,0.912632703781128,-0.19058994948864
0,0.911111130460381,0.170833336961321,0.03194444645704,0.186313897371292,0.781296670436859,-0.0143553335219622
0,0.980555627375371,0.159722226207217,-0.0152777788063885,0.0342084541916847,0.355218142271042,0.131336033344269
0,1.00416669214298,0.0944444474878658,-0.0444444460554069,-0.106595985591412,0.499382346868515,0.198836639523506
0,0.936111184358955,0.136111112815755,0.0416666683668809,-0.548251569271088,0.256868839263916,0.167377084493637
0,0.895833319744586,0.144444451959316,0.0680555564078778,-0.241291776299477,0.357967019081116,0.526260435581207
0,0.895833319744586,0.144444451959316,0.0680555564078778,-0.238848313689232,0.228158175945282,0.334754168987274
0,1.07500008094122,0.030555557612777,0.150000007336368,0.0726929605007172,0.158214092254639,0.353690981864929
0,1.07500008094122,0.0902777839940679,0.0569444456537738,0.134084925055504,0.0424551330506802,-0.0180205255746841
0,1.07500008094122,0.0902777839940679,0.0569444456537738,0.0916297882795334,-0.0601702257990837,-0.0290160998702049
0,0.990277773310434,0.101388894748172,0.0375000018340919,0.0888808965682983,-0.181732416152954,0.0626136884093285
0,0.947222222177272,0.106944444047242,0.030555557612777,0.029626963660121,-0.0497855171561241,0.167071640491486
0,0.947222222177272,0.106944444047242,0.030555557612777,0.143247902393341,0.0797179117798805,0.284663200378418
0,0.98888888142718,0.0819444448505077,0.0444444460554069,0.0222965814173222,0.000305432622553781,0.221133217215538
0,1.09166668629255,0.115277783190802,0.0250000007162294,0.0277943685650826,0.000305432622553781,0.20616702735424
0,1.09166668629255,0.115277783190802,0.0250000007162294,-0.193033412098885,-0.156992360949516,0.147218525409698
0,1.04166667574312,0.0638888929140799,0.0666666706026059,0.0678060427308083,0.00855211354792118,0.165239050984383
0,1.05972227022542,0.0583333375370279,0.0666666706026059,0.151189148426056,-0.0323758572340012,0.564134061336517
0,1.05972227022542,0.0583333375370279,0.0666666706026059,-0.000916297896765172,0.0033597587607801,0.310014098882675
0,0.997222232726705,0.0861111144222878,0.00416666691266287,-0.0733038261532784,0.167377084493637,0.16371189057827
0,1.00277780025972,0.055555559848502,0.026388891079988,-0.0204639863222837,0.195476874709129,0.240680903196335
0,1.07222229717471,0.0236111118719664,0.0138888899621255,-0.111788339912891,0.201280102133751,0.11117747426033
0,1.02916674604155,0.0458333348996699,0.0486111125881959,-0.187535628676414,-0.165544480085373,0.0384845100343227
0,1.00277780025972,0.0486111125881959,0.0791666671619817,-0.0769690200686455,-0.188757359981537,0.253509074449539
0,1.06527783775844,0.0375000018340919,0.105555564319952,0.150272846221924,-0.0277943685650826,0.542448341846466
0,1.02916674604155,0.0680555564078778,0.0694444482911319,0.0901026204228401,-0.0277943685650826,0.408363401889801
0,1.00972225967599,0.0680555564078778,0.00416666691266287,-0.0412334054708481,-0.124005645513535,0.632245540618896
0,1.01388893532575,0.0236111118719664,0.0111111115138517,-0.0864374339580536,-0.127670839428902,0.791986763477325
0,1.08333333499303,0.0166666676506515,0.03194444645704,-0.102930791676045,-0.223271250724793,0.62002819776535
0,1.0125000434425,0.0222222230277034,0.0250000007162294,-0.148745685815811,-0.173791155219078,0.637743294239044
0,1.02916674604155,-0.0180555564949145,0.0458333348996699,0.011606439948082,-0.194255143404007,0.930347740650177
0,0.997222232726705,0.00277777787846293,0.0430555572111439,0.103541657328606,-0.196698606014252,0.693332076072693
0,0.993055557076942,-0.027777779924251,0.0375000018340919,0.100792765617371,-0.206777885556221,0.353385537862778
0,0.99583334084345,-0.0805555590452358,-0.0222222230277034,-0.107512280344963,-0.166155353188515,0.320704251527786
0,0.94305554652751,-0.0500000014324589,0.0361111129898289,0.0754418596625328,-0.0226020142436027,0.22235494852066
0,1.01666671909226,-0.0500000014324589,0.0472222237439329,0.176540061831474,0.0430659987032413,0.184786736965179
0,0.788888936477167,-0.125000002061652,-0.0513888902767219,0.0021380283869803,-0.22174409031868,1.19210350513458
0,0.176388892338373,-0.283333336385615,0.0736111117849297,0.414472073316574,-0.559247136116028,3.34723615646362
0,1.14861115625826,0.0916666697993398,-0.14722222356986,-0.744950175285339,0.00702495034784079,1.13743114471436
0,1.05833337834217,-0.0444444460554069,0.0652777787193518,-0.0965167060494423,-0.16401731967926,1.25471723079681
0,0.98888888142718,-0.237500001485945,0.0541666679652478,0.225409269332886,-0.13744467496872,1.17683184146881
0,1.03194452980806,-0.265277790527169,0.0958333393711199,0.16371189057827,-1.01250910758972,1.10994219779968
0,1.11250006454136,-0.301388906555989,-0.0833333367337618,-0.275500237941742,-0.769690215587616,0.434325188398361
0,1.10972228077486,-0.320833344297689,-0.0750000036681839,0.00733038317412138,-0.0952949747443199,0.105374254286289
0,1.11250006454136,-0.318055560531181,-0.101388894748172,0.183870434761047,0.410196006298065,0.0406225398182869
0,1.03888889197661,-0.272222225631511,-0.00972222266958873,0.175623759627342,0.21135938167572,0.0290160998702049
0,1.03750000009336,-0.29166668768514,-0.0777777813567098,-0.0809396430850029,0.0711658000946045,0.00152716308366507
0,0.980555627375371,-0.329166671285285,-0.111111119697004,-0.153021737933159,0.159130394458771,-0.0739146918058395
0,0.893055633225794,-0.279166685047782,-0.00833333382532574,-0.0412334054708481,0.219606056809425,-0.268169850111008
0,0.863888903677457,-0.272222225631511,-0.0194444453391775,0.0326812900602817,0.160657554864883,-0.377514719963074
0,0.983333411141879,-0.265277790527169,0.00694444498106275,0.155159771442413,-0.199447497725487,-0.0287106670439243
0,0.969444492309338,-0.275000009398019,-0.029166668768514,0.21135938167572,0.0827722400426865,-0.343000829219818
0,0.990277773310434,-0.269444466176932,-0.00555555575692586,0.0815505087375641,0.154243469238281,-0.433714330196381
0,0.923611157409668,-0.248611112240049,-0.0583333375370279,-0.117896988987923,0.0650571510195732,-0.463035851716995
0,1.00277780025972,-0.237500001485945,-0.0208333341834404,-0.103236228227615,0.0662788823246956,-0.229379892349243
0,1.07638897282447,-0.236111109602691,-0.0180555564949145,-0.0106901414692402,0.110261179506779,-0.266031801700592
0,1.07500008094122,-0.236111109602691,-0.00555555575692586,0.0503963828086853,0.175318330526352,-0.278249114751816
0,1.07222229717471,-0.248611112240049,-0.0194444453391775,-0.017409659922123,0.172874867916107,-0.34330627322197
0,1.05555559457566,-0.195833342236038,-0.03194444645704,-0.10598511993885,0.193644285202026,-0.266031801700592
0,1.02916674604155,-0.187500003092477,-0.00277777787846293,-0.081855945289135,0.119118720293045,-0.187841057777405
0,1.00416669214298,-0.187500003092477,-0.00694444498106275,-0.149356558918953,-0.0687223374843597,-0.0998764708638191
0,1.00555558402623,-0.216666671860991,-0.00416666691266287,-0.114537231624126,-0.0461203269660473,-0.0717766657471657
0,1.03888889197661,-0.212499996211229,0.0138888899621255,-0.0265726372599602,-0.0882700309157372,-0.0858265683054924
0,1.00416669214298,-0.197222234119292,0.0166666676506515,0.0409279726445675,-0.164933621883392,-0.01191187184304
0,1.00277780025972,-0.186111123365188,-0.0194444453391775,-0.0879645943641663,-0.0815505087375641,0.0534507073462009
0,1.01805561097552,-0.212499996211229,-0.03194444645704,-0.142331600189209,-0.0222965814173222,-0.00122173049021512
0,1.05833337834217,-0.226388890731841,-0.00555555575692586,-0.0833831056952477,-0.0534507073462009,-0.0485637858510017
0,1.02361117850853,-0.202777789496344,0.0125000003581147,-0.0302378293126821,-0.147523954510689,-0.0262672062963247
0,0.938888968125464,-0.190277786858986,0.0652777787193518,0.216246291995048,-0.0983493030071259,0.0229074470698834
0,0.983333411141879,-0.17361112072783,-0.0486111125881959,0.289550125598908,0.218078896403313,0.064446285367012
0,1.05555559457566,-0.197222234119292,-0.052777782159976,0.176540061831474,0.0653625801205635,0.0149661982432008
0,1.06527783775844,-0.208333344873396,0.0444444460554069,0.408057987689972,0.246178686618805,0.0546724386513233
0,1.04583335139288,-0.190277786858986,-0.0736111117849297,0.198836639523506,0.462730437517166,0.0491746515035629
0,1.00972225967599,-0.177777784221628,-0.0638888929140799,-0.118813291192055,0.372933238744736,0.070249505341053
0,0.99583334084345,-0.202777789496344,0.00416666691266287,-0.209832206368446,0.167071640491486,0.0607810914516449
0,1.00277780025972,-0.2194444556275,0.0819444448505077,-0.140193566679955,-0.160046696662903,-0.0280998013913631
0,0.963888924776322,-0.234722242031366,0.104166672436698,0.154548913240433,-0.603840291500092,-0.139277279376984
0,1.02638896227504,-0.243055569018962,0.03194444645704,0.273362189531326,-0.745255589485168,-0.203112691640854
0,1.0333333244436,-0.200000005729836,-0.00555555575692586,0.219606056809425,-0.579711139202118,-0.155465200543404
0,1.0333333244436,-0.200000005729836,-0.00555555575692586,0.109344877302647,-0.211664810776711,-0.076052725315094
0,1.04583335139288,-0.181944447715425,-0.0986111170596459,0.0561996027827263,0.495106279850006,-0.0033597587607801
0,0.991666665193688,-0.206944452990142,-0.00277777787846293,0.210137650370598,0.395840674638748,0.0128281703218818
0,0.991666665193688,-0.206944452990142,-0.00277777787846293,0.176234617829323,-0.0717766657471657,-0.0045814891345799
0,0.983333411141879,-0.188888894975731,0.0152777788063885,0.076052725315094,-0.162490159273148,-0.0922406539320946
0,0.99583334084345,-0.156944454596674,-0.0194444453391775,-0.0335975885391235,-0.418442696332932,-0.142637029290199
0,1.01527782720901,-0.134722233088466,-0.030555557612777,-0.209526777267456,-0.521984338760376,-0.212886542081833
0,1.01527782720901,-0.134722233088466,-0.030555557612777,-0.40225476026535,-0.457232624292374,-0.156686931848526
0,1.15972229132429,-0.212499996211229,-0.108333335930496,-0.29046642780304,0.314595609903336,0.00671951752156019
0,1.13888891307548,-0.250000004123303,-0.134722233088466,-0.213191971182823,1.23425328731537,0.0171042270958424
0,1.13888891307548,-0.250000004123303,-0.134722233088466,-0.161268427968025,1.0622946023941,-0.00885754637420177
0,0.963888924776322,-0.179166676104882,0.0736111117849297,-0.0839939713478088,0.384539663791656,-0.00122173049021512
0,0.998611124609959,-0.161111118090472,0.0430555572111439,0.616973876953125,-0.157297804951668,0.417220950126648
0,0.998611124609959,-0.161111118090472,0.0430555572111439,0.0720821022987366,-0.471282541751862,-0.0494800843298435
0,0.883333390043015,-0.208333344873396,0.0791666671619817,-0.0473420582711697,-0.26969701051712,-0.458148926496506
0,1.00972225967599,-0.162500009973726,0.00555555575692586,0.214108273386955,-0.499382346868515,0.0751364231109619
0,1.00972225967599,-0.162500009973726,0.00555555575692586,0.0522289797663689,-0.455400049686432,-0.0635299831628799
0,0.980555627375371,-0.193055558469529,-0.029166668768514,-0.273973047733307,0.616363048553467,0.0937678143382072
0,1.08194444310977,-0.136111112815755,-0.286111120152123,-0.100792765617371,0.796873688697815,0.00183259579353034
0,1.0333333244436,-0.180555567988136,0.10972222781375,-0.00244346098043024,-0.188146501779556,-0.03176499158144
0,0.96666670854283,-0.194444450352783,0.0416666683668809,-0.0021380283869803,-0.0262672062963247,-0.0259617734700441
0,1.02777785415829,-0.190277786858986,0.0416666683668809,-0.0335975885391235,-0.01191187184304,0.00183259579353034
0,1.00972225967599,-0.190277786858986,0.00555555575692586,0.0146607663482428,0.00152716308366507,-0.00733038317412138
0,1.01805561097552,-0.194444450352783,-0.00138888893923146,0.0311541277915239,0.0565050356090069,-0.0100792767480016
0,1.01388893532575,-0.179166676104882,-0.00138888893923146,-0.01588249579072,0.00977384392172098,-0.0354301854968071
0,1.01111115155925,-0.19166667874224,-0.00138888893923146,-0.00183259579353034,0.0128281703218818,-0.0675006061792374
0,1.0125000434425,-0.187500003092477,0.00416666691266287,0.0171042270958424,0.0268780700862408,-0.0500909499824047
0,1.05416670269241,-0.212499996211229,-0.0111111115138517,-0.120340451598167,-0.117896988987923,-0.124311074614525
0,1.00972225967599,-0.176388892338373,-0.00277777787846293,-0.103847093880177,-0.181732416152954,-0.0956004112958908
0,1.00138890837647,-0.15555556271342,-0.00277777787846293,-0.213191971182823,-0.240986332297325,-0.0726929605007172
0,0.94305554652751,-0.148611115453114,-0.0111111115138517,-0.218384325504303,-0.377514719963074,-0.0381790772080422
0,1.07916665934326,-0.17361112072783,0.00555555575692586,-0.170736834406853,-0.348498612642288,-0.0213802829384804
0,1.05416670269241,-0.177777784221628,-0.0375000018340919,-0.257174253463745,-0.338113903999329,-0.145080491900444
0,1.06250005399193,-0.205555561106887,-0.0666666706026059,-0.152105450630188,-0.347887754440308,-0.13225232064724
0,1.11805563207438,-0.144444451959316,-0.052777782159976,0.191200822591782,0.606894612312317,-0.0293215326964855
0,1.0513889189259,-0.120833338567854,-0.0236111118719664,0.0125227374956012,0.24312436580658,0.0632245540618896
0,0.916666697993398,-0.190277786858986,0.0111111115138517,0.347582310438156,0.265115529298782,0.197920337319374
0,1.00277780025972,-0.190277786858986,0.0111111115138517,-0.00824668072164059,0.0500909499824047,0.142331600189209
0,1.01666671909226,-0.213888888094483,-0.0444444460554069,0.191200822591782,-0.0748309940099716,0.109650313854218
0,1.10138892947533,-0.202777789496344,-0.166666673467524,-0.265726387500763,0.733954608440399,-0.274278491735458
0,0.86805557932722,-0.118055554801345,0.158333334323963,-0.0186313893646002,-0.380874484777451,-0.0729983970522881
0,0.947222222177272,-0.14722222356986,-0.0444444460554069,-0.0959058403968811,0.0125227374956012,-0.0733038261532784
0,1.03750000009336,-0.181944447715425,0.0347222241455659,0.171958565711975,-0.228158175945282,-0.00763581553474069
0,1.07916665934326,-0.177777784221628,0.00972222266958873,0.190895393490791,-0.513126790523529,0.104152522981167
0,0.968055600426084,-0.152777778946911,-0.0777777813567098,-0.0922406539320946,-0.0592539273202419,0.0647517144680023
0,1.04861113515939,-0.17361112072783,-0.0125000003581147,0.0140499006956816,0.70829826593399,-0.00702495034784079
0,0.998611124609959,-0.162500009973726,0.03194444645704,0.0595593601465225,-0.04764748737216,0.0103847095742822
0,1.04583335139288,-0.17361112072783,-0.0222222230277034,-0.0183259565383196,0.117286130785942,0.0161879286170006
0,0.984722303025134,-0.161111118090472,-0.0222222230277034,-0.0394008085131645,0.0284052342176437,-0.00305432616733015
0,0.956944465360051,-0.172222228844576,0.026388891079988,0.0620028227567673,-0.284663200378418,-0.0189368221908808
0,0.991666665193688,-0.184722231481934,0.00694444498106275,-0.0106901414692402,-0.390342891216278,-0.0595593601465225
0,1.26944445835822,-0.205555561106887,-0.052777782159976,-0.0665843114256859,0.128281697630882,-0.129503428936005
0,1.07083340529146,-0.158333334323963,-0.0583333375370279,-0.017409659922123,0.340557366609573,0.000610865245107561
0,1.02500007039179,-0.156944454596674,0.0180555564949145,-0.0745255574584007,0.129808858036995,0.0458148941397667
0,1.02916674604155,-0.18333333959868,-0.00277777787846293,-0.0641408488154411,0.303905457258224,0.0665843114256859
0,1.11527784830787,-0.223611131277262,0.00555555575692586,0.058643065392971,0.51923543214798,-0.0247400421649218
0,1.11527784830787,-0.223611131277262,0.00555555575692586,0.0363464802503586,0.114537231624126,0.00397062394768
0,0.993055557076942,-0.17361112072783,0.0583333375370279,0.11606439948082,0.112399205565453,-0.0183259565383196
0,1.00277780025972,-0.179166676104882,0.0583333375370279,0.0342084541916847,0.161573857069016,0.0226020142436027
0,0.998611124609959,-0.172222228844576,0.0458333348996699,0.0455094613134861,0.390037447214127,-0.0232128798961639
0,0.977777843608863,-0.151388899219622,0.0486111125881959,0.0400116741657257,0.168293371796608,0.0378736443817616
0,1.04305556762637,-0.161111118090472,-0.00277777787846293,-0.187230199575424,0.156381502747536,0.0262672062963247
0,1.10277782135859,-0.125000002061652,-0.00277777787846293,-0.182343274354935,0.54916787147522,0.0537561401724815
0,1.05000002704265,-0.180555567988136,0.0541666679652478,-0.0494800843298435,0.57604593038559,-0.00427605677396059
0,0.998611124609959,-0.18333333959868,0.0430555572111439,-0.0577267669141293,0.543364644050598,-0.0326812900602817
0,1.00277780025972,-0.180555567988136,0.106944444047242,-0.0235183127224445,0.56016343832016,0.0473420582711697
0,1.0305556379248,-0.169444445078067,0.0986111170596459,0.0397062413394451,0.481056392192841,0.00702495034784079
0,1.00277780025972,-0.166666673467524,0.10972222781375,0.105068825185299,0.564744889736176,-0.0452040284872055
0,1.00555558402623,-0.166666673467524,0.0930555616825939,0.122173048555851,0.447153359651566,-0.0400116741657257
0,0.975000059842355,-0.17361112072783,0.108333335930496,0.0815505087375641,0.146607652306557,-0.0265726372599602
0,0.975000059842355,-0.166666673467524,0.113888891307548,0.0314595587551594,-0.0574213340878487,-0.0461203269660473
0,0.975000059842355,-0.169444445078067,0.104166672436698,-0.0690277740359306,-0.0928515195846558,-0.0381790772080422
0,1.00972225967599,-0.168055565350778,0.113888891307548,-0.03176499158144,-0.0659734457731247,0.0125227374956012
0,1.05277781080915,-0.169444445078067,0.112499999424294,0.0250454749912024,0.148745685815811,0.0100792767480016
0,1.04861113515939,-0.170833336961321,0.111111119697004,0.124005645513535,0.387593984603882,0.0323758572340012
0,1.00694447590948,-0.170833336961321,0.113888891307548,0.127976268529892,0.24862214922905,0.0503963828086853
0,0.984722303025134,-0.179166676104882,0.116666675074056,0.0891863256692886,0.0516181141138077,0.0574213340878487
0,0.965277816659576,-0.17361112072783,0.112499999424294,0.0507018156349659,-0.0259617734700441,0.0164933614432812
0,1.02361117850853,-0.166666673467524,0.13750000469901,-0.00977384392172098,0.00549778714776039,0.02382374368608
0,1.04305556762637,-0.161111118090472,0.134722233088466,0.0467311926186085,0.1750128865242,0.00427605677396059
0,1.04861113515939,-0.158333334323963,0.13750000469901,0.037568211555481,0.166155353188515,-0.01191187184304
0,1.00416669214298,-0.154166670830166,0.134722233088466,-0.0189368221908808,-0.0696386396884918,0.0629191175103188
0,0.99583334084345,-0.158333334323963,0.140277788465518,-0.090408056974411,-0.208305045962334,0.0977384373545647
0,1.01527782720901,-0.169444445078067,0.166666673467524,-0.0473420582711697,-0.144775062799454,0.0656680166721344
0,1.00972225967599,-0.180555567988136,0.179166676104882,0.019547687843442,-0.417831838130951,0.0635299831628799
0,0.979166735492117,-0.163888889701015,0.118055554801345,-0.00244346098043024,-0.883921980857849,0.0806342139840126
0,0.976388951725609,-0.16527778158427,0.0916666697993398,-0.0473420582711697,-1.20523715019226,0.0595593601465225
0,1.05277781080915,-0.170833336961321,0.0486111125881959,-0.0696386396884918,-0.723875343799591,-0.0320704244077206
0,0.99583334084345,-0.17361112072783,0.108333335930496,-0.0604756586253643,0.0675006061792374,-0.0598647929728031
0,0.986111194908388,-0.180555567988136,0.0833333367337618,-0.0262672062963247,-0.196393176913261,-0.00183259579353034
0,0.98888888142718,-0.181944447715425,0.0722222259796579,0.00397062394768,-0.16401731967926,0.00244346098043024
0,1.03194452980806,-0.188888894975731,0.0361111129898289,0.0696386396884918,-0.0769690200686455,0.0320704244077206
0,1.05555559457566,-0.180555567988136,0.0166666676506515,0.0280998013913631,-0.00366519158706069,0.0314595587551594
0,1.05277781080915,-0.187500003092477,0.0166666676506515,-0.0113010071218014,0.240986332297325,0.0027488935738802
0,1.01527782720901,-0.180555567988136,0.0458333348996699,-0.01588249579072,0.347887754440308,-0.0134390350431204
0,1.0125000434425,-0.177777784221628,0.0750000036681839,0.0268780700862408,0.204639852046967,0.00366519158706069
0,1.00833336779274,-0.169444445078067,0.0444444460554069,-0.0235183127224445,0.187535628676414,-0.00702495034784079
0,1.00972225967599,-0.184722231481934,0.0625000010308258,-0.0632245540618896,0.219606056809425,-0.0152716310694814
0,1.01666671909226,-0.184722231481934,0.0875000002275597,-0.0293215326964855,0.188757359981537,0.0164933614432812
0,0.993055557076942,-0.190277786858986,0.101388894748172,0.0470366254448891,0.22754730284214,0.0280998013913631
0,1.00694447590948,-0.190277786858986,0.122222230451108,0.0687223374843597,0.149356558918953,0.0290160998702049
0,1.00833336779274,-0.17361112072783,0.0750000036681839,0.0247400421649218,-0.00733038317412138,0.0613919571042061
0,1.00833336779274,-0.17361112072783,0.0750000036681839,-0.0500909499824047,-0.176845490932465,0.0558941699564457
0,1.00833336779274,-0.170833336961321,0.0722222259796579,-0.0394008085131645,-0.252898216247559,0.0754418596625328
0,1.0361111082101,-0.163888889701015,0.0722222259796579,-0.0177150927484035,-0.141109868884087,0.0668897479772568
0,1.04027778385987,-0.16527778158427,0.0777777813567098,-0.0177150927484035,-0.138360977172852,0.064446285367012
0,1.04027778385987,-0.16527778158427,0.0777777813567098,-0.0882700309157372,-0.374154955148697,0.0433714315295219
0,0.986111194908388,-0.181944447715425,0.0888888921108138,-0.0598647929728031,-0.576656818389893,0.0418442711234093
0,0.975000059842355,-0.190277786858986,0.0819444448505077,-0.00244346098043024,-0.725097060203552,0.0583376325666905
0,0.981944519258625,-0.181944447715425,0.0722222259796579,0.208305045962334,-0.154243469238281,0.102625362575054
0,1.05694448645892,-0.154166670830166,0.00555555575692586,0.0497855171561241,-0.265726387500763,0.0458148941397667
0,1.00277780025972,-0.179166676104882,0.0250000007162294,0.0772744566202164,-0.324674874544144,0.0305432621389627
0,0.98888888142718,-0.176388892338373,0.0250000007162294,-0.0873537287116051,-0.382707089185715,0.00549778714776039
0,1.00277780025972,-0.184722231481934,0.0250000007162294,-0.0613919571042061,-0.30695977807045,0.0189368221908808
0,1.04583335139288,-0.194444450352783,-0.00277777787846293,-0.00916297826915979,-0.10598511993885,0.0311541277915239
0,1.01944450285877,-0.197222234119292,0.00555555575692586,-0.00702495034784079,-0.0748309940099716,0.0210748501121998
0,1.01527782720901,-0.19166667874224,0.00555555575692586,-0.00610865233466029,-0.0980438739061356,0.0149661982432008
0,1.0125000434425,-0.184722231481934,-0.00555555575692586,-0.00855211354792118,-0.0656680166721344,0.013744467869401
0,1.01527782720901,-0.194444450352783,-0.00555555575692586,-0.0189368221908808,-0.0525344125926495,0.0268780700862408
5,1.02361117850853,-0.197222234119292,-0.00277777787846293,-0.017409659922123,-0.0308486949652433,0.0171042270958424
5,1.02361117850853,-0.197222234119292,-0.00277777787846293,-0.0033597587607801,-0.0198531206697226,0.00610865233466029
5,1.0125000434425,-0.197222234119292,-0.00555555575692586,0.0122173046693206,-0.0397062413394451,0.00549778714776039
5,1.01527782720901,-0.194444450352783,-0.00833333382532574,0.0210748501121998,-0.0479529201984406,0.0232128798961639
5,1.01527782720901,-0.194444450352783,-0.00833333382532574,0.0235183127224445,-0.0372627787292004,0.00794124789535999
5,1.01527782720901,-0.20138889761309,-0.00972222266958873,0.0345138870179653,-0.0284052342176437,0.0125227374956012
5,1.0125000434425,-0.208333344873396,-0.0138888899621255,0.0540615729987621,-0.0164933614432812,0.00946841109544039
5,1.0125000434425,-0.208333344873396,-0.0138888899621255,0.0332921557128429,-0.0311541277915239,0.00916297826915979
5,1.00972225967599,-0.193055558469529,-0.0152777788063885,0.0265726372599602,-0.0348193198442459,0.0103847095742822
5,1.01388893532575,-0.200000005729836,-0.00972222266958873,0.0171042270958424,-0.0247400421649218,0.000305432622553781
5,1.01388893532575,-0.200000005729836,-0.00972222266958873,0.00397062394768,-0.011606439948082,0.0131336031481624
5,1.0125000434425,-0.200000005729836,-0.00972222266958873,-0.00733038317412138,0.00397062394768,0.0027488935738802
5,1.01111115155925,-0.190277786858986,-0.00833333382532574,-0.0290160998702049,-0.0027488935738802,0.00305432616733015
5,1.00833336779274,-0.18333333959868,-0.00833333382532574,-0.0558941699564457,0.00763581553474069,-0.00885754637420177
5,1.02083339474202,-0.184722231481934,-0.0125000003581147,-0.0830776765942574,0.037568211555481,-0.027488935738802
5,1.02083339474202,-0.188888894975731,-0.00972222266958873,-0.113315500319004,0.0339030213654041,-0.0384845100343227
5,1.01805561097552,-0.184722231481934,-0.00972222266958873,-0.106290549039841,0.00122173049021512,-0.0348193198442459
5,1.00972225967599,-0.197222234119292,0.0208333341834404,-0.0888808965682983,-0.0549778714776039,-0.0442877300083637
5,1.00972225967599,-0.188888894975731,0.00277777787846293,-0.102930791676045,-0.0595593601465225,-0.0448985956609249
5,1.0125000434425,-0.180555567988136,-0.0152777788063885,-0.11117747426033,-0.0314595587551594,-0.0372627787292004
5,1.01944450285877,-0.205555561106887,-0.0250000007162294,-0.0897971913218498,0.0284052342176437,-0.0146607663482428
5,1.02916674604155,-0.223611131277262,-0.0138888899621255,-0.0397062413394451,0.0332921557128429,-0.0113010071218014
5,1.02361117850853,-0.240277785252453,-0.0125000003581147,0.0033597587607801,0.0400116741657257,-0.0329867228865623
5,1.00972225967599,-0.236111109602691,-0.0236111118719664,0.0436768643558025,0.0293215326964855,-0.0287106670439243
5,1.01111115155925,-0.233333350148112,-0.0375000018340919,0.0589484944939613,0.0650571510195732,-0.00824668072164059
5,1.02083339474202,-0.2194444556275,-0.03194444645704,0.0769690200686455,0.0714712366461754,-0.0308486949652433
5,1.01388893532575,-0.213888888094483,-0.0166666676506515,0.113620936870575,0.0222965814173222,-0.0299323964864016
5,1.0125000434425,-0.236111109602691,-0.0222222230277034,0.129197999835014,0.00366519158706069,-0.0418442711234093
5,1.01527782720901,-0.247222220356795,-0.0208333341834404,0.164322748780251,-0.00916297826915979,-0.0592539273202419
5,1.01527782720901,-0.24583335278547,-0.0166666676506515,0.238542884588242,0.00305432616733015,-0.0387899428606033
5,1.02083339474202,-0.223611131277262,-0.03194444645704,0.240070044994354,0.0390953756868839,-0.0369573459029198
5,1.02500007039179,-0.190277786858986,-0.0222222230277034,0.22174409031868,0.0470366254448891,-0.04764748737216
5,1.02638896227504,-0.179166676104882,-0.0138888899621255,0.197004035115242,0.04764748737216,-0.0470366254448891
5,1.02361117850853,-0.17361112072783,-0.00694444498106275,0.16371189057827,0.0427605658769607,-0.0598647929728031
5,1.02500007039179,-0.170833336961321,-0.0125000003581147,0.120645888149738,0.0809396430850029,-0.0620028227567673
5,1.02222228662528,-0.150000007336368,-0.00972222266958873,0.0870482996106148,0.0959058403968811,-0.0595593601465225
5,1.01527782720901,-0.144444451959316,0.00277777787846293,0.0100792767480016,0.0800233483314514,-0.0448985956609249
5,1.00000001649321,-0.12777778582816,0.00277777787846293,-0.0555887371301651,0.0378736443817616,-0.0326812900602817
5,1.00277780025972,-0.125000002061652,0.0250000007162294,-0.0995710343122482,0.0244346093386412,-0.00824668072164059
5,1.00555558402623,-0.1194444466846,0.0236111118719664,-0.165544480085373,0.00702495034784079,-0.00183259579353034
5,1.01111115155925,-0.120833338567854,0.0236111118719664,-0.213191971182823,0.00152716308366507,0.0103847095742822
5,1.00555558402623,-0.12777778582816,0.00555555575692586,-0.240070044994354,-0.0299323964864016,0.0128281703218818
5,1.01527782720901,-0.148611115453114,-0.00277777787846293,-0.238542884588242,-0.0394008085131645,0.00580321997404099
5,1.0305556379248,-0.17361112072783,-0.00138888893923146,-0.239764615893364,0.0522289797663689,-0.0470366254448891
5,1.07222229717471,-0.20138889761309,-0.00138888893923146,-0.191506251692772,0.102930791676045,-0.128892570734024
5,1.05277781080915,-0.25555557165632,-0.00138888893923146,-0.17409659922123,0.0699440687894821,-0.220216915011406
5,1.02638896227504,-0.25555557165632,-0.0569444456537738,-0.22754730284214,0.270307868719101,-0.225103840231896
5,0.993055557076942,-0.222222239394008,-0.03194444645704,-0.187230199575424,0.250454753637314,-0.166460782289505
5,0.980555627375371,-0.18333333959868,-0.03194444645704,-0.132557764649391,0.145691365003586,-0.134084925055504
5,0.993055557076942,-0.166666673467524,-0.00972222266958873,-0.125838235020638,0.164322748780251,-0.0604756586253643
5,0.993055557076942,-0.161111118090472,0.00972222266958873,-0.112093769013882,0.170431405305862,-0.0299323964864016
5,1.01388893532575,-0.130555557438704,0.0236111118719664,-0.109650313854218,0.151800006628036,-0.0146607663482428
5,1.00833336779274,-0.14722222356986,0.0416666683668809,-0.0485637858510017,0.05283984541893,0.00549778714776039
5,1.00555558402623,-0.162500009973726,0.029166668768514,-0.0308486949652433,-0.0360410511493683,-0.00244346098043024
5,1.01666671909226,-0.162500009973726,0.0222222230277034,0.0241291765123606,-0.0592539273202419,0.0305432621389627
5,1.02500007039179,-0.156944454596674,0.0138888899621255,0.0387899428606033,-0.0540615729987621,0.027488935738802
5,1.02222228662528,-0.156944454596674,0.00972222266958873,0.00733038317412138,-0.0381790772080422,0.0140499006956816
5,1.01944450285877,-0.150000007336368,0.0166666676506515,-0.0345138870179653,0.0033597587607801,0.0290160998702049
5,1.01527782720901,-0.180555567988136,0.0458333348996699,0.019547687843442,-0.0791070461273193,0.019547687843442
5,1.02916674604155,-0.190277786858986,0.0347222241455659,0.0415388382971287,-0.0742201283574104,-0.0100792767480016
5,1.04861113515939,-0.177777784221628,-0.00972222266958873,0.0445931628346443,0.0513126812875271,-0.0213802829384804
5,1.00833336779274,-0.154166670830166,0.00555555575692586,0.0488692186772823,0.0372627787292004,-0.013744467869401
5,0.993055557076942,-0.151388899219622,0.00972222266958873,0.0415388382971287,-0.0219911485910416,0.00488692196086049
5,0.99583334084345,-0.152777778946911,0.03194444645704,0.0473420582711697,-0.0632245540618896,0.0357356183230877
5,1.02083339474202,-0.162500009973726,0.0222222230277034,0.0143553335219622,-0.0497855171561241,0.0323758572340012
5,1.03194452980806,-0.15555556271342,0.00972222266958873,0.0131336031481624,-0.0167987942695618,0.0183259565383196
5,1.01805561097552,-0.150000007336368,0.00277777787846293,-0.0152716310694814,-0.0177150927484035,0.0103847095742822
5,1.00972225967599,-0.14722222356986,0.00972222266958873,-0.0106901414692402,-0.0259617734700441,0.0164933614432812
5,1.00694447590948,-0.151388899219622,0.00416666691266287,-0.017409659922123,-0.0335975885391235,0.0302378293126821
5,1.02222228662528,-0.168055565350778,0.0222222230277034,0.00794124789535999,-0.0213802829384804,0.0232128798961639
5,1.02638896227504,-0.175000000455119,0.0111111115138517,-0.00733038317412138,-0.0161879286170006,0.02382374368608
5,1.02777785415829,-0.159722226207217,-0.0180555564949145,-0.0320704244077206,-0.00763581553474069,0.0100792767480016
5,1.02916674604155,-0.168055565350778,-0.00277777787846293,-0.0262672062963247,-0.00488692196086049,0.0106901414692402
5,1.02500007039179,-0.184722231481934,-0.00972222266958873,-0.00885754637420177,0.00824668072164059,0.0103847095742822
5,1.02222228662528,-0.17361112072783,-0.00416666691266287,0.00152716308366507,0.0262672062963247,0.00641408516094089
5,1.01944450285877,-0.159722226207217,-0.00555555575692586,-0.00183259579353034,0.0464257597923279,-0.0045814891345799
5,1.01527782720901,-0.144444451959316,-0.00555555575692586,-0.0244346093386412,0.0381790772080422,-0.0027488935738802
5,1.01111115155925,-0.131944449321958,0.0166666676506515,-0.0653625801205635,0.0384845100343227,0.0021380283869803
5,1.00416669214298,-0.122222230451108,0.0194444453391775,-0.0949895456433296,0.0027488935738802,0.0103847095742822
5,1.00833336779274,-0.123611110178398,0.0194444453391775,-0.132863193750381,-0.013744467869401,0.0143553335219622
5,1.00694447590948,-0.12777778582816,0.033333335301303,-0.159130394458771,-0.0287106670439243,0.0253509078174829
5,1.0125000434425,-0.136111112815755,0.0236111118719664,-0.194255143404007,-0.0543670058250427,0.0183259565383196
5,1.0125000434425,-0.136111112815755,0.0236111118719664,-0.217468023300171,-0.0448985956609249,0.0149661982432008
5,1.01944450285877,-0.131944449321958,0.00277777787846293,-0.252898216247559,-0.0326812900602817,0.0171042270958424
5,1.02222228662528,-0.140277788465518,0.00277777787846293,-0.288939267396927,-0.0445931628346443,0.01191187184304
5,1.02222228662528,-0.140277788465518,0.00277777787846293,-0.315511912107468,-0.0546724386513233,0.00733038317412138
5,1.01388893532575,-0.154166670830166,0.00138888893923146,-0.33292156457901,-0.0653625801205635,0.0106901414692402
5,1.01527782720901,-0.166666673467524,0.00138888893923146,-0.318566232919693,-0.0791070461273193,-0.0027488935738802
5,1.01527782720901,-0.166666673467524,0.00138888893923146,-0.312763005495071,-0.0647517144680023,-0.0033597587607801
5,1.02222228662528,-0.176388892338373,0.00277777787846293,-0.260534018278122,-0.0485637858510017,0.00580321997404099
5,1.01388893532575,-0.179166676104882,0.00138888893923146,-0.226325571537018,-0.0766635909676552,0.0113010071218014
5,1.01388893532575,-0.179166676104882,0.00138888893923146,-0.201280102133751,-0.0757472887635231,0.0113010071218014
5,1.01666671909226,-0.179166676104882,-0.00555555575692586,-0.197614908218384,-0.0604756586253643,0.0164933614432812
5,1.01388893532575,-0.176388892338373,-0.00694444498106275,-0.1750128865242,-0.0757472887635231,0.0381790772080422
5,1.0125000434425,-0.19166667874224,-0.00694444498106275,-0.0775798857212067,-0.0714712366461754,0.0577267669141293
5,1.01944450285877,-0.204166669223633,-0.0152777788063885,-0.0745255574584007,-0.0849102661013603,0.0171042270958424
5,1.0361111082101,-0.176388892338373,-0.027777779924251,-0.0623082555830479,-0.0280998013913631,0.0113010071218014
5,1.01944450285877,-0.172222228844576,-0.030555557612777,-0.0598647929728031,-0.0458148941397667,0.00549778714776039
5,1.00694447590948,-0.190277786858986,-0.0208333341834404,-0.0555887371301651,-0.0629191175103188,0.00580321997404099
5,1.01527782720901,-0.200000005729836,-0.0194444453391775,-0.0226020142436027,-0.0684169083833694,0.0100792767480016
5,1.01944450285877,-0.233333350148112,-0.0208333341834404,0.0629191175103188,-0.0421497002243996,0.0442877300083637
5,1.02916674604155,-0.213888888094483,-0.0444444460554069,0.0662788823246956,0.0125227374956012,0.01191187184304
5,1.02222228662528,-0.190277786858986,-0.0402777795226179,0.0357356183230877,-0.00183259579353034,0.00824668072164059
5,1.02083339474202,-0.200000005729836,-0.029166668768514,0.0778853222727776,-0.00183259579353034,-0.00702495034784079
5,1.01666671909226,-0.206944452990142,-0.00972222266958873,0.0971275717020035,0.0204639863222837,-0.00580321997404099
5,1.01111115155925,-0.206944452990142,-0.00972222266958873,0.117896988987923,-0.011606439948082,0.0293215326964855
5,1.00694447590948,-0.212499996211229,-0.00277777787846293,0.167682513594627,-0.0180205255746841,0.0445931628346443
5,1.02222228662528,-0.194444450352783,0.00138888893923146,0.183259576559067,-0.0439822971820831,0.0552833043038845
5,1.02638896227504,-0.195833342236038,-0.0125000003581147,0.204639852046967,-0.0299323964864016,0.0552833043038845
5,1.00972225967599,-0.186111123365188,-0.0416666683668809,0.207083314657211,0.0204639863222837,0.0390953756868839
5,1.00416669214298,-0.176388892338373,-0.033333335301303,0.176540061831474,-0.029626963660121,0.0436768643558025
5,1.01666671909226,-0.16527778158427,-0.0236111118719664,0.168598800897598,-0.0287106670439243,0.0534507073462009
5,1.02916674604155,-0.163888889701015,-0.03194444645704,0.131946891546249,-0.0045814891345799,0.0290160998702049
5,1.01527782720901,-0.170833336961321,-0.0180555564949145,0.128587126731873,-0.0433714315295219,0.0213802829384804
5,1.01111115155925,-0.163888889701015,-0.0152777788063885,0.135306656360626,-0.0403171069920063,0.0247400421649218
5,1.01805561097552,-0.159722226207217,-0.00972222266958873,0.136222943663597,-0.02382374368608,0.0290160998702049
5,1.0125000434425,-0.16527778158427,-0.00972222266958873,0.125227376818657,-0.0424551330506802,0.0342084541916847
5,1.01805561097552,-0.162500009973726,-0.0152777788063885,0.107206851243973,-0.0558941699564457,0.0222965814173222
5,1.02777785415829,-0.158333334323963,-0.0250000007162294,0.0577267669141293,-0.0430659987032413,0.0045814891345799
5,1.02500007039179,-0.156944454596674,-0.0388888906783549,0.0308486949652433,0.0167987942695618,-0.0284052342176437
5,1.02222228662528,-0.18333333959868,-0.0180555564949145,0.0507018156349659,-0.000916297896765172,0.00855211354792118
5,1.01944450285877,-0.20138889761309,-0.0388888906783549,0.0305432621389627,0.0314595587551594,-0.015577063895762
5,1.01527782720901,-0.204166669223633,-0.029166668768514,0.0222965814173222,0.0308486949652433,-0.0403171069920063
5,1.0125000434425,-0.206944452990142,-0.0361111129898289,0.0323758572340012,0.0675006061792374,-0.0626136884093285
5,0.99583334084345,-0.200000005729836,-0.030555557612777,-0.00488692196086049,0.0623082555830479,-0.0894917547702789
5,1.00555558402623,-0.215277779977737,-0.029166668768514,0.0329867228865623,0.0592539273202419,-0.0714712366461754
5,1.0125000434425,-0.216666671860991,-0.029166668768514,0.0635299831628799,0.064446285367012,-0.0381790772080422
5,1.01944450285877,-0.20138889761309,-0.0152777788063885,0.0839939713478088,0.0458148941397667,-0.0235183127224445
5,1.01944450285877,-0.197222234119292,-0.0250000007162294,0.0830776765942574,0.0461203269660473,-0.0241291765123606
5,1.02500007039179,-0.187500003092477,-0.033333335301303,0.078801617026329,0.0552833043038845,-0.017409659922123
5,1.00972225967599,-0.17361112072783,-0.033333335301303,0.0754418596625328,0.0736092627048492,-0.0287106670439243
5,1.00416669214298,-0.166666673467524,-0.0236111118719664,0.0668897479772568,0.0171042270958424,-0.0394008085131645
5,0.998611124609959,-0.169444445078067,-0.00694444498106275,0.0510072484612465,-0.000305432622553781,-0.037568211555481
5,1.00138890837647,-0.17361112072783,-0.029166668768514,0.0482583530247212,-0.00916297826915979,0.0021380283869803
5,1.01944450285877,-0.175000000455119,-0.026388891079988,0.0482583530247212,0.0134390350431204,0.0201585534960032
5,1.03750000009336,-0.169444445078067,-0.0208333341834404,0.0519235469400883,0.0171042270958424,0.00824668072164059
5,1.03194452980806,-0.170833336961321,-0.0222222230277034,0.05283984541893,-0.000610865245107561,0.00580321997404099
5,1.00972225967599,-0.17361112072783,-0.0166666676506515,0.0479529201984406,-0.0180205255746841,0.0143553335219622
5,1.01666671909226,-0.193055558469529,-0.0180555564949145,0.0378736443817616,-0.00183259579353034,0.0189368221908808
5,1.0125000434425,-0.193055558469529,-0.0111111115138517,0.0436768643558025,0.00122173049021512,0.017409659922123
5,1.01111115155925,-0.18333333959868,-0.00972222266958873,0.0561996027827263,-0.00244346098043024,0.0033597587607801
5,1.01666671909226,-0.17361112072783,-0.0152777788063885,0.0522289797663689,-0.0253509078174829,0.0247400421649218
5,1.02361117850853,-0.166666673467524,-0.0180555564949145,0.0464257597923279,-0.0308486949652433,0.0287106670439243
5,1.02638896227504,-0.176388892338373,-0.0138888899621255,0.0369573459029198,-0.0284052342176437,0.0427605658769607
5,1.01666671909226,-0.187500003092477,-0.0125000003581147,0.0390953756868839,-0.00916297826915979,0.0293215326964855
5,1.0125000434425,-0.18333333959868,-0.00972222266958873,0.0403171069920063,-0.0131336031481624,0.0284052342176437
5,1.00972225967599,-0.169444445078067,-0.00277777787846293,0.0531452745199203,-0.0311541277915239,0.0271835029125214
5,1.02222228662528,-0.170833336961321,-0.00277777787846293,0.0448985956609249,-0.0305432621389627,0.0235183127224445
5,1.02500007039179,-0.176388892338373,-0.0125000003581147,0.0305432621389627,-0.01588249579072,0.0235183127224445
5,1.02500007039179,-0.176388892338373,-0.0125000003581147,0.0171042270958424,-0.00427605677396059,0.0161879286170006
5,1.01944450285877,-0.177777784221628,-0.0152777788063885,0.0268780700862408,-0.00671951752156019,0.0146607663482428
5,1.01805561097552,-0.179166676104882,-0.00972222266958873,0.0143553335219622,0.000305432622553781,0.0113010071218014
5,1.01805561097552,-0.179166676104882,-0.00972222266958873,0.00946841109544039,-0.00397062394768,0.01588249579072
5,1.01666671909226,-0.180555567988136,-0.00833333382532574,0.0213802829384804,-0.01191187184304,0.0140499006956816
5,1.01944450285877,-0.176388892338373,-0.0180555564949145,0.021685715764761,-0.0250454749912024,0.019547687843442
5,1.01944450285877,-0.176388892338373,-0.0180555564949145,0.0100792767480016,-0.00244346098043024,0.00671951752156019
5,1.01944450285877,-0.181944447715425,-0.0152777788063885,-0.000610865245107561,0.00916297826915979,0.00610865233466029
5,1.01388893532575,-0.187500003092477,-0.0180555564949145,-0.00183259579353034,0.0143553335219622,-0.000610865245107561
5,1.01666671909226,-0.184722231481934,-0.0138888899621255,-0.0183259565383196,0.00397062394768,0.000916297896765172
5,1.01666671909226,-0.184722231481934,-0.0138888899621255,-0.0149661982432008,0.00244346098043024,0.00244346098043024
5,1.01666671909226,-0.176388892338373,-0.0194444453391775,-0.0192422550171614,0.000305432622553781,0.0027488935738802
5,1.01388893532575,-0.188888894975731,-0.0125000003581147,-0.021685715764761,0.00427605677396059,0.0131336031481624
5,1.01388893532575,-0.188888894975731,-0.0125000003581147,-0.017409659922123,0.0106901414692402,0.0033597587607801
5,1.0125000434425,-0.188888894975731,-0.0111111115138517,-0.0134390350431204,0.000610865245107561,0.000610865245107561
5,1.01527782720901,-0.19166667874224,-0.0152777788063885,-0.017409659922123,0.0164933614432812,-0.00183259579353034
5,1.02500007039179,-0.197222234119292,-0.0250000007162294,-0.0180205255746841,0.0201585534960032,-0.0152716310694814
5,1.02083339474202,-0.194444450352783,-0.0152777788063885,-0.0106901414692402,0.0131336031481624,-0.0027488935738802
5,1.01666671909226,-0.187500003092477,-0.0166666676506515,-0.0106901414692402,0.0186313893646002,-0.00610865233466029
5,1.01666671909226,-0.19166667874224,-0.0152777788063885,-0.00885754637420177,0.0113010071218014,0.00519235478714108
5,1.01527782720901,-0.190277786858986,-0.0125000003581147,-0.00794124789535999,0.00702495034784079,-0.00763581553474069
5,1.01527782720901,-0.190277786858986,-0.0236111118719664,-0.013744467869401,0.01191187184304,-0.00702495034784079
5,1.01666671909226,-0.190277786858986,-0.0125000003581147,-0.013744467869401,0.00488692196086049,-0.000610865245107561
5,1.0125000434425,-0.188888894975731,-0.0138888899621255,-0.0180205255746841,0.00305432616733015,-0.00305432616733015
5,1.01666671909226,-0.188888894975731,-0.0194444453391775,-0.0198531206697226,0.0045814891345799,-0.00488692196086049
5,1.01944450285877,-0.190277786858986,-0.0222222230277034,-0.0250454749912024,0.000610865245107561,-0.00702495034784079
5,1.01527782720901,-0.194444450352783,-0.027777779924251,-0.015577063895762,0.0177150927484035,-0.0103847095742822
5,1.01805561097552,-0.193055558469529,-0.0180555564949145,-0.00885754637420177,0.00733038317412138,0.00244346098043024
5,1.01666671909226,-0.190277786858986,-0.0152777788063885,-0.00855211354792118,-0.000610865245107561,-0.00122173049021512
5,1.01527782720901,-0.193055558469529,-0.0194444453391775,0.00244346098043024,-0.00610865233466029,0.00519235478714108
5,1.01527782720901,-0.193055558469529,-0.0152777788063885,0.00244346098043024,0.000916297896765172,0.000916297896765172
5,1.01805561097552,-0.19166667874224,-0.0194444453391775,0.00702495034784079,0.00549778714776039,-0.0033597587607801
5,1.01388893532575,-0.197222234119292,-0.0208333341834404,0.00977384392172098,-0.000916297896765172,-0.00671951752156019
5,1.01388893532575,-0.19166667874224,-0.0194444453391775,0.013744467869401,0.00152716308366507,-0.00946841109544039
5,1.01388893532575,-0.186111123365188,-0.00833333382532574,0.0180205255746841,-0.0027488935738802,-0.00519235478714108
5,1.01527782720901,-0.187500003092477,-0.00833333382532574,0.00733038317412138,-0.0027488935738802,-0.00397062394768
5,1.01666671909226,-0.18333333959868,-0.00972222266958873,0.00427605677396059,-0.0161879286170006,-0.0033597587607801
5,1.01388893532575,-0.187500003092477,-0.0152777788063885,0.00671951752156019,-0.000610865245107561,0.00305432616733015
5,1.01527782720901,-0.184722231481934,-0.0138888899621255,-0.000305432622553781,0.00488692196086049,-0.0106901414692402
5,1.01388893532575,-0.187500003092477,-0.0125000003581147,0.00397062394768,0.00152716308366507,-0.00702495034784079
5,1.01666671909226,-0.204166669223633,-0.0222222230277034,0.00702495034784079,0.00244346098043024,-0.00183259579353034
5,1.01666671909226,-0.187500003092477,-0.0250000007162294,0.00244346098043024,0.00183259579353034,-0.00916297826915979
5,1.01666671909226,-0.187500003092477,-0.0152777788063885,0.00305432616733015,-0.00244346098043024,0.0033597587607801
5,1.02222228662528,-0.193055558469529,-0.0125000003581147,0.00702495034784079,-0.00580321997404099,-0.00244346098043024
5,1.01666671909226,-0.19166667874224,-0.0125000003581147,0.0149661982432008,0.00671951752156019,0.000610865245107561
5,1.01527782720901,-0.19166667874224,-0.026388891079988,0.00855211354792118,0.00580321997404099,-0.0103847095742822
5,1.01527782720901,-0.193055558469529,-0.0166666676506515,0.0122173046693206,0.000610865245107561,-0.00122173049021512
5,1.01527782720901,-0.187500003092477,-0.0125000003581147,0.00733038317412138,-0.0033597587607801,0.00244346098043024
5,1.01527782720901,-0.187500003092477,-0.0125000003581147,0.0177150927484035,-0.0109955742955208,0.00366519158706069
5,1.01388893532575,-0.177777784221628,-0.0125000003581147,0.0152716310694814,-0.00305432616733015,0.00946841109544039
5,1.01527782720901,-0.18333333959868,-0.0166666676506515,0.01191187184304,0.00366519158706069,-0.00977384392172098
5,1.01388893532575,-0.186111123365188,-0.0111111115138517,0.0146607663482428,0.0027488935738802,-0.000305432622553781
5,1.01388893532575,-0.186111123365188,-0.0111111115138517,0.011606439948082,0.00244346098043024,-0.00702495034784079
5,1.01944450285877,-0.184722231481934,-0.0180555564949145,0.00855211354792118,-0.00855211354792118,0.00183259579353034
5,1.01944450285877,-0.186111123365188,-0.0152777788063885,0.0164933614432812,-0.00152716308366507,0.00488692196086049
5,1.01944450285877,-0.186111123365188,-0.0152777788063885,0.00366519158706069,0.00610865233466029,-0.00733038317412138
5,1.0125000434425,-0.181944447715425,-0.0152777788063885,0.0021380283869803,0.00671951752156019,-0.00702495034784079
5,1.01527782720901,-0.180555567988136,-0.0208333341834404,-0.011606439948082,-0.00671951752156019,-0.00397062394768
5,1.0125000434425,-0.181944447715425,-0.030555557612777,-0.0149661982432008,-0.0033597587607801,-0.00305432616733015
5,1.01805561097552,-0.18333333959868,-0.0236111118719664,-0.0149661982432008,-0.0103847095742822,-0.00519235478714108
5,1.01805561097552,-0.184722231481934,-0.0194444453391775,-0.0183259565383196,0.00916297826915979,0.000610865245107561
5,1.02222228662528,-0.190277786858986,-0.0180555564949145,-0.011606439948082,0.00702495034784079,-0.00702495034784079
5,1.02222228662528,-0.187500003092477,-0.0138888899621255,-0.00549778714776039,-0.00152716308366507,0.00733038317412138
5,1.0125000434425,-0.193055558469529,-0.0166666676506515,0.000305432622553781,-0.00244346098043024,0.00397062394768
5,1.01805561097552,-0.187500003092477,-0.0236111118719664,-0.00397062394768,-0.00366519158706069,-0.0027488935738802
5,1.01944450285877,-0.187500003092477,-0.0222222230277034,-0.000305432622553781,0.0103847095742822,-0.00183259579353034
5,1.01805561097552,-0.18333333959868,-0.0194444453391775,0.000305432622553781,-0.000916297896765172,-0.0149661982432008
5,1.01527782720901,-0.187500003092477,-0.0138888899621255,0.00397062394768,-0.000916297896765172,0.000305432622553781
5,1.01666671909226,-0.17361112072783,-0.0125000003581147,-0.00397062394768,-0.0033597587607801,-0.0134390350431204
5,1.01805561097552,-0.186111123365188,-0.0250000007162294,-0.00427605677396059,-0.0027488935738802,0.000916297896765172
5,1.0125000434425,-0.18333333959868,-0.0250000007162294,-0.00610865233466029,0.00610865233466029,0.000916297896765172
5,1.0125000434425,-0.187500003092477,-0.0222222230277034,-0.0045814891345799,-0.00122173049021512,0.00366519158706069
5,1.01388893532575,-0.188888894975731,-0.0250000007162294,-0.00305432616733015,0.00305432616733015,0.0021380283869803
5,1.0125000434425,-0.197222234119292,-0.0125000003581147,-0.00183259579353034,-0.0128281703218818,0.00122173049021512
5,1.01666671909226,-0.190277786858986,-0.0194444453391775,-0.00152716308366507,-0.0045814891345799,0.00244346098043024
5,1.01527782720901,-0.190277786858986,-0.0250000007162294,-0.00885754637420177,0.0033597587607801,0.00549778714776039
5,1.01527782720901,-0.187500003092477,-0.0194444453391775,-0.00427605677396059,0.00244346098043024,-0.000610865245107561
5,1.01666671909226,-0.188888894975731,-0.0208333341834404,-0.00152716308366507,0.00794124789535999,-0.00519235478714108
5,1.01805561097552,-0.187500003092477,-0.03194444645704,0.00244346098043024,0.0045814891345799,0.0027488935738802
5,1.01527782720901,-0.186111123365188,-0.027777779924251,-0.000305432622553781,0.000305432622553781,-0.00122173049021512
5,1.01527782720901,-0.187500003092477,-0.0347222241455659,0.00366519158706069,0.00152716308366507,-0.00305432616733015
5,1.01527782720901,-0.19166667874224,-0.0250000007162294,0.00916297826915979,0.00519235478714108,-0.0045814891345799
5,1.01388893532575,-0.184722231481934,-0.0222222230277034,0.000916297896765172,-0.00519235478714108,0.0027488935738802
5,1.01388893532575,-0.187500003092477,-0.0194444453391775,0.000610865245107561,-0.00855211354792118,0.00244346098043024
5,1.01805561097552,-0.187500003092477,-0.0236111118719664,0.00702495034784079,-0.00122173049021512,0.0027488935738802
5,1.01944450285877,-0.187500003092477,-0.0138888899621255,0.00519235478714108,-0.000305432622553781,-0.00366519158706069
5,1.01527782720901,-0.193055558469529,-0.0138888899621255,0.0122173046693206,-0.00549778714776039,-0.00580321997404099
5,1.01527782720901,-0.19166667874224,-0.0125000003581147,0.00916297826915979,-0.0113010071218014,0.00305432616733015
5,1.01527782720901,-0.186111123365188,-0.0152777788063885,0.0125227374956012,-0.00152716308366507,-0.00519235478714108
5,1.01527782720901,-0.188888894975731,-0.0250000007162294,0.0143553335219622,0.0106901414692402,-0.00122173049021512
5,1.01944450285877,-0.186111123365188,-0.0208333341834404,0.0100792767480016,-0.00244346098043024,-0.00152716308366507
5,1.01527782720901,-0.19166667874224,-0.0125000003581147,-0.00702495034784079,-0.00916297826915979,0.00152716308366507
5,1.01388893532575,-0.187500003092477,-0.0152777788063885,-0.00824668072164059,-0.0146607663482428,0.00610865233466029
5,1.01527782720901,-0.187500003092477,-0.0236111118719664,-0.00427605677396059,-0.00702495034784079,-0.00152716308366507
5,1.01805561097552,-0.190277786858986,-0.0125000003581147,0.00366519158706069,-0.00671951752156019,-0.00397062394768
5,1.01527782720901,-0.187500003092477,-0.0236111118719664,0.011606439948082,-0.00244346098043024,-0.0033597587607801
5,1.01527782720901,-0.186111123365188,-0.0250000007162294,0.00519235478714108,-0.00183259579353034,-0.00183259579353034
5,1.01666671909226,-0.187500003092477,-0.0250000007162294,0.015577063895762,-0.00183259579353034,0.00305432616733015
5,1.01944450285877,-0.188888894975731,-0.026388891079988,0.0149661982432008,-0.0109955742955208,0.00580321997404099
5,1.0125000434425,-0.188888894975731,-0.0222222230277034,0.0149661982432008,-0.00122173049021512,0.000610865245107561
5,1.01388893532575,-0.187500003092477,-0.0250000007162294,0.0146607663482428,-0.000610865245107561,-0.00641408516094089
5,1.0125000434425,-0.188888894975731,-0.029166668768514,0.013744467869401,-0.00488692196086049,0.00152716308366507
5,1.01527782720901,-0.187500003092477,-0.0236111118719664,0.0146607663482428,-0.00519235478714108,0.000305432622553781
5,1.01805561097552,-0.18333333959868,-0.03194444645704,0.011606439948082,-0.0033597587607801,0.00794124789535999
5,1.01527782720901,-0.18333333959868,-0.0180555564949145,0.00488692196086049,0.000610865245107561,-0.00549778714776039
5,1.01527782720901,-0.188888894975731,-0.0222222230277034,0.00763581553474069,-0.00488692196086049,0.00519235478714108
5,1.01805561097552,-0.190277786858986,-0.0180555564949145,0.00427605677396059,-0.00610865233466029,0.00427605677396059
5,1.01944450285877,-0.19166667874224,-0.0222222230277034,0.0122173046693206,0.00305432616733015,0.00183259579353034
5,1.01666671909226,-0.190277786858986,-0.029166668768514,0.0045814891345799,-0.00122173049021512,-0.00397062394768
5,1.01388893532575,-0.193055558469529,-0.0250000007162294,0.00549778714776039,0.00152716308366507,-0.00549778714776039
5,1.01527782720901,-0.187500003092477,-0.0236111118719664,0.0103847095742822,0.00946841109544039,-0.0021380283869803
5,1.0125000434425,-0.187500003092477,-0.0152777788063885,0.00702495034784079,-0.00305432616733015,-0.0103847095742822
5,1.0125000434425,-0.187500003092477,-0.0152777788063885,-0.00488692196086049,0.00152716308366507,-0.0021380283869803
5,1.01944450285877,-0.190277786858986,-0.0194444453391775,-0.000916297896765172,-0.0021380283869803,0.00244346098043024
5,1.01805561097552,-0.188888894975731,-0.0222222230277034,0.00244346098043024,0.00671951752156019,-0.00152716308366507
5,1.01805561097552,-0.188888894975731,-0.0222222230277034,0.000305432622553781,-0.00183259579353034,0.00427605677396059
5,1.01111115155925,-0.186111123365188,-0.03194444645704,-0.0109955742955208,-0.0033597587607801,-0.00397062394768
5,1.01388893532575,-0.190277786858986,-0.027777779924251,-0.00610865233466029,-0.00244346098043024,-0.00824668072164059
5,1.01527782720901,-0.19166667874224,-0.0208333341834404,-0.0192422550171614,0.0045814891345799,0.00152716308366507
5,1.01527782720901,-0.19166667874224,-0.0208333341834404,-0.0113010071218014,0.00855211354792118,-0.0128281703218818
5,1.02222228662528,-0.193055558469529,-0.0250000007162294,-0.0164933614432812,0.0125227374956012,-0.0125227374956012
5,1.01805561097552,-0.187500003092477,-0.0194444453391775,-0.0210748501121998,0.0256563406437635,-0.0128281703218818
5,1.01805561097552,-0.187500003092477,-0.0194444453391775,-0.0210748501121998,0.0219911485910416,-0.00763581553474069
5,1.01805561097552,-0.190277786858986,-0.0194444453391775,-0.0183259565383196,0.0210748501121998,-0.00366519158706069
5,1.01527782720901,-0.190277786858986,-0.0152777788063885,-0.0287106670439243,0.0204639863222837,-0.00397062394768
5,1.01527782720901,-0.190277786858986,-0.0152777788063885,-0.0326812900602817,0.00641408516094089,0.00488692196086049
5,1.01944450285877,-0.186111123365188,-0.0208333341834404,-0.0339030213654041,0.00519235478714108,-0.000305432622553781
5,1.01944450285877,-0.190277786858986,-0.0222222230277034,-0.0448985956609249,0.0161879286170006,-0.00519235478714108
5,1.01527782720901,-0.187500003092477,-0.03194444645704,-0.05283984541893,0.0210748501121998,-0.013744467869401
5,1.01944450285877,-0.190277786858986,-0.03194444645704,-0.0500909499824047,0.0189368221908808,-0.00824668072164059
5,1.02083339474202,-0.19166667874224,-0.03194444645704,-0.0604756586253643,0.0235183127224445,0.000305432622553781
5,1.01944450285877,-0.195833342236038,-0.0375000018340919,-0.0525344125926495,0.0268780700862408,0.000916297896765172
5,1.01805561097552,-0.19166667874224,-0.03194444645704,-0.0390953756868839,0.0232128798961639,0.000305432622553781
5,1.0125000434425,-0.193055558469529,-0.0222222230277034,-0.0320704244077206,0.0113010071218014,-0.00488692196086049
5,1.0125000434425,-0.193055558469529,-0.0222222230277034,-0.0326812900602817,-0.000305432622553781,-0.00702495034784079
5,1.01527782720901,-0.19166667874224,-0.027777779924251,-0.0360410511493683,0.00855211354792118,-0.0106901414692402
5,1.01527782720901,-0.195833342236038,-0.033333335301303,-0.0394008085131645,0.0177150927484035,-0.00763581553474069
5,1.01805561097552,-0.198611113846581,-0.029166668768514,-0.0384845100343227,0.00580321997404099,-0.00397062394768
5,1.0125000434425,-0.193055558469529,-0.0222222230277034,-0.0400116741657257,0.00549778714776039,0.000610865245107561
5,1.01527782720901,-0.190277786858986,-0.0222222230277034,-0.0415388382971287,0.00122173049021512,-0.00366519158706069
5,1.0125000434425,-0.19166667874224,-0.0180555564949145,-0.0357356183230877,0.00855211354792118,-0.0027488935738802
5,1.01805561097552,-0.19166667874224,-0.027777779924251,-0.0302378293126821,-0.000305432622553781,-0.0033597587607801
5,1.01666671909226,-0.193055558469529,-0.0194444453391775,-0.0311541277915239,-0.00580321997404099,0.00305432616733015
5,1.01527782720901,-0.193055558469529,-0.0152777788063885,-0.0265726372599602,-0.0021380283869803,0.00488692196086049
5,1.0125000434425,-0.188888894975731,-0.026388891079988,-0.0244346093386412,-0.0134390350431204,0.00885754637420177
5,1.01944450285877,-0.197222234119292,-0.03194444645704,-0.027488935738802,-0.00580321997404099,0.00397062394768
5,1.01666671909226,-0.194444450352783,-0.03194444645704,-0.0226020142436027,-0.00763581553474069,0.00671951752156019
5,1.0125000434425,-0.195833342236038,-0.029166668768514,-0.0293215326964855,0.000610865245107561,0.0045814891345799
5,1.01527782720901,-0.193055558469529,-0.029166668768514,-0.0265726372599602,-0.00794124789535999,0.00427605677396059
5,1.01388893532575,-0.187500003092477,-0.0208333341834404,-0.0299323964864016,0.00152716308366507,0.000305432622553781
5,1.0125000434425,-0.187500003092477,-0.0222222230277034,-0.0244346093386412,-0.00183259579353034,0.000305432622553781
5,1.0125000434425,-0.187500003092477,-0.03194444645704,-0.0241291765123606,-0.00305432616733015,0.00763581553474069
5,1.01805561097552,-0.190277786858986,-0.027777779924251,-0.0213802829384804,-0.00183259579353034,0.00305432616733015
5,1.01527782720901,-0.194444450352783,-0.026388891079988,-0.0192422550171614,-0.0045814891345799,0.00916297826915979
5,1.01388893532575,-0.187500003092477,-0.03194444645704,-0.0256563406437635,0.00641408516094089,0.00885754637420177
5,1.01944450285877,-0.190277786858986,-0.030555557612777,-0.0250454749912024,0.00488692196086049,0.000305432622553781
5,1.01527782720901,-0.187500003092477,-0.0250000007162294,-0.0161879286170006,0.00916297826915979,-0.000916297896765172
5,1.01944450285877,-0.193055558469529,-0.0180555564949145,-0.0183259565383196,0.00244346098043024,0.000916297896765172
5,1.01527782720901,-0.19166667874224,-0.0250000007162294,-0.0109955742955208,-0.0113010071218014,0.0033597587607801
5,1.01527782720901,-0.194444450352783,-0.0194444453391775,-0.00580321997404099,-0.00916297826915979,0.00488692196086049
5,1.01527782720901,-0.193055558469529,-0.0236111118719664,-0.00488692196086049,-0.000305432622553781,-0.00427605677396059
5,1.01944450285877,-0.190277786858986,-0.0222222230277034,-0.011606439948082,0.0113010071218014,0.00366519158706069
5,1.01805561097552,-0.19166667874224,-0.030555557612777,-0.0100792767480016,-0.00152716308366507,0.0021380283869803
5,1.01527782720901,-0.184722231481934,-0.0236111118719664,-0.0122173046693206,-0.0027488935738802,-0.0100792767480016
5,1.0125000434425,-0.187500003092477,-0.0208333341834404,-0.0109955742955208,0.00519235478714108,-0.00733038317412138
5,1.01666671909226,-0.186111123365188,-0.026388891079988,-0.00977384392172098,-0.00397062394768,-0.000916297896765172
5,1.01666671909226,-0.190277786858986,-0.033333335301303,-0.0149661982432008,0.0131336031481624,-0.000610865245107561
5,1.01527782720901,-0.193055558469529,-0.029166668768514,-0.00397062394768,0.00641408516094089,-0.00946841109544039
5,1.01527782720901,-0.193055558469529,-0.033333335301303,0.00488692196086049,0.0027488935738802,-0.00488692196086049
5,1.01805561097552,-0.193055558469529,-0.033333335301303,0.00580321997404099,-0.00580321997404099,0.000916297896765172
5,1.01666671909226,-0.188888894975731,-0.027777779924251,0.00794124789535999,-0.00427605677396059,0.0021380283869803
5,1.01666671909226,-0.190277786858986,-0.029166668768514,0.000610865245107561,0.0103847095742822,-0.0033597587607801
5,1.01527782720901,-0.18333333959868,-0.033333335301303,-0.00488692196086049,-0.00763581553474069,-0.0125227374956012
5,1.0125000434425,-0.188888894975731,-0.0375000018340919,0.0140499006956816,0.0103847095742822,-0.00702495034784079
5,1.01527782720901,-0.190277786858986,-0.0236111118719664,0.0100792767480016,0.0021380283869803,-0.00366519158706069
5,1.01805561097552,-0.190277786858986,-0.0402777795226179,0.00946841109544039,0.00244346098043024,-0.00397062394768
5,1.0125000434425,-0.193055558469529,-0.0388888906783549,-0.00610865233466029,0.00244346098043024,-0.0140499006956816
5,1.02083339474202,-0.193055558469529,-0.0402777795226179,-0.00305432616733015,0.01191187184304,-0.00580321997404099
5,1.01527782720901,-0.187500003092477,-0.0361111129898289,0.00427605677396059,0.0109955742955208,-0.01191187184304
5,1.01944450285877,-0.187500003092477,-0.027777779924251,0.00702495034784079,0.00549778714776039,-0.00397062394768
5,1.01666671909226,-0.190277786858986,-0.026388891079988,0.0045814891345799,0.00610865233466029,-0.0125227374956012
5,1.01527782720901,-0.188888894975731,-0.0250000007162294,0.00794124789535999,0.00794124789535999,-0.00610865233466029
5,1.01944450285877,-0.186111123365188,-0.0236111118719664,0.00733038317412138,0.00183259579353034,-0.00702495034784079
5,1.02083339474202,-0.193055558469529,-0.0236111118719664,0.00916297826915979,0.00549778714776039,-0.00702495034784079
5,1.01527782720901,-0.193055558469529,-0.033333335301303,-0.000305432622553781,0.011606439948082,-0.0103847095742822
5,1.01944450285877,-0.190277786858986,-0.0416666683668809,0.00488692196086049,0.02382374368608,-0.00122173049021512
5,1.01944450285877,-0.197222234119292,-0.027777779924251,0.00671951752156019,0.0164933614432812,-0.00641408516094089
5,1.01805561097552,-0.18333333959868,-0.0222222230277034,0.0106901414692402,0.0152716310694814,-0.00610865233466029
5,1.01527782720901,-0.187500003092477,-0.033333335301303,0.00916297826915979,0.01588249579072,-0.00794124789535999
5,1.01388893532575,-0.190277786858986,-0.029166668768514,0.00519235478714108,0.0164933614432812,-0.00641408516094089
5,1.01527782720901,-0.186111123365188,-0.0361111129898289,0.0146607663482428,0.0143553335219622,-0.00610865233466029
5,1.01944450285877,-0.187500003092477,-0.03194444645704,0.0152716310694814,0.00733038317412138,-0.00824668072164059
5,1.01944450285877,-0.193055558469529,-0.0250000007162294,0.0143553335219622,0.0103847095742822,-0.00763581553474069
5,1.01805561097552,-0.187500003092477,-0.03194444645704,0.0161879286170006,0.00824668072164059,-0.0106901414692402
5,1.01944450285877,-0.186111123365188,-0.030555557612777,0.0125227374956012,0.0167987942695618,-0.00946841109544039
5,1.01527782720901,-0.188888894975731,-0.0194444453391775,0.0128281703218818,0.00152716308366507,-0.00855211354792118
5,1.01666671909226,-0.190277786858986,-0.0250000007162294,0.0219911485910416,-0.00824668072164059,-0.000305432622553781
5,1.01805561097552,-0.193055558469529,-0.0180555564949145,0.0177150927484035,0.0106901414692402,-0.00885754637420177
5,1.01944450285877,-0.194444450352783,-0.0236111118719664,0.00824668072164059,0.0146607663482428,-0.00763581553474069
5,1.0125000434425,-0.190277786858986,-0.026388891079988,0.00580321997404099,0.00366519158706069,-0.0140499006956816
5,1.01527782720901,-0.184722231481934,-0.03194444645704,-0.00397062394768,0.00152716308366507,-0.00488692196086049
5,1.01388893532575,-0.18333333959868,-0.0125000003581147,-0.00610865233466029,0.00397062394768,-0.015577063895762
5,1.02222228662528,-0.187500003092477,-0.029166668768514,-0.00580321997404099,0.00946841109544039,-0.00671951752156019
5,1.01805561097552,-0.186111123365188,-0.0361111129898289,0.000305432622553781,0.019547687843442,-0.00702495034784079
5,1.0125000434425,-0.181944447715425,-0.029166668768514,0.00519235478714108,0.0113010071218014,-0.0131336031481624
5,1.01111115155925,-0.187500003092477,-0.0236111118719664,0.00885754637420177,0.00488692196086049,-0.00916297826915979
5,1.01527782720901,-0.188888894975731,-0.030555557612777,0.00549778714776039,0.00305432616733015,-0.00427605677396059
5,1.01388893532575,-0.187500003092477,-0.03194444645704,0.00427605677396059,0.0134390350431204,-0.0109955742955208
5,1.01111115155925,-0.181944447715425,-0.027777779924251,-0.00305432616733015,0.0189368221908808,-0.0109955742955208
5,1.00972225967599,-0.180555567988136,-0.0250000007162294,0.00580321997404099,0.00702495034784079,-0.0213802829384804
5,1.00972225967599,-0.170833336961321,-0.0222222230277034,0.0033597587607801,-0.0125227374956012,-0.0222965814173222
5,1.01944450285877,-0.181944447715425,-0.026388891079988,-0.00183259579353034,0.013744467869401,-0.0149661982432008
5,1.01944450285877,-0.176388892338373,-0.026388891079988,-0.0125227374956012,0.00397062394768,-0.01191187184304
5,1.02083339474202,-0.177777784221628,-0.027777779924251,-0.00824668072164059,0.0109955742955208,-0.00519235478714108
5,1.01527782720901,-0.18333333959868,-0.0250000007162294,-0.00122173049021512,0.0143553335219622,-0.00641408516094089
5,1.01527782720901,-0.18333333959868,-0.0250000007162294,-0.011606439948082,0.0207694191485643,-0.00824668072164059
5,1.01944450285877,-0.187500003092477,-0.0208333341834404,-0.00916297826915979,0.0143553335219622,-0.00519235478714108
5,1.01666671909226,-0.187500003092477,-0.0222222230277034,-0.01191187184304,0.0164933614432812,-0.00885754637420177
5,1.01527782720901,-0.184722231481934,-0.0250000007162294,-0.015577063895762,0.013744467869401,-0.00488692196086049
5,1.01527782720901,-0.18333333959868,-0.0194444453391775,-0.01191187184304,0.0271835029125214,-0.00824668072164059
5,1.0125000434425,-0.190277786858986,-0.0125000003581147,-0.013744467869401,0.0164933614432812,-0.000610865245107561
5,1.01388893532575,-0.186111123365188,-0.0138888899621255,-0.0161879286170006,0.0262672062963247,0.00305432616733015
5,1.01527782720901,-0.186111123365188,-0.0152777788063885,-0.00763581553474069,0.0131336031481624,-0.00305432616733015
5,1.01944450285877,-0.187500003092477,-0.0194444453391775,-0.00671951752156019,0.0177150927484035,-0.00152716308366507
5,1.01944450285877,-0.187500003092477,-0.0194444453391775,-0.0045814891345799,0.0222965814173222,-0.00183259579353034
5,1.01944450285877,-0.18333333959868,-0.0111111115138517,-0.00183259579353034,0.0213802829384804,-0.0045814891345799
5,1.0125000434425,-0.18333333959868,-0.0138888899621255,-0.00794124789535999,0.0302378293126821,-0.0027488935738802
5,1.0125000434425,-0.18333333959868,-0.0138888899621255,-0.011606439948082,0.0204639863222837,-0.0027488935738802
5,1.0125000434425,-0.187500003092477,-0.0222222230277034,-0.00397062394768,0.0250454749912024,-0.0033597587607801
5,1.01944450285877,-0.187500003092477,-0.03194444645704,-0.00885754637420177,0.0235183127224445,-0.00549778714776039
5,1.01944450285877,-0.187500003092477,-0.03194444645704,-0.0103847095742822,0.0332921557128429,-0.01191187184304
5,1.01388893532575,-0.184722231481934,-0.0236111118719664,-0.000610865245107561,0.0436768643558025,-0.0027488935738802
5,1.01111115155925,-0.188888894975731,-0.0180555564949145,0.0100792767480016,0.0314595587551594,-0.00366519158706069
5,1.01527782720901,-0.188888894975731,-0.0250000007162294,0.00641408516094089,0.0470366254448891,0.0109955742955208
5,1.01527782720901,-0.188888894975731,-0.03194444645704,0.0113010071218014,0.0320704244077206,-0.000916297896765172
5,1.01388893532575,-0.193055558469529,-0.027777779924251,0.019547687843442,0.0241291765123606,0.00427605677396059
5,1.01527782720901,-0.186111123365188,-0.00972222266958873,0.0250454749912024,0.00610865233466029,0.00610865233466029
5,1.01666671909226,-0.181944447715425,-0.0194444453391775,0.0204639863222837,0.00702495034784079,0.0125227374956012
5,1.01527782720901,-0.184722231481934,-0.0125000003581147,0.0134390350431204,-0.00855211354792118,0.00122173049021512
5,1.0125000434425,-0.176388892338373,-0.0194444453391775,0.00946841109544039,-0.00855211354792118,-0.00763581553474069
5,1.01666671909226,-0.180555567988136,-0.026388891079988,0.0152716310694814,-0.0021380283869803,0.00885754637420177
5,1.01527782720901,-0.190277786858986,-0.0194444453391775,0.0229074470698834,-0.00946841109544039,-0.0027488935738802
5,1.01666671909226,-0.18333333959868,-0.0166666676506515,0.0244346093386412,-0.00641408516094089,-0.00397062394768
5,1.02083339474202,-0.181944447715425,-0.0194444453391775,0.0262672062963247,0.00946841109544039,0.000916297896765172
5,1.01527782720901,-0.18333333959868,-0.0111111115138517,0.0213802829384804,-0.00397062394768,-0.00580321997404099
5,1.0125000434425,-0.180555567988136,-0.00972222266958873,0.0207694191485643,-0.0109955742955208,0.0033597587607801
5,1.01805561097552,-0.179166676104882,-0.0152777788063885,0.0244346093386412,-0.00152716308366507,-0.00946841109544039
5,1.01805561097552,-0.177777784221628,-0.0222222230277034,0.0213802829384804,0.00671951752156019,-0.00183259579353034
5,1.01388893532575,-0.176388892338373,-0.00972222266958873,0.0146607663482428,-0.00580321997404099,-0.00305432616733015
5,1.01805561097552,-0.181944447715425,-0.0194444453391775,0.0143553335219622,-0.00916297826915979,-0.00946841109544039
5,1.01805561097552,-0.181944447715425,-0.0222222230277034,0.00824668072164059,-0.00671951752156019,-0.00702495034784079
5,1.01527782720901,-0.18333333959868,-0.0250000007162294,0.0146607663482428,-0.00610865233466029,0.000916297896765172
5,1.01527782720901,-0.18333333959868,-0.0222222230277034,0.0149661982432008,-0.0149661982432008,-0.000610865245107561
5,1.01944450285877,-0.181944447715425,-0.0180555564949145,0.0100792767480016,-0.0134390350431204,0.00641408516094089
5,1.01805561097552,-0.187500003092477,-0.0166666676506515,0.00580321997404099,-0.0146607663482428,0.0113010071218014
5,1.01666671909226,-0.186111123365188,-0.0152777788063885,0.0113010071218014,-0.00946841109544039,0.00366519158706069
5,1.01944450285877,-0.181944447715425,-0.0236111118719664,0.00610865233466029,-0.0180205255746841,0.00855211354792118
5,1.01944450285877,-0.181944447715425,-0.0236111118719664,0.00366519158706069,-0.00580321997404099,-0.000305432622553781
5,1.01944450285877,-0.18333333959868,-0.0180555564949145,0.00855211354792118,-0.00763581553474069,0.0021380283869803
5,1.01944450285877,-0.180555567988136,-0.030555557612777,0.0164933614432812,-0.0021380283869803,-0.0027488935738802
5,1.01944450285877,-0.180555567988136,-0.030555557612777,0.0045814891345799,0.00671951752156019,-0.00152716308366507
5,1.01944450285877,-0.186111123365188,-0.0208333341834404,-0.000610865245107561,0.00580321997404099,0.00946841109544039
5,1.01527782720901,-0.190277786858986,-0.0194444453391775,-0.000916297896765172,0.00397062394768,0.00885754637420177
5,1.01527782720901,-0.190277786858986,-0.0194444453391775,0.0103847095742822,0.0033597587607801,0.0021380283869803
5,1.01527782720901,-0.18333333959868,-0.0152777788063885,0.00702495034784079,0.00427605677396059,0.0106901414692402
5,1.02083339474202,-0.180555567988136,-0.0194444453391775,0.00794124789535999,0.00885754637420177,0.00794124789535999
5,1.02083339474202,-0.180555567988136,-0.0194444453391775,0.0109955742955208,0.0149661982432008,0.00671951752156019
5,1.01944450285877,-0.179166676104882,-0.0194444453391775,0.00641408516094089,0.011606439948082,0.00305432616733015
5,1.01527782720901,-0.188888894975731,-0.0152777788063885,-0.000305432622553781,0.0140499006956816,0.0140499006956816
5,1.01527782720901,-0.188888894975731,-0.0152777788063885,0.0189368221908808,0.00427605677396059,-0.00702495034784079
5,1.01666671909226,-0.18333333959868,-0.0194444453391775,0.0146607663482428,0.00855211354792118,0.0033597587607801
5,1.01805561097552,-0.180555567988136,-0.027777779924251,0.00733038317412138,0.0164933614432812,0.00763581553474069
5,1.01666671909226,-0.179166676104882,-0.0250000007162294,0.0198531206697226,-0.00519235478714108,0.0103847095742822
5,1.01527782720901,-0.18333333959868,-0.0222222230277034,0.0299323964864016,-0.0128281703218818,0.00977384392172098
5,1.02083339474202,-0.187500003092477,-0.0152777788063885,0.019547687843442,0.00427605677396059,0.00122173049021512
5,1.01944450285877,-0.186111123365188,-0.0111111115138517,0.0152716310694814,0.00671951752156019,-0.0021380283869803
5,1.02083339474202,-0.186111123365188,-0.0125000003581147,0.0106901414692402,-0.01191187184304,-0.00549778714776039
5,1.01527782720901,-0.18333333959868,-0.0180555564949145,0.00763581553474069,-0.00152716308366507,0.00244346098043024
5,1.01805561097552,-0.181944447715425,-0.0194444453391775,0.0113010071218014,0.000610865245107561,0.00305432616733015
5,1.01944450285877,-0.186111123365188,-0.0194444453391775,0.0143553335219622,-0.00610865233466029,-0.00122173049021512
5,1.01944450285877,-0.190277786858986,-0.027777779924251,0.0113010071218014,0.0103847095742822,0.00152716308366507
5,1.01944450285877,-0.190277786858986,-0.0194444453391775,0.019547687843442,0.0100792767480016,0.0027488935738802
5,1.01944450285877,-0.190277786858986,-0.0180555564949145,0.0186313893646002,0.00794124789535999,0.00519235478714108
5,1.01388893532575,-0.193055558469529,-0.0125000003581147,0.0198531206697226,-0.0100792767480016,0.00305432616733015
5,1.0125000434425,-0.187500003092477,-0.0125000003581147,0.0125227374956012,-0.0100792767480016,-0.00152716308366507
5,1.01527782720901,-0.187500003092477,-0.033333335301303,0.0125227374956012,-0.0180205255746841,0.00366519158706069
5,1.01527782720901,-0.184722231481934,-0.029166668768514,0.0131336031481624,-0.00733038317412138,0.00824668072164059
5,1.01666671909226,-0.190277786858986,-0.0222222230277034,0.0134390350431204,-0.00488692196086049,0.0027488935738802
5,1.01944450285877,-0.18333333959868,-0.0152777788063885,0.0113010071218014,-0.00183259579353034,0.00641408516094089
5,1.01805561097552,-0.184722231481934,-0.0166666676506515,0.00671951752156019,-0.00397062394768,-0.00549778714776039
5,1.01666671909226,-0.193055558469529,-0.0222222230277034,0.00885754637420177,-0.0100792767480016,0.0045814891345799
5,1.01388893532575,-0.190277786858986,-0.0208333341834404,0.0103847095742822,-0.00824668072164059,-0.00122173049021512
5,1.01666671909226,-0.187500003092477,-0.027777779924251,0.0103847095742822,0.00519235478714108,0.00122173049021512
5,1.01805561097552,-0.186111123365188,-0.0222222230277034,0.0122173046693206,-0.00183259579353034,-0.00519235478714108
5,1.01527782720901,-0.190277786858986,-0.029166668768514,0.00763581553474069,-0.0113010071218014,0.00244346098043024
5,1.01944450285877,-0.187500003092477,-0.03194444645704,0.00519235478714108,-0.00519235478714108,-0.00610865233466029
5,1.02083339474202,-0.190277786858986,-0.026388891079988,-0.00244346098043024,0.00580321997404099,-0.00519235478714108
5,1.01944450285877,-0.190277786858986,-0.0194444453391775,0.000305432622553781,-0.000610865245107561,-0.00427605677396059
5,1.01944450285877,-0.197222234119292,-0.00694444498106275,0.00702495034784079,0.00152716308366507,0.0021380283869803
5,1.01944450285877,-0.19166667874224,-0.0138888899621255,0.00519235478714108,-0.00183259579353034,-0.00702495034784079
5,1.01805561097552,-0.193055558469529,-0.0111111115138517,0.00397062394768,0.00152716308366507,-0.00794124789535999
5,1.01805561097552,-0.190277786858986,-0.0152777788063885,0.00580321997404099,-0.00366519158706069,-0.0033597587607801
5,1.01805561097552,-0.190277786858986,-0.0152777788063885,-0.000916297896765172,0.00946841109544039,-0.00366519158706069
5,1.01805561097552,-0.190277786858986,-0.0250000007162294,-0.0021380283869803,0.0134390350431204,-0.00549778714776039
5,1.01527782720901,-0.187500003092477,-0.0125000003581147,-0.00519235478714108,0.00946841109544039,-0.0103847095742822
5,1.01527782720901,-0.187500003092477,-0.0125000003581147,-0.00427605677396059,0.0021380283869803,-0.00427605677396059
5,1.01805561097552,-0.187500003092477,-0.0152777788063885,-0.0125227374956012,-0.00671951752156019,-0.00641408516094089
5,1.01527782720901,-0.188888894975731,-0.0194444453391775,-0.00946841109544039,0.00580321997404099,-0.015577063895762
5,1.01527782720901,-0.188888894975731,-0.0194444453391775,-0.00946841109544039,0.0253509078174829,-0.0204639863222837
5,1.01527782720901,-0.190277786858986,-0.0236111118719664,-0.01588249579072,0.02382374368608,-0.0210748501121998
5,1.00972225967599,-0.188888894975731,-0.0166666676506515,-0.0033597587607801,-0.00641408516094089,-0.0213802829384804
5,1.01111115155925,-0.186111123365188,-0.0236111118719664,0.00122173049021512,-0.0143553335219622,-0.0180205255746841
5,1.01111115155925,-0.186111123365188,-0.0236111118719664,0.0149661982432008,-0.0033597587607801,-0.0192422550171614
5,1.01944450285877,-0.190277786858986,-0.027777779924251,0.00610865233466029,-0.015577063895762,-0.0204639863222837
5,1.01944450285877,-0.190277786858986,-0.027777779924251,-0.00152716308366507,-0.0235183127224445,-0.0287106670439243
5,1.02500007039179,-0.190277786858986,-0.0347222241455659,0.00977384392172098,0.00519235478714108,-0.0345138870179653
5,1.02083339474202,-0.184722231481934,-0.0347222241455659,0.0033597587607801,0.0164933614432812,-0.0247400421649218
5,1.0125000434425,-0.180555567988136,-0.027777779924251,0.00855211354792118,0.0189368221908808,-0.0152716310694814
5,1.00972225967599,-0.177777784221628,-0.030555557612777,-0.00427605677396059,0.01588249579072,-0.00855211354792118
5,1.0125000434425,-0.180555567988136,-0.0152777788063885,-0.000916297896765172,-0.00152716308366507,0.0027488935738802
5,1.02083339474202,-0.187500003092477,-0.0166666676506515,-0.00641408516094089,0.000916297896765172,-0.00183259579353034
5,1.01527782720901,-0.190277786858986,-0.0208333341834404,-0.00885754637420177,0.0167987942695618,-0.0106901414692402
5,1.01666671909226,-0.184722231481934,-0.029166668768514,-0.00702495034784079,0.0140499006956816,-0.0045814891345799
5,1.01944450285877,-0.186111123365188,-0.027777779924251,-0.00671951752156019,0.0232128798961639,-0.00610865233466029
5,1.01666671909226,-0.187500003092477,-0.0250000007162294,0.00641408516094089,0.0149661982432008,-0.0109955742955208
5,1.02222228662528,-0.18333333959868,-0.0250000007162294,0.0100792767480016,0.0235183127224445,-0.013744467869401
5,1.01805561097552,-0.18333333959868,-0.0138888899621255,0.00641408516094089,0.011606439948082,-0.0140499006956816
5,1.01666671909226,-0.18333333959868,-0.0138888899621255,0.0143553335219622,-0.0152716310694814,-0.00671951752156019
5,1.01527782720901,-0.179166676104882,-0.00972222266958873,0.0201585534960032,-0.00122173049021512,-0.00244346098043024
5,1.01527782720901,-0.181944447715425,-0.0236111118719664,0.019547687843442,0.00427605677396059,-0.00122173049021512
5,1.00833336779274,-0.186111123365188,-0.0222222230277034,0.013744467869401,0.0033597587607801,-0.000305432622553781
5,1.00833336779274,-0.186111123365188,-0.0222222230277034,0.013744467869401,0.01191187184304,-0.00305432616733015
5,1.00833336779274,-0.186111123365188,-0.0222222230277034,0.013744467869401,0.01191187184304,-0.00305432616733015
5,1.00833336779274,-0.186111123365188,-0.0222222230277034,-0.00763581553474069,0.0293215326964855,0.00244346098043024
5,1.01944450285877,-0.180555567988136,-0.0250000007162294,-0.0045814891345799,0.0256563406437635,0.000305432622553781
5,1.01944450285877,-0.180555567988136,-0.0250000007162294,-0.00244346098043024,0.01588249579072,-0.013744467869401
5,1.01944450285877,-0.180555567988136,-0.0152777788063885,-0.00152716308366507,0.0186313893646002,-0.00763581553474069
5,1.01944450285877,-0.186111123365188,-0.0180555564949145,0.0027488935738802,0.0146607663482428,-0.0164933614432812
5,1.01805561097552,-0.180555567988136,-0.0125000003581147,0.00641408516094089,0.00427605677396059,-0.0152716310694814
5,1.01805561097552,-0.176388892338373,-0.0194444453391775,0.00152716308366507,-0.0021380283869803,0.00641408516094089
5,1.01388893532575,-0.179166676104882,-0.0180555564949145,0.00488692196086049,-0.01588249579072,0.0027488935738802
5,1.01527782720901,-0.187500003092477,-0.0111111115138517,0.00733038317412138,-0.0192422550171614,0.00549778714776039
5,1.01805561097552,-0.186111123365188,-0.0208333341834404,0.00733038317412138,-0.0109955742955208,0.00580321997404099
5,1.01944450285877,-0.187500003092477,-0.0222222230277034,0.00916297826915979,0.00580321997404099,0.00641408516094089
5,1.02222228662528,-0.190277786858986,-0.0222222230277034,0.0106901414692402,0.00671951752156019,-0.0045814891345799
5,1.02083339474202,-0.186111123365188,-0.0194444453391775,0.0140499006956816,0.0109955742955208,-0.0021380283869803
5,1.01805561097552,-0.180555567988136,-0.0250000007162294,0.013744467869401,0.0125227374956012,-0.0109955742955208
5,1.02083339474202,-0.180555567988136,-0.0222222230277034,0.01588249579072,0.00580321997404099,-0.00794124789535999
5,1.01388893532575,-0.18333333959868,-0.00833333382532574,0.00916297826915979,0.00244346098043024,-0.00763581553474069
5,1.01527782720901,-0.18333333959868,-0.0125000003581147,0.0146607663482428,-0.0128281703218818,0.00549778714776039
5,1.01805561097552,-0.181944447715425,-0.0138888899621255,0.0152716310694814,-0.00305432616733015,0.0033597587607801
5,1.01944450285877,-0.187500003092477,-0.00138888893923146,0.0177150927484035,-0.00488692196086049,0.00244346098043024
5,1.01805561097552,-0.187500003092477,-0.00833333382532574,0.0201585534960032,-0.00702495034784079,0.00397062394768
5,1.02083339474202,-0.18333333959868,-0.0166666676506515,0.0210748501121998,-0.00916297826915979,0.00305432616733015
5,1.01666671909226,-0.18333333959868,-0.00972222266958873,0.011606439948082,0.00122173049021512,-0.0033597587607801
5,1.02222228662528,-0.188888894975731,-0.00972222266958873,0.015577063895762,0.000610865245107561,-0.00152716308366507
5,1.01527782720901,-0.187500003092477,-0.0222222230277034,0.0201585534960032,-0.0033597587607801,-0.000610865245107561
5,1.0125000434425,-0.18333333959868,-0.00833333382532574,0.0213802829384804,0.011606439948082,-0.00855211354792118
5,1.0125000434425,-0.18333333959868,-0.00972222266958873,0.0229074470698834,-0.000305432622553781,0.0033597587607801
5,1.01527782720901,-0.180555567988136,-0.0166666676506515,0.0290160998702049,0.00641408516094089,0.0033597587607801
5,1.00833336779274,-0.18333333959868,-0.0208333341834404,0.0244346093386412,-0.00916297826915979,0.0131336031481624
5,1.01527782720901,-0.180555567988136,-0.0222222230277034,0.0226020142436027,-0.00305432616733015,0.00122173049021512
5,1.01944450285877,-0.180555567988136,-0.0194444453391775,0.0235183127224445,-0.00122173049021512,0.00641408516094089
5,1.02222228662528,-0.180555567988136,-0.0208333341834404,0.0219911485910416,0.00549778714776039,0.00580321997404099
5,1.02361117850853,-0.180555567988136,-0.0194444453391775,0.0229074470698834,0.00885754637420177,0.00152716308366507
5,1.02083339474202,-0.18333333959868,-0.0208333341834404,0.0204639863222837,0.00671951752156019,-0.00122173049021512
5,1.02083339474202,-0.177777784221628,-0.029166668768514,0.0222965814173222,-0.0027488935738802,-0.000610865245107561
5,1.02083339474202,-0.180555567988136,-0.0194444453391775,0.0152716310694814,0.00152716308366507,0.01191187184304
5,1.01944450285877,-0.18333333959868,-0.0152777788063885,0.013744467869401,-0.00702495034784079,0.00122173049021512
5,1.01944450285877,-0.181944447715425,-0.0166666676506515,0.0152716310694814,0.00488692196086049,0.00397062394768
5,1.01666671909226,-0.184722231481934,-0.0180555564949145,0.0134390350431204,0.00855211354792118,0.00183259579353034
5,1.01527782720901,-0.180555567988136,-0.0152777788063885,0.0152716310694814,-0.00916297826915979,-0.000916297896765172
5,1.01805561097552,-0.18333333959868,-0.0152777788063885,0.0210748501121998,-0.0103847095742822,0.00183259579353034
5,1.01527782720901,-0.184722231481934,-0.0250000007162294,0.0171042270958424,-0.0106901414692402,-0.0021380283869803
5,1.01805561097552,-0.190277786858986,-0.0125000003581147,0.0128281703218818,-0.00733038317412138,0.0033597587607801
5,1.01666671909226,-0.188888894975731,-0.0194444453391775,0.0152716310694814,0.000916297896765172,-0.00977384392172098
5,1.01805561097552,-0.187500003092477,-0.0222222230277034,0.013744467869401,0.0113010071218014,-0.0128281703218818
5,1.01805561097552,-0.186111123365188,-0.0250000007162294,0.01191187184304,0.00305432616733015,0.000305432622553781
5,1.01805561097552,-0.188888894975731,-0.0194444453391775,0.00855211354792118,0.00122173049021512,-0.00397062394768
5,1.0125000434425,-0.18333333959868,-0.0166666676506515,0.00977384392172098,-0.00855211354792118,-0.00152716308366507
5,1.0125000434425,-0.175000000455119,-0.0166666676506515,0.0027488935738802,0.00122173049021512,-0.00244346098043024
5,1.01666671909226,-0.179166676104882,-0.026388891079988,-0.00671951752156019,0.00427605677396059,-0.00855211354792118
5,1.02083339474202,-0.180555567988136,-0.0111111115138517,-0.0177150927484035,0.00488692196086049,0.00794124789535999
5,1.01944450285877,-0.181944447715425,-0.0152777788063885,-0.0143553335219622,0.00122173049021512,0.0021380283869803
5,1.01944450285877,-0.187500003092477,-0.0208333341834404,-0.0177150927484035,0.0109955742955208,-0.00824668072164059
5,1.02361117850853,-0.19166667874224,-0.0250000007162294,-0.0164933614432812,0.0164933614432812,-0.00519235478714108
5,1.01527782720901,-0.193055558469529,-0.0194444453391775,-0.00885754637420177,0.0131336031481624,-0.00855211354792118
5,1.0125000434425,-0.194444450352783,-0.00972222266958873,0.0021380283869803,-0.0033597587607801,-0.00519235478714108
5,1.0125000434425,-0.197222234119292,-0.0166666676506515,0.0226020142436027,-0.00610865233466029,0.00397062394768
5,1.01527782720901,-0.190277786858986,-0.0250000007162294,0.0232128798961639,0.000916297896765172,-0.000305432622553781
5,1.01527782720901,-0.187500003092477,-0.0222222230277034,0.0268780700862408,0.00549778714776039,0.0109955742955208
5,1.0125000434425,-0.190277786858986,-0.0194444453391775,0.0280998013913631,0.000916297896765172,0.00305432616733015
5,1.0125000434425,-0.190277786858986,-0.0194444453391775,0.0284052342176437,-0.00671951752156019,0.0021380283869803
5,1.01527782720901,-0.181944447715425,-0.0180555564949145,0.0320704244077206,-0.0100792767480016,0.00946841109544039
5,1.01666671909226,-0.186111123365188,-0.0250000007162294,0.0357356183230877,-0.0152716310694814,-0.000610865245107561
5,1.01666671909226,-0.186111123365188,-0.0250000007162294,0.0452040284872055,-0.00397062394768,-0.00366519158706069
5,1.01666671909226,-0.184722231481934,-0.0222222230277034,0.0421497002243996,-0.0021380283869803,-0.00366519158706069
5,1.01666671909226,-0.184722231481934,-0.00833333382532574,0.0452040284872055,0.00366519158706069,-0.0021380283869803
5,1.01666671909226,-0.184722231481934,-0.00833333382532574,0.0424551330506802,-0.0106901414692402,-0.000305432622553781
5,1.0125000434425,-0.180555567988136,-0.00555555575692586,0.0400116741657257,-0.011606439948082,-0.00855211354792118
5,1.01527782720901,-0.181944447715425,-0.0152777788063885,0.0302378293126821,-0.00702495034784079,-0.0146607663482428
5,1.01527782720901,-0.177777784221628,-0.0194444453391775,0.0207694191485643,0.0027488935738802,-0.0125227374956012
5,1.01527782720901,-0.177777784221628,-0.0208333341834404,0.0167987942695618,0.00519235478714108,-0.00549778714776039
5,1.02083339474202,-0.175000000455119,-0.026388891079988,0.0177150927484035,0.00794124789535999,-0.00885754637420177
5,1.01944450285877,-0.179166676104882,-0.0222222230277034,0.00916297826915979,0.0131336031481624,-0.00885754637420177
5,1.02222228662528,-0.186111123365188,-0.0166666676506515,0.0106901414692402,0.0106901414692402,-0.00824668072164059
5,1.01805561097552,-0.184722231481934,-0.00972222266958873,0.0177150927484035,0.0143553335219622,-0.0134390350431204
5,1.01527782720901,-0.188888894975731,-0.0194444453391775,0.00916297826915979,0.00427605677396059,-0.00794124789535999
5,1.01666671909226,-0.181944447715425,-0.0208333341834404,0.011606439948082,0.0183259565383196,0.000916297896765172
5,1.01527782720901,-0.187500003092477,-0.0222222230277034,0.0128281703218818,0.0128281703218818,-0.0045814891345799
5,1.01805561097552,-0.190277786858986,-0.0194444453391775,0.00916297826915979,0.0106901414692402,-0.013744467869401
5,1.00972225967599,-0.187500003092477,-0.0166666676506515,0.00702495034784079,-0.000610865245107561,-0.0100792767480016
5,1.01527782720901,-0.180555567988136,-0.0208333341834404,0.0033597587607801,0.0045814891345799,0.000305432622553781
5,1.01388893532575,-0.18333333959868,-0.0222222230277034,0.00824668072164059,0.00122173049021512,-0.00549778714776039
5,1.01527782720901,-0.18333333959868,-0.0194444453391775,0.00244346098043024,0.00305432616733015,0.0033597587607801
5,1.02083339474202,-0.181944447715425,-0.0222222230277034,0.00183259579353034,0.00702495034784079,-0.000916297896765172
5,1.01944450285877,-0.179166676104882,-0.0180555564949145,-0.00244346098043024,0.00733038317412138,-0.00794124789535999
5,1.01944450285877,-0.188888894975731,-0.0180555564949145,-0.0027488935738802,0.0100792767480016,0.0045814891345799
5,1.0125000434425,-0.184722231481934,-0.0125000003581147,-0.00641408516094089,0.0192422550171614,-0.0106901414692402
5,1.01388893532575,-0.18333333959868,-0.0194444453391775,-0.0113010071218014,0.0125227374956012,-0.00702495034784079
5,1.01944450285877,-0.18333333959868,-0.0194444453391775,-0.0021380283869803,0.00702495034784079,0.00244346098043024
5,1.02222228662528,-0.18333333959868,-0.0138888899621255,-0.00824668072164059,0.0152716310694814,0.000916297896765172
5,1.01944450285877,-0.19166667874224,-0.0194444453391775,-0.00946841109544039,0.0201585534960032,-0.00183259579353034
5,1.01944450285877,-0.184722231481934,-0.0222222230277034,-0.0106901414692402,0.02382374368608,-0.00824668072164059
5,1.01388893532575,-0.180555567988136,-0.0194444453391775,-0.000916297896765172,0.0164933614432812,-0.00641408516094089
5,1.01666671909226,-0.186111123365188,-0.0152777788063885,0.00305432616733015,-0.00641408516094089,-0.00824668072164059
5,1.02361117850853,-0.187500003092477,-0.0166666676506515,0.00366519158706069,0.0109955742955208,-0.00641408516094089
5,1.02222228662528,-0.18333333959868,-0.00694444498106275,-0.0033597587607801,0.0204639863222837,-0.00885754637420177
5,1.01666671909226,-0.180555567988136,-0.0180555564949145,-0.0045814891345799,0.00397062394768,-0.00610865233466029
5,1.01666671909226,-0.180555567988136,-0.0180555564949145,-0.0103847095742822,0.00824668072164059,0.0033597587607801
5,1.01527782720901,-0.187500003092477,-0.0166666676506515,-0.0201585534960032,0.00610865233466029,-0.00366519158706069
5,1.01805561097552,-0.186111123365188,-0.0152777788063885,-0.0128281703218818,0.0027488935738802,-0.000916297896765172
5,1.01805561097552,-0.186111123365188,-0.0152777788063885,-0.00824668072164059,0.0180205255746841,-0.00794124789535999
5,1.00000001649321,-0.190277786858986,-0.0111111115138517,-0.0021380283869803,0.0140499006956816,-0.00946841109544039
5,1.01388893532575,-0.186111123365188,-0.0138888899621255,0.00977384392172098,0.015577063895762,-0.00794124789535999
5,1.01388893532575,-0.186111123365188,-0.0138888899621255,0.0143553335219622,0.00641408516094089,-0.00183259579353034
5,1.0125000434425,-0.177777784221628,-0.0125000003581147,0.0201585534960032,0.000916297896765172,0.000305432622553781
5,1.01527782720901,-0.181944447715425,-0.0194444453391775,0.0146607663482428,0.0186313893646002,-0.00824668072164059
5,1.01527782720901,-0.18333333959868,-0.0250000007162294,0.0167987942695618,0.0167987942695618,-0.00702495034784079
5,1.01527782720901,-0.18333333959868,-0.0250000007162294,0.0232128798961639,0.00305432616733015,-0.00427605677396059
5,1.01944450285877,-0.180555567988136,-0.0138888899621255,0.0305432621389627,0.00916297826915979,-0.00397062394768
5,1.01944450285877,-0.180555567988136,-0.0180555564949145,0.019547687843442,0.00610865233466029,-0.00305432616733015
5,1.01944450285877,-0.180555567988136,-0.0180555564949145,0.0164933614432812,0.0140499006956816,-0.0045814891345799
5,1.01666671909226,-0.181944447715425,-0.0180555564949145,0.00824668072164059,0.00519235478714108,-0.00122173049021512
5,1.01944450285877,-0.180555567988136,-0.0125000003581147,0.0177150927484035,0.0045814891345799,-0.00733038317412138
5,1.01944450285877,-0.180555567988136,-0.0125000003581147,0.00916297826915979,0.011606439948082,-0.000610865245107561
5,1.01666671909226,-0.18333333959868,-0.0194444453391775,0.0125227374956012,0.0106901414692402,-0.0033597587607801
5,1.01527782720901,-0.179166676104882,-0.0138888899621255,0.00733038317412138,0.00641408516094089,-0.0113010071218014
5,1.02083339474202,-0.181944447715425,-0.0222222230277034,0.0109955742955208,0.00855211354792118,-0.0033597587607801
5,1.01527782720901,-0.180555567988136,-0.0250000007162294,0.013744467869401,-0.00152716308366507,-0.00855211354792118
5,1.01944450285877,-0.186111123365188,-0.0180555564949145,0.0192422550171614,0.00519235478714108,-0.00427605677396059
5,1.01527782720901,-0.180555567988136,-0.0152777788063885,0.0213802829384804,0.0146607663482428,-0.011606439948082
5,1.01527782720901,-0.176388892338373,-0.0180555564949145,0.013744467869401,0.00733038317412138,-0.0109955742955208
5,1.01388893532575,-0.179166676104882,-0.0208333341834404,0.0134390350431204,0.0167987942695618,-0.01191187184304
5,1.01666671909226,-0.180555567988136,-0.0125000003581147,0.0109955742955208,0.0131336031481624,-0.00916297826915979
5,1.01805561097552,-0.177777784221628,-0.0180555564949145,0.0109955742955208,0.00946841109544039,-0.00794124789535999
5,1.01666671909226,-0.181944447715425,-0.0222222230277034,0.00366519158706069,0.01191187184304,-0.00916297826915979
5,1.01666671909226,-0.17361112072783,-0.0194444453391775,-0.00244346098043024,0.00702495034784079,-0.01588249579072
5,1.01388893532575,-0.180555567988136,-0.0194444453391775,0.00244346098043024,0.00763581553474069,-0.00641408516094089
5,1.01666671909226,-0.180555567988136,-0.00972222266958873,0.00702495034784079,0.00855211354792118,-0.00305432616733015
5,1.01666671909226,-0.184722231481934,-0.0222222230277034,0.00916297826915979,0.01191187184304,-0.0204639863222837
5,1.01527782720901,-0.184722231481934,-0.0194444453391775,0.0100792767480016,0.00152716308366507,-0.0109955742955208
5,1.01666671909226,-0.180555567988136,-0.0166666676506515,0.0213802829384804,-0.0109955742955208,-0.0103847095742822
5,1.02916674604155,-0.188888894975731,-0.0125000003581147,0.019547687843442,0.00183259579353034,-0.0113010071218014
5,1.02500007039179,-0.184722231481934,-0.0125000003581147,0.0232128798961639,0.0183259565383196,-0.0113010071218014
