Activity,acc_x,acc_y,acc_z,gyro_x,gyro_y,gyro_z
0,0.565277780887976,-0.0861111144222878,0.847222298326124,0.0757472887635231,-0.0326812900602817,-0.0549778714776039
0,0.562499997121468,-0.0777777813567098,0.838888947026599,0.0479529201984406,-0.0293215326964855,-0.0647517144680023
0,0.562499997121468,-0.0819444448505077,0.837500055143345,-0.0250454749912024,-0.0885754600167274,-0.0320704244077206
0,0.562499997121468,-0.0819444448505077,0.833333379493583,-0.017409659922123,-0.0842994004487991,-0.0302378293126821
0,0.54027777561326,-0.0763888894734557,0.827777811960566,0.0262672062963247,-0.064446285367012,-0.03176499158144
0,0.538888932353864,-0.0500000014324589,0.812500049868629,0.0387899428606033,-0.015577063895762,-0.0464257597923279
0,0.544444451263022,-0.0680555564078778,0.818055568777787,0.0253509078174829,0.0213802829384804,-0.0500909499824047
0,0.572222240304247,-0.0777777813567098,0.827777811960566,-0.0329867228865623,-0.0595593601465225,-0.0372627787292004
0,0.575000024070755,-0.0777777813567098,0.841666730793107,-0.0335975885391235,-0.064446285367012,-0.0305432621389627
0,0.551388910679293,-0.0722222259796579,0.841666730793107,0.00183259579353034,-0.0488692186772823,-0.0323758572340012
0,0.541666667496514,-0.0625000010308258,0.809722266102121,0.0284052342176437,-0.0128281703218818,-0.0329867228865623
0,0.541666667496514,-0.0625000010308258,0.809722266102121,0.000305432622553781,-0.0320704244077206,-0.0305432621389627
0,0.555555586329055,-0.0638888929140799,0.82916670384382,-0.0354301854968071,-0.0287106670439243,-0.0424551330506802
0,0.572222240304247,-0.0722222259796579,0.844444514559616,-0.029626963660121,-0.0250454749912024,-0.0546724386513233
0,0.572222240304247,-0.0722222259796579,0.844444514559616,0.00488692196086049,-0.0198531206697226,-0.0403171069920063
0,0.565277780887976,-0.0680555564078778,0.82916670384382,0.0189368221908808,-0.00152716308366507,-0.0442877300083637
0,0.565277780887976,-0.0680555564078778,0.82916670384382,0.0161879286170006,-0.00152716308366507,-0.027488935738802
0,0.561111153862072,-0.0694444482911319,0.827777811960566,-0.00427605677396059,-0.0424551330506802,-0.0146607663482428
0,0.565277780887976,-0.0750000036681839,0.820833352544296,-0.0360410511493683,-0.0507018156349659,0.000305432622553781
0,0.568055564654484,-0.0680555564078778,0.815277785011279,-0.0568104684352875,-0.0720821022987366,0.00610865233466029
0,0.568055564654484,-0.0680555564078778,0.815277785011279,-0.0717766657471657,-0.0381790772080422,-0.00610865233466029
0,0.565277780887976,-0.0708333340964038,0.818055568777787,-0.0626136884093285,-0.0222965814173222,-0.00580321997404099
0,0.56666667277123,-0.0694444482911319,0.808333374218867,-0.0284052342176437,-0.0427605658769607,-0.0335975885391235
0,0.573611132187501,-0.0750000036681839,0.811111157985375,-0.0198531206697226,-0.126449108123779,-0.0351247526705265
0,0.584722267253534,-0.0777777813567098,0.818055568777787,0.0171042270958424,-0.137139245867729,-0.0497855171561241
0,0.572222240304247,-0.0819444448505077,0.820833352544296,0.0293215326964855,-0.0977384373545647,-0.0583376325666905
0,0.562499997121468,-0.0680555564078778,0.827777811960566,0.00366519158706069,-0.0568104684352875,-0.0430659987032413
0,0.568055564654484,-0.0611111152255539,0.818055568777787,-0.00183259579353034,-0.0485637858510017,-0.0436768643558025
0,0.581944483487025,-0.0666666706026059,0.812500049868629,0.019547687843442,-0.0439822971820831,-0.0540615729987621
0,0.587500002396184,-0.0777777813567098,0.827777811960566,0.0949895456433296,-0.0598647929728031,-0.0580321997404099
0,0.584722267253534,-0.0750000036681839,0.840277838909853,0.143247902393341,-0.0232128798961639,-0.0861319974064827
0,0.576388915954009,-0.0652777787193518,0.816666676894533,0.0919352173805237,-0.0684169083833694,-0.0494800843298435
0,0.56666667277123,-0.0583333375370279,0.795833347269579,0.0143553335219622,-0.102319926023483,-0.00824668072164059
0,0.550000018796039,-0.055555559848502,0.788888936477167,-0.0699440687894821,-0.107512280344963,-0.0125227374956012
0,0.588888894279438,-0.0597222233422998,0.790277828360421,-0.0858265683054924,-0.0842994004487991,-0.0687223374843597
0,0.595833353695709,-0.0680555564078778,0.805555590452358,-0.0519235469400883,-0.102930791676045,-0.0684169083833694
0,0.594444461812454,-0.0680555564078778,0.815277785011279,-0.0421497002243996,-0.204334422945976,-0.0290160998702049
0,0.587500002396184,-0.0736111117849297,0.825000028194058,-0.019547687843442,-0.264810085296631,-0.0143553335219622
0,0.575000024070755,-0.0569444456537738,0.795833347269579,-0.0696386396884918,-0.199752941727638,-0.0180205255746841
0,0.562499997121468,-0.0500000014324589,0.787500044593913,-0.05283984541893,-0.112704634666443,-0.0659734457731247
0,0.573611132187501,-0.0486111125881959,0.784722260827405,-0.0442877300083637,-0.134084925055504,-0.0675006061792374
0,0.626388926503441,-0.0486111125881959,0.795833347269579,-0.132557764649391,-0.22724187374115,-0.0516181141138077
0,0.666666693870094,-0.0513888902767219,0.791666671619817,-0.213497400283814,-0.138971850275993,-0.128281697630882
0,0.659722234453824,-0.0819444448505077,0.795833347269579,-0.256563395261765,-0.162184715270996,-0.117286130785942
0,0.636111121062362,-0.0986111170596459,0.791666671619817,-0.15851953625679,-0.147523954510689,-0.113926365971565
0,0.629166710269949,-0.0986111170596459,0.798611131036088,-0.000305432622553781,-0.0580321997404099,-0.144469633698463
0,0.663888910103586,-0.113888891307548,0.80277780668585,0.0852157026529312,-0.108123145997524,-0.158214092254639
0,0.719444488186035,-0.123611110178398,0.808333374218867,0.184786736965179,-0.130114302039146,-0.233655959367752
0,0.770833341994863,-0.13750000469901,0.805555590452358,0.178372651338577,-0.52870386838913,-0.248316720128059
0,0.770833341994863,-0.13750000469901,0.805555590452358,0.155159771442413,-0.969137728214264,-0.180510684847832
0,0.729166682744956,-0.108333335930496,0.806944482335612,-0.00519235478714108,-1.28648221492767,-0.0421497002243996
0,0.691666699144811,-0.104166672436698,0.727777790861702,-0.0229074470698834,-1.59588539600372,0.0265726372599602
0,0.741666709694243,-0.12777778582816,0.676388937052873,-0.130725160241127,-2.14932942390442,0.0907134860754013
0,0.827777811960566,-0.161111118090472,0.647222256128395,-0.169820532202721,-2.69177770614624,0.0641408488154411
0,0.801388914802596,-0.186111123365188,0.659722234453824,-0.0406225398182869,-3.21223497390747,0.0754418596625328
0,0.75694447178618,-0.130555557438704,0.618055575203916,0.234877690672875,-2.58945775032044,0.0778853222727776
0,0.80277780668585,-0.0722222259796579,0.581944483487025,-0.00885754637420177,-2.6645941734314,0.127365410327911
0,0.904166671044111,-0.0722222259796579,0.286111120152123,-0.441044718027115,-4.9871039390564,-0.000916297896765172
0,0.927777833059431,-0.0472222237439329,0.326388911830706,-1.53205001354218,-7.41895818710327,0.0934623852372169
0,1.04722224327614,-0.0777777813567098,0.423611149163062,-1.7134770154953,-6.17645835876465,0.0604756586253643
0,0.975000059842355,-0.12777778582816,0.259722222994153,-1.07206845283508,-4.48894309997559,-0.270613312721252
0,0.933333400592447,-0.0888888921108138,0.101388894748172,-0.959974706172943,-3.96298837661743,-0.17409659922123
0,0.95000000594378,-0.0611111152255539,0.0250000007162294,-0.583070874214172,-3.07967710494995,-0.388510286808014
0,0.925000049292922,-0.0875000002275597,-0.0875000002275597,-0.399811297655106,-3.01889610290527,-0.207999616861343
0,0.859722228027695,-0.154166670830166,-0.0125000003581147,-0.190895393490791,-2.44071197509766,0.145691365003586
0,1.00694447590948,-0.120833338567854,-0.0250000007162294,-0.12705996632576,-1.79838728904724,0.271529614925385
0,1.0513889189259,0.0138888899621255,-0.105555564319952,-0.548251569271088,-2.62275004386902,-0.132557764649391
0,0.884722281926269,-0.125000002061652,-0.111111119697004,-0.48136180639267,-2.92421197891235,-0.543670058250427
0,0.781944477060896,-0.179166676104882,-0.113888891307548,0.339335650205612,-0.595288157463074,-0.528092980384827
0,0.861111119910949,-0.0763888894734557,-0.186111123365188,0.468839079141617,-0.372016936540604,-0.0901026204228401
0,0.952777789710289,-0.00972222266958873,-0.243055569018962,0.490219354629517,-0.276416510343552,0.197309479117393
0,0.941666654644256,-0.0111111115138517,-0.224999998848587,0.766025006771088,0.270918726921081,0.397978693246841
0,0.925000049292922,-0.0888888921108138,-0.283333336385615,0.95142263174057,-0.587346911430359,0.215940862894058
0,0.99583334084345,-0.0958333393711199,-0.252777787889811,1.08275866508484,-0.907134890556335,-0.135612085461616
0,1.03888889197661,-0.0125000003581147,-0.269444466176932,0.866817772388458,-0.9056077003479,-0.25411993265152
0,1.01388893532575,0.00138888893923146,-0.250000004123303,0.465784758329391,-0.288939267396927,-0.102930791676045
0,0.993055557076942,-0.0458333348996699,-0.250000004123303,0.575129628181458,1.25471723079681,0.270918726921081
0,1.00555558402623,-0.136111112815755,-0.300000014672736,0.758694648742676,1.28434419631958,0.298713117837906
0,1.09583336194232,-0.172222228844576,-0.316666668647927,0.64537912607193,0.597731649875641,0.0870482996106148
0,1.08611111875954,-0.200000005729836,-0.113888891307548,0.297185927629471,1.02258837223053,0.184481307864189
0,1.01805561097552,-0.233333350148112,-0.204166669223633,0.0433714315295219,0.672868072986603,0.01191187184304
0,1.04305556762637,-0.138888896582264,-0.244444460902216,-0.113315500319004,0.291688144207001,-0.246484130620956
0,1.04305556762637,-0.138888896582264,-0.244444460902216,-0.181121543049812,0.433714330196381,-0.0742201283574104
0,1.05277781080915,-0.150000007336368,-0.212499996211229,-0.0754418596625328,0.91507613658905,0.211970239877701
0,1.11111117265811,-0.190277786858986,-0.161111118090472,-0.0290160998702049,0.789848744869232,0.182037845253944
0,1.05694448645892,-0.140277788465518,-0.16527778158427,-0.0925460830330849,0.515875697135925,0.24342979490757
0,0.915277806110144,-0.158333334323963,-0.126388893944906,0.0620028227567673,0.675006091594696,0.546418964862823
0,0.869444471210474,-0.12777778582816,-0.130555557438704,0.0885754600167274,0.520151734352112,0.395535260438919
0,0.89722221162784,-0.0819444448505077,-0.148611115453114,0.11087204515934,0.44898596405983,0.0265726372599602
0,1.00277780025972,-0.10972222781375,-0.123611110178398,0.0757472887635231,0.206472456455231,-0.604145705699921
0,1.24166671794085,-0.194444450352783,-0.20138889761309,0.0647517144680023,-0.261450320482254,-0.697608113288879
0,1.23750004229109,-0.0819444448505077,-0.20972223675665,0.193644285202026,0.0577267669141293,0.274889349937439
0,1.09444447005906,-0.144444451959316,-0.206944452990142,0.00763581553474069,0.12156218290329,0.184481307864189
0,1.09444447005906,-0.144444451959316,-0.206944452990142,-0.087659165263176,0.327729195356369,0.00366519158706069
0,1.00555558402623,-0.154166670830166,-0.14722222356986,-0.224492982029915,0.544586360454559,0.107206851243973
0,0.980555627375371,-0.169444445078067,-0.0777777813567098,-0.167377084493637,0.419358998537064,-0.0638354197144508
0,0.952777789710289,-0.200000005729836,-0.0638888929140799,-0.0656680166721344,0.271224170923233,-0.0348193198442459
0,0.92083337364316,-0.18333333959868,-0.0652777787193518,0.135612085461616,0.152105450630188,0.122783914208412
0,0.936111184358955,-0.152777778946911,-0.0583333375370279,0.210443079471588,0.0372627787292004,0.414472073316574
0,0.940277860008718,-0.104166672436698,-0.0819444448505077,0.23273965716362,-0.0952949747443199,0.816726803779602
0,0.940277860008718,-0.104166672436698,-0.0819444448505077,0.0913243517279625,-0.280387133359909,0.711047172546387
0,1.13611112930897,-0.0236111118719664,-0.154166670830166,-0.0684169083833694,-0.238848313689232,-0.0992656052112579
0,1.09722225382557,-0.25555557165632,-0.180555567988136,-0.238542884588242,-0.24312436580658,-0.794735670089722
0,1.09722225382557,-0.25555557165632,-0.180555567988136,-0.00763581553474069,-0.236099421977997,-0.50823986530304
0,1.14305558872524,-0.287500012035377,-0.13750000469901,-0.0522289797663689,-0.183870434761047,-0.193033412098885
0,1.11388895642462,-0.262500006760661,-0.156944454596674,-0.0491746515035629,0.205556154251099,0.0177150927484035
0,1.00694447590948,-0.206944452990142,-0.184722231481934,-0.011606439948082,0.451429426670075,0.00794124789535999
0,1.00972225967599,-0.177777784221628,-0.152777778946911,-0.0595593601465225,0.294742494821549,-0.00885754637420177
0,1.00138890837647,-0.163888889701015,-0.104166672436698,-0.0290160998702049,0.11606439948082,-0.19028452038765
0,0.997222232726705,-0.200000005729836,-0.0888888921108138,0.0885754600167274,0.107817716896534,-0.488692194223404
0,0.961111141009813,-0.15555556271342,-0.130555557438704,0.170736834406853,0.222965821623802,-0.591928422451019
0,1.03472221632685,-0.17361112072783,-0.111111119697004,0.406836241483688,0.230907067656517,-0.567799270153046
0,1.07916665934326,-0.144444451959316,-0.111111119697004,0.391564607620239,0.220522359013557,-0.634688973426819
0,0.976388951725609,-0.0750000036681839,-0.106944444047242,0.129808858036995,0.202807262539864,-1.0690141916275
0,0.901388887277602,-0.0652777787193518,-0.0750000036681839,-0.168598800897598,-0.0507018156349659,-0.779769480228424
0,1.06805562152495,-0.0819444448505077,-0.0958333393711199,-0.236710280179977,-0.15851953625679,-0.291993588209152
0,1.03472221632685,-0.0916666697993398,-0.0763888894734557,-0.234266817569733,-0.445626199245453,-0.160046696662903
0,1.04166667574312,-0.0819444448505077,-0.0861111144222878,-0.0247400421649218,-0.469755381345749,-0.120951317250729
0,1.02916674604155,-0.0750000036681839,-0.106944444047242,0.153632611036301,-0.519540905952454,-0.145080491900444
0,1.01111115155925,-0.0944444474878658,-0.102777780553444,0.0729983970522881,-0.34880405664444,-0.0791070461273193
0,1.15000004814151,-0.0666666706026059,-0.0847222225390337,0.03176499158144,-0.457538068294525,-0.164322748780251
0,1.14861115625826,-0.0180555564949145,-0.2194444556275,-0.270613312721252,0.350025773048401,0.209526777267456
0,1.06388894587519,0.0250000007162294,-0.231944458264858,0.103847093880177,0.569937288761139,0.245262399315834
0,1.04861113515939,-0.0666666706026059,-0.175000000455119,-0.00794124789535999,0.748920798301697,0.146607652306557
0,0.975000059842355,-0.0902777839940679,-0.0347222241455659,0.0299323964864016,0.200363799929619,0.0183259565383196
0,1.00000001649321,-0.112499999424294,-0.0930555616825939,0.0592539273202419,0.240070044994354,-0.0580321997404099
0,1.00555558402623,-0.0944444474878658,-0.108333335930496,0.0913243517279625,0.289855569601059,-0.0784961804747581
0,1.01944450285877,-0.0847222225390337,-0.111111119697004,0.104152522981167,0.334143280982971,-0.0623082555830479
0,1.03194452980806,-0.0486111125881959,-0.0930555616825939,0.0565050356090069,0.221133217215538,0.0244346093386412
0,1.02916674604155,-0.052777782159976,-0.0791666671619817,0.0387899428606033,0.136833816766739,0.0653625801205635
0,1.02638896227504,-0.0513888902767219,-0.0750000036681839,0.0439822971820831,0.0552833043038845,0.0387899428606033
0,1.01527782720901,-0.0625000010308258,-0.0819444448505077,0.0366519130766392,0.0888808965682983,0.00122173049021512
0,1.01111115155925,-0.0250000007162294,-0.0375000018340919,0.00855211354792118,-0.000916297896765172,-0.00122173049021512
0,1.02500007039179,-0.0416666683668809,-0.0680555564078778,0.019547687843442,0.0525344125926495,0.0106901414692402
0,1.04027778385987,-0.0430555572111439,-0.0611111152255539,0.124311074614525,-0.134084925055504,0.0323758572340012
0,1.03750000009336,-0.055555559848502,-0.0902777839940679,-0.252898216247559,0.280387133359909,0.0320704244077206
0,1.00694447590948,-0.0569444456537738,-0.17361112072783,-0.202196389436722,0.464868456125259,0.0708603709936142
0,1.02222228662528,-0.0875000002275597,-0.0388888906783549,0.027488935738802,0.236099421977997,0.00794124789535999
0,1.01111115155925,-0.0569444456537738,-0.00694444498106275,0.0561996027827263,-0.0488692186772823,0.00152716308366507
0,1.01527782720901,-0.0458333348996699,-0.0513888902767219,0.0733038261532784,-0.103847093880177,-0.00885754637420177
0,1.00833336779274,-0.0638888929140799,-0.0680555564078778,0.0418442711234093,-0.0452040284872055,-0.01588249579072
0,1.02222228662528,-0.0777777813567098,-0.0916666697993398,0.0161879286170006,0.118202425539494,-0.0690277740359306
0,0.975000059842355,-0.0902777839940679,-0.180555567988136,-0.173180297017098,0.635299861431122,-0.136833816766739
0,1.00694447590948,-0.138888896582264,0.275000009398019,-0.0491746515035629,0.359188765287399,-0.64537912607193
0,1.00694447590948,-0.0388888906783549,-0.0444444460554069,-0.0858265683054924,0.302378296852112,-0.462119549512863
0,0.901388887277602,-0.0458333348996699,0.0125000003581147,-0.202807262539864,-0.0678060427308083,-0.884838283061981
0,0.994444448960196,-0.029166668768514,-0.0638888929140799,-0.330172657966614,0.240680903196335,-1.00059723854065
0,1.05694448645892,-0.0513888902767219,0.00277777787846293,-0.0311541277915239,-0.0855211317539215,-0.652404069900513
0,1.03750000009336,0.00555555575692586,-0.00138888893923146,0.113926365971565,-0.36529740691185,-0.569937288761139
0,1.17361111290911,-0.00277777787846293,-0.14583334384257,0.163406446576118,-0.370489776134491,-0.408974289894104
0,1.1083333888916,0.0611111152255539,-0.126388893944906,0.0925460830330849,0.0769690200686455,-0.0839939713478088
0,1.02361117850853,0.0458333348996699,-0.0875000002275597,0.0161879286170006,0.347276896238327,-0.113926365971565
0,1.06388894587519,0.0430555572111439,-0.0986111170596459,-0.00641408516094089,0.734565436840057,-0.0867428630590439
0,1.04305556762637,0.0375000018340919,-0.027777779924251,0.0510072484612465,0.672562658786774,-0.0357356183230877
0,0.791666671619817,0.00972222266958873,-0.101388894748172,-0.194866016507149,0.515875697135925,-0.00366519158706069
0,0.945833330294018,0.00138888893923146,0.00277777787846293,-0.326202034950256,0.277332812547684,-0.137750118970871
0,0.98888888142718,0.033333335301303,0.00555555575692586,-0.314290165901184,0.23243422806263,-0.105374254286289
0,0.923611157409668,0.0138888899621255,0.0513888902767219,-0.224187538027763,0.231517925858498,0.149051114916802
0,0.976388951725609,0.026388891079988,0.0152777788063885,-0.0561996027827263,0.122478485107422,0.579711139202118
0,0.834722271376837,0.055555559848502,0.0194444453391775,0.058643065392971,-0.0687223374843597,1.14170718193054
0,0.769444450111609,0.0250000007162294,0.0347222241455659,0.273667633533478,-0.144469633698463,1.76631689071655
0,0.449999997697174,0.0847222225390337,0.0930555616825939,0.395840674638748,-0.233350530266762,2.39734053611755
0,1.47500006808896,-0.186111123365188,-0.0722222259796579,0.148745685815811,0.409279704093933,0.289244681596756
0,1.31527779325788,-0.168055565350778,-0.0388888906783549,-0.0146607663482428,0.348193198442459,-0.31703907251358
0,1.23888893417434,-0.104166672436698,-0.0138888899621255,-0.0201585534960032,0.284663200378418,-0.394313514232635
0,1.07638897282447,-0.0736111117849297,0.0375000018340919,0.0332921557128429,0.0754418596625328,-0.256257981061935
0,1.02916674604155,-0.0500000014324589,0.0500000014324589,0.081855945289135,0.2379320114851,-0.0952949747443199
0,1.0361111082101,-0.0388888906783549,0.033333335301303,0.0397062413394451,0.154854342341423,0.0140499006956816
0,1.03888889197661,-0.0375000018340919,0.0166666676506515,-0.00702495034784079,0.0280998013913631,-0.0180205255746841
0,1.00555558402623,-0.0472222237439329,0.0236111118719664,-0.0314595587551594,-0.0830776765942574,-0.0821613743901253
0,1.03194452980806,-0.0722222259796579,0.0138888899621255,-0.110566608607769,-0.0241291765123606,-0.103847093880177
0,1.04166667574312,-0.0680555564078778,0.00694444498106275,-0.201585531234741,0.11087204515934,-0.0803287774324417
0,1.06527783775844,-0.0694444482911319,0.0500000014324589,-0.197614908218384,0.205556154251099,0.00244346098043024
0,1.06388894587519,-0.0583333375370279,0.0597222233422998,-0.0204639863222837,0.113620936870575,0.0726929605007172
0,1.01944450285877,-0.0541666679652478,0.0680555564078778,0.223271250724793,-0.310624986886978,-0.0720821022987366
0,1.01527782720901,-0.0638888929140799,0.0638888929140799,0.169820532202721,-0.412334054708481,-0.0473420582711697
0,1.03888889197661,-0.0458333348996699,0.0125000003581147,0.132863193750381,-0.325285732746124,0.0516181141138077
0,0.998611124609959,-0.0486111125881959,0.00694444498106275,0.309097826480865,0.485027015209198,0.113010071218014
0,0.986111194908388,-0.0486111125881959,0.0194444453391775,0.0280998013913631,-0.0815505087375641,0.0836885422468185
0,0.994444448960196,-0.0597222233422998,0.029166668768514,0.0467311926186085,-0.149356558918953,0.0913243517279625
0,1.04027778385987,-0.0416666683668809,0.00833333382532574,0.0455094613134861,-0.0678060427308083,0.0143553335219622
0,1.05416670269241,-0.0472222237439329,0.00833333382532574,0.0415388382971287,-0.017409659922123,-0.00244346098043024
0,1.04444445950963,-0.0597222233422998,0.00972222266958873,0.0299323964864016,0.0287106670439243,-0.00122173049021512
0,1.03194452980806,-0.0597222233422998,0.00277777787846293,0.0103847095742822,0.02382374368608,0.0122173046693206
5,1.02222228662528,-0.0472222237439329,0.0236111118719664,0.0342084541916847,-0.00824668072164059,0.0161879286170006
5,1.01527782720901,-0.0458333348996699,0.0125000003581147,0.0241291765123606,-0.0455094613134861,0.0565050356090069
5,1.02638896227504,-0.0513888902767219,0.00833333382532574,-0.000610865245107561,-0.0348193198442459,0.0595593601465225
5,1.0305556379248,-0.0722222259796579,0.00833333382532574,0.00824668072164059,-0.021685715764761,0.0143553335219622
5,1.02916674604155,-0.0722222259796579,0.00277777787846293,0.00885754637420177,-0.0204639863222837,-0.0210748501121998
5,1.01527782720901,-0.0611111152255539,0.0250000007162294,-0.011606439948082,-0.102014496922493,-0.0372627787292004
5,1.04861113515939,-0.0541666679652478,0.00277777787846293,0.0143553335219622,-0.0742201283574104,-0.0128281703218818
5,1.03888889197661,-0.0513888902767219,0.00138888893923146,0.0232128798961639,0.0241291765123606,0.00610865233466029
5,1.02916674604155,-0.0472222237439329,0.00972222266958873,-0.00244346098043024,-0.0103847095742822,0.0378736443817616
5,1.02916674604155,-0.0472222237439329,0.00972222266958873,0.00305432616733015,-0.00488692196086049,0.0247400421649218
5,1.02361117850853,-0.0694444482911319,0.0138888899621255,-0.00183259579353034,-0.0128281703218818,0.00885754637420177
5,1.02916674604155,-0.0652777787193518,0.00972222266958873,0.00977384392172098,-0.0164933614432812,-0.0253509078174829
5,1.02916674604155,-0.0652777787193518,0.00972222266958873,0.0183259565383196,-0.0299323964864016,-0.000610865245107561
5,1.0361111082101,-0.0583333375370279,0.0111111115138517,0.0335975885391235,0.00305432616733015,-0.0045814891345799
5,1.02777785415829,-0.0583333375370279,0.0152777788063885,0.0232128798961639,0.0241291765123606,-0.01588249579072
5,1.02777785415829,-0.0583333375370279,0.0152777788063885,0.0253509078174829,0.0167987942695618,0.00122173049021512
5,1.02638896227504,-0.0500000014324589,0.0111111115138517,0.03176499158144,0.0482583530247212,0.00580321997404099
5,1.0333333244436,-0.0458333348996699,0.00277777787846293,0.0659734457731247,0.140804439783096,0.0436768643558025
5,1.0333333244436,-0.0458333348996699,0.00277777787846293,0.0366519130766392,0.10048733651638,0.0488692186772823
5,1.02777785415829,-0.0541666679652478,0.00972222266958873,0.0311541277915239,0.0537561401724815,0.0690277740359306
5,1.02916674604155,-0.0875000002275597,-0.00555555575692586,0.0418442711234093,0.0916297882795334,0.118507854640484
5,1.04305556762637,-0.0583333375370279,-0.00555555575692586,-0.000610865245107561,0.166155353188515,0.0552833043038845
5,1.04305556762637,-0.0583333375370279,-0.00555555575692586,-0.00641408516094089,0.160657554864883,0.0583376325666905
5,1.01666671909226,-0.0750000036681839,0.0388888906783549,0.0397062413394451,0.167682513594627,0.0558941699564457
5,1.01666671909226,-0.0750000036681839,0.0388888906783549,0.0378736443817616,0.105068825185299,0.0604756586253643
5,1.02083339474202,-0.0750000036681839,0.03194444645704,0.0189368221908808,0.0177150927484035,0.0717766657471657
5,1.0361111082101,-0.052777782159976,0.026388891079988,0.011606439948082,0.0503963828086853,0.0232128798961639
5,1.02638896227504,-0.0916666697993398,0.0250000007162294,0.0198531206697226,0.0210748501121998,-0.00855211354792118
5,1.02361117850853,-0.0833333367337618,0.0250000007162294,0.0345138870179653,-0.0143553335219622,-0.00855211354792118
5,1.02500007039179,-0.0611111152255539,0.029166668768514,0.0219911485910416,-0.0128281703218818,-0.00397062394768
5,1.02777785415829,-0.0597222233422998,0.0236111118719664,0.0149661982432008,-0.0149661982432008,-0.00641408516094089
5,1.0305556379248,-0.0638888929140799,0.0166666676506515,0.00763581553474069,-0.0164933614432812,-0.0106901414692402
5,1.02638896227504,-0.0625000010308258,0.029166668768514,0.00855211354792118,0.00427605677396059,-0.011606439948082
5,1.02638896227504,-0.0597222233422998,0.029166668768514,0.0113010071218014,-0.0027488935738802,-0.000305432622553781
5,1.02777785415829,-0.0625000010308258,0.0388888906783549,0.00794124789535999,-0.00916297826915979,-0.00733038317412138
5,1.02500007039179,-0.0680555564078778,0.0347222241455659,0.00885754637420177,-0.015577063895762,-0.00794124789535999
5,1.02361117850853,-0.0708333340964038,0.0361111129898289,0.00885754637420177,-0.000305432622553781,0.015577063895762
5,1.02361117850853,-0.0680555564078778,0.030555557612777,0.0134390350431204,-0.0125227374956012,-0.000305432622553781
5,1.02083339474202,-0.0680555564078778,0.029166668768514,0.0320704244077206,-0.03176499158144,-0.0433714315295219
5,1.01111115155925,-0.055555559848502,0.0222222230277034,0.0461203269660473,-0.0467311926186085,-0.0448985956609249
5,1.02222228662528,-0.0583333375370279,0.0388888906783549,0.05283984541893,-0.0311541277915239,-0.0265726372599602
5,1.02222228662528,-0.0513888902767219,0.03194444645704,-0.0287106670439243,-0.160962998867035,-0.00794124789535999
5,1.02777785415829,-0.03194444645704,0.0250000007162294,-0.00366519158706069,-0.0177150927484035,-0.00366519158706069
5,1.02638896227504,-0.0486111125881959,0.0361111129898289,0.00885754637420177,-0.0280998013913631,0.0329867228865623
5,1.03750000009336,-0.0458333348996699,0.0222222230277034,-0.0381790772080422,-0.0946841165423393,0.0357356183230877
5,1.02500007039179,-0.0625000010308258,0.033333335301303,-0.01191187184304,0.0299323964864016,0.01191187184304
5,1.04583335139288,-0.0722222259796579,0.0111111115138517,0.00977384392172098,0.0302378293126821,-0.00641408516094089
5,1.01666671909226,-0.0652777787193518,0.0388888906783549,0.019547687843442,-0.0763581544160843,-0.00946841109544039
5,1.00000001649321,-0.0763888894734557,0.0680555564078778,0.0525344125926495,-0.0784961804747581,0.00702495034784079
5,1.04861113515939,-0.0708333340964038,0.00972222266958873,0.0201585534960032,0.0519235469400883,0.0204639863222837
5,1.03194452980806,-0.0652777787193518,0.00833333382532574,0.0149661982432008,0.0491746515035629,0.0122173046693206
5,1.03194452980806,-0.0638888929140799,0.0180555564949145,-0.01588249579072,0.0387899428606033,0.00855211354792118
5,1.02222228662528,-0.055555559848502,0.0194444453391775,-0.0418442711234093,0.021685715764761,-0.00641408516094089
5,1.02222228662528,-0.0569444456537738,0.0166666676506515,-0.0445931628346443,0.0830776765942574,0.00305432616733015
5,1.02777785415829,-0.0583333375370279,0.0194444453391775,-0.0332921557128429,0.0424551330506802,0.00549778714776039
5,1.03194452980806,-0.0694444482911319,0.0152777788063885,-0.0482583530247212,0.0485637858510017,0.00397062394768
5,1.0305556379248,-0.0763888894734557,0.03194444645704,-0.0357356183230877,0.0500909499824047,0.000610865245107561
5,1.01805561097552,-0.0722222259796579,0.030555557612777,-0.0284052342176437,0.0128281703218818,-0.000610865245107561
5,1.01666671909226,-0.0680555564078778,0.0222222230277034,-0.0284052342176437,0.0250454749912024,-0.00580321997404099
5,1.02500007039179,-0.0680555564078778,0.0125000003581147,0.0021380283869803,-0.017409659922123,-0.000916297896765172
5,1.02500007039179,-0.0680555564078778,0.0125000003581147,0.027488935738802,-0.0546724386513233,0.00122173049021512
5,1.02500007039179,-0.0680555564078778,0.0125000003581147,0.0262672062963247,-0.0323758572340012,0.000916297896765172
5,1.03194452980806,-0.0666666706026059,0.0125000003581147,0.00733038317412138,-0.0320704244077206,0.00580321997404099
5,1.03194452980806,-0.0569444456537738,0.00972222266958873,-0.02382374368608,-0.00977384392172098,0.0253509078174829
5,1.03750000009336,-0.0597222233422998,0.00972222266958873,-0.0690277740359306,0.00824668072164059,0.0149661982432008
5,1.04583335139288,-0.0888888921108138,0.030555557612777,0.0458148941397667,0.00641408516094089,-0.0192422550171614
5,1.0305556379248,-0.0777777813567098,0.033333335301303,0.0100792767480016,0.0180205255746841,-0.00733038317412138
5,1.03194452980806,-0.0638888929140799,0.00972222266958873,-0.0394008085131645,0.0558941699564457,0.017409659922123
5,1.02777785415829,-0.0486111125881959,0.0180555564949145,-0.0620028227567673,0.0442877300083637,0.0397062413394451
5,1.00416669214298,-0.0458333348996699,0.0541666679652478,0.00152716308366507,-0.0354301854968071,0.0455094613134861
5,1.00277780025972,-0.0680555564078778,0.0347222241455659,0.0711658000946045,-0.117591559886932,-0.0021380283869803
5,1.04861113515939,-0.0569444456537738,0.00138888893923146,0.109955742955208,-0.0681114718317986,0.0543670058250427
5,1.03472221632685,-0.0666666706026059,-0.00138888893923146,0.12705996632576,-0.148745685815811,0.0616973899304867
5,1.00972225967599,-0.0666666706026059,-0.00277777787846293,0.0448985956609249,-0.250454753637314,0.0366519130766392
5,1.00416669214298,-0.0833333367337618,0.029166668768514,0.0491746515035629,-0.229074463248253,-0.000610865245107561
5,1.01805561097552,-0.0777777813567098,0.0125000003581147,0.0235183127224445,-0.121867619454861,0.0384845100343227
5,1.04305556762637,-0.0625000010308258,-0.00138888893923146,-0.0561996027827263,-0.00152716308366507,0.0558941699564457
5,1.0361111082101,-0.0666666706026059,-0.00972222266958873,-0.159130394458771,0.0772744566202164,0.0791070461273193
5,1.03750000009336,-0.0777777813567098,0.0125000003581147,-0.124005645513535,0.120035022497177,-0.00549778714776039
5,1.05277781080915,-0.101388894748172,0.033333335301303,0.0164933614432812,0.22174409031868,-0.0534507073462009
5,1.03750000009336,-0.0819444448505077,0.0388888906783549,0.101098194718361,0.220216915011406,-0.0525344125926495
5,1.03888889197661,-0.0125000003581147,-0.0166666676506515,-0.0800233483314514,0.0867428630590439,-0.0736092627048492
5,1.0361111082101,-0.102777780553444,0.0458333348996699,-0.189062789082527,0.167071640491486,0.0595593601465225
5,1.0513889189259,-0.0805555590452358,0.0416666683668809,-0.0131336031481624,0.0733038261532784,-0.0146607663482428
5,1.02083339474202,-0.0777777813567098,0.0361111129898289,0.0183259565383196,-0.0027488935738802,0.00183259579353034
5,1.02777785415829,-0.0750000036681839,0.0222222230277034,-0.00733038317412138,0.021685715764761,0.00855211354792118
5,1.02777785415829,-0.0694444482911319,0.0236111118719664,0.00488692196086049,0.0146607663482428,0.00122173049021512
5,1.02638896227504,-0.0652777787193518,0.0222222230277034,0.0021380283869803,0.0259617734700441,0.00183259579353034
5,1.02500007039179,-0.0652777787193518,0.026388891079988,0.00702495034784079,0.00733038317412138,0.00763581553474069
5,1.02222228662528,-0.0666666706026059,0.0138888899621255,0.0045814891345799,0.00946841109544039,0.0140499006956816
5,1.02916674604155,-0.0694444482911319,0.0194444453391775,0.00885754637420177,0.00580321997404099,0.00977384392172098
5,1.02916674604155,-0.0694444482911319,0.0250000007162294,0.00763581553474069,0.015577063895762,0.0131336031481624
5,1.02500007039179,-0.0680555564078778,0.0250000007162294,0.00366519158706069,0.0021380283869803,0.00580321997404099
5,1.02500007039179,-0.0666666706026059,0.0250000007162294,0.00824668072164059,0.0113010071218014,0.00671951752156019
5,1.02083339474202,-0.0694444482911319,0.0208333341834404,0.0033597587607801,0.00244346098043024,0.00427605677396059
5,1.02500007039179,-0.0722222259796579,0.0222222230277034,0.00397062394768,0.00244346098043024,-0.00366519158706069
5,1.02500007039179,-0.0722222259796579,0.0194444453391775,0.013744467869401,0.0103847095742822,-0.00122173049021512
5,1.04166667574312,-0.0583333375370279,0.0416666683668809,0.0558941699564457,0.013744467869401,0.0164933614432812
5,0.951388897827035,-0.0694444482911319,0.0930555616825939,0.0122173046693206,-0.0342084541916847,0.0271835029125214
5,1.03888889197661,-0.03194444645704,-0.00694444498106275,0.123394779860973,0.0525344125926495,0.0824668109416962
5,0.993055557076942,-0.0694444482911319,0.030555557612777,0.00946841109544039,-0.0607810914516449,-0.0470366254448891
5,1.01527782720901,-0.0722222259796579,0.029166668768514,-0.0470366254448891,-0.0888808965682983,-0.00855211354792118
5,1.01944450285877,-0.108333335930496,0.029166668768514,-0.109039448201656,0.0235183127224445,0.00427605677396059
5,1.04305556762637,-0.0875000002275597,0.0402777795226179,0.000305432622553781,0.0290160998702049,-0.0387899428606033
5,1.01527782720901,-0.055555559848502,0.0361111129898289,0.0934623852372169,-0.107206851243973,-0.0378736443817616
5,1.03194452980806,-0.030555557612777,0.0208333341834404,-0.0363464802503586,-0.0335975885391235,-0.00824668072164059
5,1.03194452980806,-0.0458333348996699,0.0194444453391775,-0.0479529201984406,0.00122173049021512,0.0226020142436027
5,1.04166667574312,-0.0708333340964038,0.00833333382532574,-0.0662788823246956,0.0537561401724815,0.0180205255746841
5,1.01527782720901,-0.0750000036681839,0.029166668768514,-0.0473420582711697,0.0360410511493683,0.0219911485910416
5,1.01944450285877,-0.0902777839940679,0.033333335301303,-0.0302378293126821,-0.0571159012615681,0.0213802829384804
5,1.01944450285877,-0.120833338567854,0.0347222241455659,0.0864374339580536,-0.0140499006956816,-0.00488692196086049
5,1.01527782720901,-0.0916666697993398,0.029166668768514,0.0687223374843597,-0.0616973899304867,-0.0284052342176437
5,1.02777785415829,-0.0708333340964038,0.00555555575692586,-0.0461203269660473,0.0366519130766392,-0.0552833043038845
5,1.03194452980806,-0.0750000036681839,0.0111111115138517,-0.0870482996106148,-0.0229074470698834,-0.013744467869401
5,1.01944450285877,-0.0819444448505077,-0.0111111115138517,-0.145996794104576,-0.127365410327911,0.0256563406437635
5,1.0513889189259,-0.0875000002275597,0.03194444645704,-0.0442877300083637,-0.162795588374138,-0.090408056974411
5,1.02222228662528,-0.0722222259796579,0.055555559848502,0.0323758572340012,-0.19578230381012,-0.166460782289505
5,0.977777843608863,-0.029166668768514,0.0486111125881959,0.113010071218014,-0.240375474095344,0.0143553335219622
5,1.01527782720901,-0.0430555572111439,0.00972222266958873,0.22235494852066,-0.156076073646545,0.0901026204228401
5,1.06250005399193,-0.0722222259796579,-0.0194444453391775,0.240070044994354,-0.193033412098885,0.0360410511493683
5,1.04722224327614,-0.0847222225390337,-0.00277777787846293,0.170736834406853,-0.252287358045578,-0.101403631269932
5,1.04722224327614,-0.0847222225390337,-0.00277777787846293,0.206777885556221,-0.124005645513535,-0.00427605677396059
5,1.0125000434425,-0.0750000036681839,-0.00138888893923146,0.184481307864189,-0.204334422945976,0.0467311926186085
5,1.05000002704265,-0.0583333375370279,-0.033333335301303,0.098960168659687,-0.450513124465942,0.0366519130766392
5,1.05000002704265,-0.0583333375370279,-0.033333335301303,0.178678080439568,-0.678060412406921,-0.0555887371301651
5,1.01111115155925,-0.0361111129898289,-0.0222222230277034,0.249843880534172,-0.455705463886261,0.0106901414692402
5,0.994444448960196,-0.0388888906783549,-0.0250000007162294,0.260839462280273,-0.310930401086807,0.116980694234371
5,1.02083339474202,-0.0611111152255539,-0.0402777795226179,0.201585531234741,-0.317955374717712,0.156686931848526
5,1.05555559457566,-0.0777777813567098,-0.0819444448505077,0.0946841165423393,-0.213497400283814,0.0268780700862408
5,1.0361111082101,-0.0638888929140799,-0.0680555564078778,-0.0769690200686455,-0.00977384392172098,-0.0827722400426865
5,1.0361111082101,-0.0638888929140799,-0.0680555564078778,-0.241597205400467,0.163101017475128,-0.0620028227567673
5,1.02638896227504,-0.055555559848502,-0.0805555590452358,-0.279165416955948,0.260839462280273,0.0381790772080422
5,1.02500007039179,-0.0847222225390337,-0.0458333348996699,-0.21685716509819,0.204334422945976,0.087659165263176
5,1.02500007039179,-0.0847222225390337,-0.0458333348996699,0.0607810914516449,0.371100634336472,0.128587126731873
5,1.02638896227504,-0.126388893944906,-0.0597222233422998,0.118202425539494,0.391564607620239,-0.0109955742955208
5,1.02083339474202,-0.130555557438704,-0.0208333341834404,0.0558941699564457,0.410196006298065,-0.193033412098885
5,1.02222228662528,-0.112499999424294,-0.0180555564949145,-0.0250454749912024,0.394313514232635,-0.12675453722477
5,1.02916674604155,-0.0513888902767219,-0.00555555575692586,-0.0415388382971287,0.267253547906876,0.0152716310694814
5,1.01527782720901,-0.0416666683668809,-0.00555555575692586,-0.019547687843442,0.171653136610985,0.070249505341053
5,1.01805561097552,-0.0513888902767219,0.0125000003581147,-0.0284052342176437,0.189979091286659,0.0378736443817616
5,1.03194452980806,-0.0750000036681839,0.0194444453391775,-0.0143553335219622,0.112399205565453,-0.015577063895762
5,1.01527782720901,-0.0777777813567098,0.029166668768514,-0.0207694191485643,0.00977384392172098,-0.0378736443817616
5,1.0125000434425,-0.0763888894734557,0.0194444453391775,-0.0571159012615681,0.0580321997404099,-0.0323758572340012
5,1.03888889197661,-0.0583333375370279,-0.00972222266958873,-0.0693332031369209,0.109955742955208,0.0106901414692402
5,1.03888889197661,-0.055555559848502,-0.00972222266958873,-0.0308486949652433,0.0867428630590439,0.0143553335219622
5,1.03750000009336,-0.0638888929140799,0.0208333341834404,-0.0045814891345799,0.115758962929249,0.00152716308366507
5,1.03194452980806,-0.0763888894734557,0.0125000003581147,0.0293215326964855,0.131641462445259,-0.0113010071218014
5,1.0305556379248,-0.0750000036681839,0.0152777788063885,0.0320704244077206,0.0687223374843597,0.0192422550171614
5,1.01527782720901,-0.0638888929140799,0.033333335301303,0.015577063895762,0.00824668072164059,0.0244346093386412
5,1.01944450285877,-0.0652777787193518,0.026388891079988,0.000916297896765172,0.0152716310694814,0.0171042270958424
5,1.02777785415829,-0.0722222259796579,0.0152777788063885,-0.000916297896765172,0.00977384392172098,0.0140499006956816
5,1.02916674604155,-0.0708333340964038,0.0180555564949145,-0.0027488935738802,0.0726929605007172,0.00488692196086049
5,1.02916674604155,-0.0680555564078778,0.0194444453391775,0.0244346093386412,0.0213802829384804,0.00580321997404099
5,1.02500007039179,-0.0652777787193518,0.0194444453391775,0.0183259565383196,0.0128281703218818,0.00152716308366507
5,1.01944450285877,-0.0597222233422998,0.0125000003581147,0.0167987942695618,-0.00244346098043024,0.00824668072164059
5,1.02500007039179,-0.0638888929140799,0.0250000007162294,0.00702495034784079,-0.000610865245107561,0.0259617734700441
5,1.03194452980806,-0.0680555564078778,0.00555555575692586,-0.0161879286170006,0.0473420582711697,-0.00671951752156019
5,1.01805561097552,-0.0791666671619817,0.00972222266958873,0.0177150927484035,-0.00671951752156019,0.0021380283869803
5,1.02777785415829,-0.0750000036681839,0.00833333382532574,0.0247400421649218,-0.00244346098043024,0.00183259579353034
5,1.02916674604155,-0.0652777787193518,0.0194444453391775,0.0183259565383196,-0.00152716308366507,0.00733038317412138
5,1.02916674604155,-0.0625000010308258,0.0208333341834404,-0.00702495034784079,0.00519235478714108,-0.00305432616733015
5,1.02777785415829,-0.0666666706026059,0.0236111118719664,-0.000916297896765172,0.000916297896765172,-0.00183259579353034
5,1.03194452980806,-0.0722222259796579,0.0125000003581147,-0.00671951752156019,0.0109955742955208,-0.0229074470698834
5,1.02361117850853,-0.0625000010308258,0.0152777788063885,-0.00366519158706069,0.00488692196086049,-0.00519235478714108
5,1.02222228662528,-0.0625000010308258,0.0111111115138517,-0.00946841109544039,0.00641408516094089,0.0027488935738802
5,1.02222228662528,-0.0666666706026059,0.0138888899621255,-0.021685715764761,0.00641408516094089,0.00855211354792118
5,1.02222228662528,-0.0763888894734557,0.0250000007162294,-0.019547687843442,0.000305432622553781,-0.00549778714776039
5,1.02916674604155,-0.0777777813567098,0.0222222230277034,-0.00152716308366507,-0.0027488935738802,-0.00549778714776039
5,1.02916674604155,-0.0777777813567098,0.0194444453391775,0.0027488935738802,0.000305432622553781,-0.00152716308366507
5,1.02500007039179,-0.0750000036681839,0.0152777788063885,-0.00152716308366507,-0.0027488935738802,-0.00427605677396059
5,1.02638896227504,-0.0750000036681839,0.0125000003581147,-0.00244346098043024,0.00427605677396059,0.00183259579353034
5,1.02500007039179,-0.0666666706026059,0.0152777788063885,-0.00366519158706069,0.000305432622553781,-0.00122173049021512
5,1.02222228662528,-0.0680555564078778,0.0208333341834404,-0.011606439948082,-0.00122173049021512,0.01588249579072
5,1.02222228662528,-0.0666666706026059,0.0236111118719664,-0.00671951752156019,-0.00641408516094089,0.00855211354792118
5,1.0305556379248,-0.0722222259796579,0.0166666676506515,-0.00702495034784079,0.000610865245107561,0.00702495034784079
5,1.03194452980806,-0.0722222259796579,0.0125000003581147,-0.000610865245107561,0.00427605677396059,0.00488692196086049
5,1.02500007039179,-0.0750000036681839,0.0125000003581147,-0.00641408516094089,0.00366519158706069,0.00794124789535999
5,1.02222228662528,-0.0750000036681839,0.0166666676506515,-0.00122173049021512,-0.00366519158706069,0.0045814891345799
5,1.02916674604155,-0.0819444448505077,0.0152777788063885,0.013744467869401,-0.0128281703218818,-0.000916297896765172
5,1.02916674604155,-0.0680555564078778,0.00972222266958873,0.00427605677396059,-0.00519235478714108,0.00183259579353034
5,1.02777785415829,-0.0652777787193518,0.0125000003581147,-0.00610865233466029,0.00427605677396059,-0.00183259579353034
5,1.02500007039179,-0.0680555564078778,0.0125000003581147,-0.00549778714776039,-0.00824668072164059,0.0021380283869803
5,1.02361117850853,-0.0750000036681839,0.0152777788063885,-0.00122173049021512,-0.00488692196086049,-0.00244346098043024
5,1.02777785415829,-0.0680555564078778,0.0111111115138517,0.00152716308366507,-0.0045814891345799,-0.00244346098043024
5,1.0305556379248,-0.0680555564078778,0.0250000007162294,0.00641408516094089,-0.00519235478714108,-0.0113010071218014
5,1.02916674604155,-0.0666666706026059,0.0180555564949145,0.00549778714776039,-0.0021380283869803,-0.00305432616733015
5,1.02638896227504,-0.0666666706026059,0.0194444453391775,-0.00794124789535999,-0.00305432616733015,-0.00305432616733015
5,1.02361117850853,-0.0652777787193518,0.0138888899621255,-0.00916297826915979,-0.00519235478714108,-0.000610865245107561
5,1.02222228662528,-0.0666666706026059,0.00555555575692586,-0.013744467869401,0.00427605677396059,-0.0027488935738802
5,1.02222228662528,-0.0708333340964038,0.0194444453391775,-0.00702495034784079,0.00427605677396059,0.00855211354792118
5,1.02222228662528,-0.0763888894734557,0.0194444453391775,0.00702495034784079,-0.0045814891345799,0.0027488935738802
5,1.03194452980806,-0.0750000036681839,0.00694444498106275,0.000610865245107561,-0.00671951752156019,-0.0027488935738802
5,1.02361117850853,-0.0708333340964038,0.00694444498106275,0.01191187184304,-0.00427605677396059,0.0027488935738802
5,1.02361117850853,-0.0680555564078778,0.00833333382532574,0.00916297826915979,-0.00977384392172098,0.00946841109544039
5,1.02222228662528,-0.0722222259796579,0.00555555575692586,-0.000610865245107561,-0.00305432616733015,0.0027488935738802
5,1.02777785415829,-0.0680555564078778,0.00972222266958873,0.0027488935738802,0.00183259579353034,-0.00366519158706069
5,1.02638896227504,-0.0777777813567098,0.0222222230277034,0.00152716308366507,-0.0033597587607801,-0.00183259579353034
5,1.02500007039179,-0.0708333340964038,0.0208333341834404,-0.00152716308366507,-0.00244346098043024,0.00763581553474069
5,1.02638896227504,-0.0652777787193518,0.0166666676506515,-0.00855211354792118,0.00244346098043024,0.0021380283869803
5,1.02916674604155,-0.0722222259796579,0.026388891079988,-0.013744467869401,0.0027488935738802,0.0027488935738802
5,1.02916674604155,-0.0722222259796579,0.0208333341834404,-0.011606439948082,0.000610865245107561,-0.00244346098043024
5,1.02916674604155,-0.0750000036681839,0.0138888899621255,-0.00549778714776039,-0.0045814891345799,0.000610865245107561
5,1.02916674604155,-0.0722222259796579,0.0250000007162294,-0.0027488935738802,-0.000916297896765172,0.0021380283869803
5,1.0305556379248,-0.0708333340964038,0.0152777788063885,-0.00916297826915979,0.00366519158706069,0.00824668072164059
5,1.02777785415829,-0.0680555564078778,0.0208333341834404,-0.0186313893646002,0.0103847095742822,0.0021380283869803
5,1.02500007039179,-0.0722222259796579,0.0208333341834404,-0.017409659922123,0.000610865245107561,0.00977384392172098
5,1.02916674604155,-0.0777777813567098,0.0111111115138517,-0.0250454749912024,0.0335975885391235,0.00549778714776039
5,1.03194452980806,-0.0833333367337618,0.0125000003581147,-0.00977384392172098,0.0372627787292004,0.0143553335219622
5,1.02638896227504,-0.0791666671619817,0.0152777788063885,-0.00916297826915979,0.0302378293126821,0.0253509078174829
5,1.01944450285877,-0.0680555564078778,0.026388891079988,0.00244346098043024,0.021685715764761,0.0287106670439243
5,1.01666671909226,-0.0694444482911319,0.0180555564949145,-0.00122173049021512,0.015577063895762,0.0290160998702049
5,1.02500007039179,-0.0583333375370279,0.0222222230277034,-0.0265726372599602,0.02382374368608,0.027488935738802
5,1.0305556379248,-0.0583333375370279,0.0361111129898289,-0.0293215326964855,0.0684169083833694,0.011606439948082
5,1.02500007039179,-0.0652777787193518,0.0138888899621255,-0.0452040284872055,0.0720821022987366,0.0113010071218014
5,1.02083339474202,-0.0625000010308258,-0.00138888893923146,-0.0733038261532784,0.02382374368608,0.0351247526705265
5,1.02500007039179,-0.0583333375370279,0.00833333382532574,-0.0907134860754013,-0.00641408516094089,0.0290160998702049
5,1.02916674604155,-0.0500000014324589,0.0125000003581147,-0.114537231624126,-0.00366519158706069,0.0210748501121998
5,1.02500007039179,-0.0472222237439329,0.00277777787846293,-0.147523954510689,0.00488692196086049,0.0293215326964855
5,1.02500007039179,-0.0472222237439329,0.0152777788063885,-0.188146501779556,0.021685715764761,0.0360410511493683
5,1.03194452980806,-0.052777782159976,0.0152777788063885,-0.22235494852066,0.0299323964864016,0.0299323964864016
5,1.02500007039179,-0.055555559848502,0.00972222266958873,-0.256257981061935,0.0204639863222837,0.0326812900602817
5,1.02638896227504,-0.0583333375370279,0.00555555575692586,-0.296269655227661,0.011606439948082,0.0180205255746841
5,1.0305556379248,-0.0513888902767219,0.00138888893923146,-0.335059583187103,0.0204639863222837,0.00855211354792118
5,1.03194452980806,-0.0583333375370279,0.00277777787846293,-0.358577907085419,0.0226020142436027,0.0164933614432812
5,1.02500007039179,-0.0652777787193518,0.00972222266958873,-0.402865618467331,0.0299323964864016,0.01191187184304
5,1.02361117850853,-0.0666666706026059,0.0111111115138517,-0.431576281785965,0.0259617734700441,0.0280998013913631
5,1.02361117850853,-0.0666666706026059,0.0111111115138517,-0.456010907888412,0.021685715764761,0.0433714315295219
5,1.01944450285877,-0.0750000036681839,0.00555555575692586,-0.459065228700638,-0.0021380283869803,0.0574213340878487
5,1.01944450285877,-0.0722222259796579,0.0152777788063885,-0.474336862564087,-0.00763581553474069,0.0540615729987621
5,1.01944450285877,-0.0722222259796579,0.0152777788063885,-0.513432264328003,0.0171042270958424,0.0500909499824047
5,1.03194452980806,-0.0597222233422998,0.00277777787846293,-0.547946095466614,0.0128281703218818,0.0598647929728031
5,1.02500007039179,-0.0638888929140799,0.00972222266958873,-0.599869668483734,0.0265726372599602,0.0690277740359306
5,1.02500007039179,-0.0638888929140799,0.00972222266958873,-0.63438355922699,0.0201585534960032,0.0720821022987366
5,1.02361117850853,-0.0750000036681839,0.0194444453391775,-0.643546521663666,0.0335975885391235,0.0565050356090069
5,1.01805561097552,-0.0847222225390337,0.0125000003581147,-0.64996063709259,0.0232128798961639,0.0488692186772823
5,1.01805561097552,-0.0847222225390337,0.0125000003581147,-0.660039901733398,0.0204639863222837,0.0226020142436027
5,1.02500007039179,-0.0833333367337618,0.00416666691266287,-0.6722571849823,0.0210748501121998,0.013744467869401
5,1.02638896227504,-0.0847222225390337,-0.00277777787846293,-0.691804885864258,0.0247400421649218,0.0189368221908808
5,1.02916674604155,-0.0847222225390337,0.00277777787846293,-0.70218962430954,0.0280998013913631,0.0516181141138077
5,1.02638896227504,-0.0736111117849297,0.00277777787846293,-0.701273322105408,0.0363464802503586,0.0610865242779255
5,1.0333333244436,-0.0750000036681839,0.00277777787846293,-0.701273322105408,0.0479529201984406,0.08460483700037
5,1.02500007039179,-0.0750000036681839,-0.00277777787846293,-0.698829829692841,0.0616973899304867,0.0922406539320946
5,1.02222228662528,-0.0888888921108138,-0.00277777787846293,-0.693637490272522,0.0717766657471657,0.104152522981167
5,1.02500007039179,-0.102777780553444,0.00277777787846293,-0.652709543704987,0.0797179117798805,0.0959058403968811
5,1.0305556379248,-0.120833338567854,0.00416666691266287,-0.604756593704224,0.0842994004487991,0.0980438739061356
5,1.0305556379248,-0.12777778582816,0.00416666691266287,-0.554360210895538,0.0919352173805237,0.0992656052112579
5,1.02777785415829,-0.133333341205212,0.00555555575692586,-0.506101846694946,0.0922406539320946,0.0827722400426865
5,1.02500007039179,-0.133333341205212,0.0152777788063885,-0.469449937343597,0.0742201283574104,0.0598647929728031
5,1.01944450285877,-0.140277788465518,0.0194444453391775,-0.423940479755402,0.0659734457731247,0.0540615729987621
5,1.01944450285877,-0.13750000469901,0.0208333341834404,-0.362243086099625,0.0534507073462009,0.0629191175103188
5,1.02500007039179,-0.154166670830166,0.0152777788063885,-0.291688144207001,0.0601702257990837,0.0583376325666905
5,1.02500007039179,-0.148611115453114,0.00972222266958873,-0.241291776299477,0.0479529201984406,0.0467311926186085
5,1.02222228662528,-0.134722233088466,0.00972222266958873,-0.204639852046967,0.0448985956609249,0.0439822971820831
5,1.02083339474202,-0.130555557438704,0.0194444453391775,-0.17470745742321,0.00397062394768,0.0189368221908808
5,1.01111115155925,-0.130555557438704,0.0152777788063885,-0.141720741987228,-0.0164933614432812,-0.00916297826915979
5,1.02083339474202,-0.130555557438704,0.00277777787846293,-0.114842668175697,-0.0348193198442459,-0.021685715764761
5,1.02500007039179,-0.12777778582816,-0.00138888893923146,-0.0833831056952477,-0.0488692186772823,-0.0305432621389627
5,1.0361111082101,-0.111111119697004,-0.00416666691266287,-0.0711658000946045,-0.0253509078174829,-0.0207694191485643
5,1.03194452980806,-0.104166672436698,-0.00138888893923146,-0.0809396430850029,-0.0232128798961639,-0.0140499006956816
5,1.02638896227504,-0.101388894748172,-0.00138888893923146,-0.0949895456433296,-0.0284052342176437,-0.0033597587607801
5,1.02083339474202,-0.106944444047242,0.00694444498106275,-0.0919352173805237,-0.0268780700862408,-0.00183259579353034
5,1.02222228662528,-0.120833338567854,0.00972222266958873,-0.064446285367012,-0.0418442711234093,0.00855211354792118
5,1.02916674604155,-0.134722233088466,0.0166666676506515,-0.0320704244077206,-0.0507018156349659,-0.0109955742955208
5,1.02777785415829,-0.14722222356986,0.0194444453391775,0.0109955742955208,-0.0537561401724815,-0.0192422550171614
5,1.02222228662528,-0.154166670830166,0.0180555564949145,0.0546724386513233,-0.0500909499824047,-0.0290160998702049
5,1.02500007039179,-0.14722222356986,0.0194444453391775,0.0870482996106148,-0.0497855171561241,-0.0427605658769607
5,1.02777785415829,-0.144444451959316,0.0236111118719664,0.134695783257484,-0.0555887371301651,-0.0421497002243996
5,1.03194452980806,-0.150000007336368,0.0236111118719664,0.206472456455231,-0.0500909499824047,-0.0448985956609249
5,1.03194452980806,-0.141666668192807,0.0194444453391775,0.240375474095344,-0.029626963660121,-0.0503963828086853
5,1.02361117850853,-0.130555557438704,0.0347222241455659,0.250149309635162,-0.0390953756868839,-0.037568211555481
5,1.02500007039179,-0.108333335930496,0.0125000003581147,0.237015709280968,-0.0360410511493683,-0.0253509078174829
5,1.02638896227504,-0.0972222251763917,0.0180555564949145,0.220216915011406,-0.0397062413394451,-0.013744467869401
5,1.0333333244436,-0.0986111170596459,0.0194444453391775,0.205556154251099,-0.0308486949652433,-0.0265726372599602
5,1.0305556379248,-0.105555564319952,0.0222222230277034,0.197614908218384,-0.015577063895762,-0.0345138870179653
5,1.02361117850853,-0.111111119697004,0.0222222230277034,0.191811680793762,-0.0235183127224445,-0.0387899428606033
5,1.02222228662528,-0.113888891307548,0.0236111118719664,0.2165517359972,-0.0366519130766392,-0.0488692186772823
5,1.02638896227504,-0.118055554801345,0.0125000003581147,0.235183119773865,-0.0323758572340012,-0.0549778714776039
5,1.02916674604155,-0.125000002061652,0.0222222230277034,0.262977480888367,-0.0161879286170006,-0.0583376325666905
5,1.02500007039179,-0.118055554801345,0.00972222266958873,0.290771842002869,-0.0308486949652433,-0.0589484944939613
5,1.02777785415829,-0.118055554801345,0.00694444498106275,0.299934834241867,-0.019547687843442,-0.0427605658769607
5,1.03194452980806,-0.12777778582816,0.00972222266958873,0.315817326307297,-0.0299323964864016,-0.0400116741657257
5,1.02777785415829,-0.136111112815755,0.0152777788063885,0.346055150032044,-0.0268780700862408,-0.0342084541916847
5,1.02916674604155,-0.12916666555545,0.0138888899621255,0.36041048169136,-0.0222965814173222,-0.0351247526705265
5,1.02916674604155,-0.120833338567854,0.00555555575692586,0.36987891793251,-0.0207694191485643,-0.0360410511493683
5,1.02916674604155,-0.112499999424294,0.00416666691266287,0.380569040775299,-0.0363464802503586,-0.0284052342176437
5,1.0333333244436,-0.0902777839940679,0.00416666691266287,0.394008070230484,-0.0351247526705265,-0.0253509078174829
5,1.03194452980806,-0.0944444474878658,0.00416666691266287,0.388204872608185,-0.0167987942695618,-0.0256563406437635
5,1.02500007039179,-0.0916666697993398,0.00277777787846293,0.371406078338623,-0.0164933614432812,-0.0363464802503586
5,1.02083339474202,-0.0916666697993398,0.00138888893923146,0.352774679660797,-0.0177150927484035,-0.0290160998702049
5,1.02222228662528,-0.0916666697993398,0.00277777787846293,0.350025773048401,-0.0287106670439243,-0.0372627787292004
5,1.02916674604155,-0.0944444474878658,-0.0111111115138517,0.339030206203461,-0.0192422550171614,-0.0335975885391235
5,1.02777785415829,-0.0847222225390337,-0.0111111115138517,0.321315109729767,-0.0210748501121998,-0.0427605658769607
5,1.02777785415829,-0.0777777813567098,-0.00277777787846293,0.295353353023529,-0.0268780700862408,-0.0354301854968071
5,1.02361117850853,-0.0708333340964038,-0.00972222266958873,0.248927593231201,-0.0268780700862408,-0.0378736443817616
5,1.02222228662528,-0.0694444482911319,-0.00972222266958873,0.219300627708435,-0.0134390350431204,-0.0369573459029198
5,1.02500007039179,-0.0569444456537738,-0.00555555575692586,0.173180297017098,-0.0143553335219622,-0.0109955742955208
5,1.02916674604155,-0.0513888902767219,-0.00833333382532574,0.128281697630882,-0.000916297896765172,-0.00671951752156019
5,1.02083339474202,-0.0472222237439329,-0.00555555575692586,0.0934623852372169,-0.00122173049021512,0.00397062394768
5,1.01944450285877,-0.055555559848502,-0.00555555575692586,0.0442877300083637,0.00641408516094089,0.00305432616733015
5,1.02083339474202,-0.0722222259796579,-0.00277777787846293,0.0146607663482428,0.00305432616733015,-0.00885754637420177
5,1.02361117850853,-0.0888888921108138,0.00972222266958873,-0.00244346098043024,0.0143553335219622,-0.00733038317412138
5,1.01666671909226,-0.0916666697993398,0.0125000003581147,-0.000916297896765172,0.0021380283869803,-0.00916297826915979
5,1.02916674604155,-0.0861111144222878,0.00277777787846293,0.00183259579353034,-0.00305432616733015,-0.0180205255746841
5,1.0305556379248,-0.0763888894734557,-0.00972222266958873,-0.00733038317412138,-0.00549778714776039,-0.0146607663482428
5,1.0361111082101,-0.0763888894734557,-0.00416666691266287,-0.0244346093386412,0.00519235478714108,-0.00549778714776039
5,1.02916674604155,-0.0888888921108138,-0.00416666691266287,-0.0222965814173222,0.0167987942695618,-0.0128281703218818
5,1.02500007039179,-0.0944444474878658,-0.00416666691266287,-0.0167987942695618,0.00824668072164059,-0.0027488935738802
5,1.02500007039179,-0.0847222225390337,0.0125000003581147,-0.0189368221908808,-0.00244346098043024,-0.00702495034784079
5,1.02500007039179,-0.0763888894734557,0.00277777787846293,-0.0271835029125214,-0.0149661982432008,0.00305432616733015
5,1.02638896227504,-0.0819444448505077,0.00277777787846293,-0.0302378293126821,0.00183259579353034,0.0134390350431204
5,1.02222228662528,-0.0861111144222878,0.00416666691266287,-0.037568211555481,0.0128281703218818,0.01191187184304
5,1.02222228662528,-0.0916666697993398,0.0125000003581147,-0.0458148941397667,0.0167987942695618,0.0122173046693206
5,1.02222228662528,-0.0958333393711199,0.0166666676506515,-0.0369573459029198,0.015577063895762,0.00946841109544039
5,1.02500007039179,-0.0972222251763917,0.00555555575692586,-0.0302378293126821,0.00946841109544039,0.01191187184304
5,1.02916674604155,-0.0986111170596459,0.0111111115138517,-0.0250454749912024,0.0131336031481624,0.0106901414692402
5,1.02361117850853,-0.0930555616825939,0.00833333382532574,-0.0140499006956816,-0.000916297896765172,0.0100792767480016
5,1.02222228662528,-0.0833333367337618,0.00416666691266287,-0.01191187184304,0.0033597587607801,0.00946841109544039
5,1.02500007039179,-0.0916666697993398,0.0111111115138517,-0.0109955742955208,0.00366519158706069,0.0033597587607801
5,1.03472221632685,-0.0875000002275597,-0.00138888893923146,-0.00152716308366507,0.0122173046693206,0.0113010071218014
5,1.03194452980806,-0.0861111144222878,0.00138888893923146,-0.00641408516094089,0.00916297826915979,0.0180205255746841
5,1.02916674604155,-0.0847222225390337,0.00555555575692586,-0.000610865245107561,0.0244346093386412,0.015577063895762
5,1.02361117850853,-0.0791666671619817,0.00555555575692586,0.00122173049021512,0.0146607663482428,0.011606439948082
5,1.02361117850853,-0.0777777813567098,0.0125000003581147,-0.00519235478714108,0.0152716310694814,0.0213802829384804
5,1.01944450285877,-0.0847222225390337,0.0152777788063885,-0.00183259579353034,0.00916297826915979,0.0134390350431204
5,1.02500007039179,-0.0944444474878658,0.00555555575692586,-0.0021380283869803,0.0131336031481624,0.0201585534960032
5,1.0305556379248,-0.0958333393711199,-0.00555555575692586,0.00397062394768,0.0149661982432008,0.0253509078174829
5,1.02916674604155,-0.0875000002275597,-0.00555555575692586,0.0244346093386412,0.0244346093386412,0.0189368221908808
5,1.02361117850853,-0.0819444448505077,0.0166666676506515,0.0207694191485643,0.0180205255746841,-0.00427605677396059
5,1.02361117850853,-0.0819444448505077,0.0166666676506515,0.0143553335219622,-0.00397062394768,-0.00946841109544039
5,1.03194452980806,-0.0722222259796579,0.00555555575692586,0.0109955742955208,-0.0103847095742822,-0.00702495034784079
5,1.03194452980806,-0.0819444448505077,0.0152777788063885,-0.00641408516094089,0.00977384392172098,0.000916297896765172
5,1.03194452980806,-0.0819444448505077,0.0152777788063885,-0.019547687843442,0.00488692196086049,-0.00427605677396059
5,1.02777785415829,-0.0847222225390337,0.00416666691266287,-0.02382374368608,0.0113010071218014,0.000305432622553781
5,1.02500007039179,-0.0861111144222878,0.0194444453391775,-0.0134390350431204,0.0161879286170006,-0.0045814891345799
5,1.02500007039179,-0.0861111144222878,0.0194444453391775,-0.00855211354792118,0.0177150927484035,0.0134390350431204
5,1.02500007039179,-0.0916666697993398,0.0152777788063885,0.0125227374956012,0.0140499006956816,0.00824668072164059
5,1.02500007039179,-0.0944444474878658,0.00555555575692586,0.0134390350431204,0.0109955742955208,0.0027488935738802
5,1.02500007039179,-0.0944444474878658,0.00555555575692586,0.0219911485910416,-0.00366519158706069,0.0021380283869803
5,1.02916674604155,-0.0944444474878658,0.0125000003581147,0.0290160998702049,-0.00946841109544039,-0.00549778714776039
5,1.02777785415829,-0.0902777839940679,0.00694444498106275,0.0259617734700441,-0.00122173049021512,0.00519235478714108
5,1.02777785415829,-0.0902777839940679,0.00694444498106275,0.0247400421649218,0.0167987942695618,0.0241291765123606
5,1.02222228662528,-0.0777777813567098,0.00833333382532574,0.0177150927484035,0.0113010071218014,0.0256563406437635
5,1.02222228662528,-0.0777777813567098,0.0152777788063885,0.00977384392172098,0.00641408516094089,0.0219911485910416
5,1.02500007039179,-0.0916666697993398,0.0152777788063885,0.00427605677396059,0.00733038317412138,0.00580321997404099
5,1.03194452980806,-0.0944444474878658,0.0222222230277034,-0.00152716308366507,0.00763581553474069,0.0027488935738802
5,1.0333333244436,-0.0958333393711199,0.0125000003581147,-0.000305432622553781,0.011606439948082,0.00977384392172098
5,1.03194452980806,-0.0875000002275597,0.00972222266958873,-0.00580321997404099,0.0180205255746841,0.0167987942695618
5,1.02638896227504,-0.0888888921108138,0.0194444453391775,-0.0045814891345799,0.00519235478714108,0.0128281703218818
5,1.02361117850853,-0.0888888921108138,0.0152777788063885,-0.0186313893646002,-0.00549778714776039,0.00702495034784079
5,1.01944450285877,-0.0958333393711199,0.0111111115138517,-0.0140499006956816,-0.000610865245107561,-0.0033597587607801
5,1.02361117850853,-0.102777780553444,0.00972222266958873,-0.00549778714776039,0.00152716308366507,-0.00549778714776039
5,1.02500007039179,-0.102777780553444,0.00277777787846293,0.00610865233466029,0.00610865233466029,0.000610865245107561
5,1.02500007039179,-0.0972222251763917,0.00555555575692586,0.0131336031481624,0.0021380283869803,0.00824668072164059
5,1.02916674604155,-0.0916666697993398,0.0125000003581147,0.011606439948082,0.00488692196086049,0.0140499006956816
5,1.02083339474202,-0.0861111144222878,0.0125000003581147,0.0109955742955208,0.01191187184304,0.0122173046693206
5,1.02916674604155,-0.0902777839940679,0.0152777788063885,0.00824668072164059,0.013744467869401,0.0149661982432008
5,1.02916674604155,-0.0916666697993398,0.0208333341834404,0.015577063895762,0.00946841109544039,0.0125227374956012
5,1.02638896227504,-0.0930555616825939,0.0125000003581147,0.0180205255746841,0.00305432616733015,0.01588249579072
5,1.0305556379248,-0.100000002864918,0.00972222266958873,0.03176499158144,0.00855211354792118,0.00885754637420177
5,1.02777785415829,-0.104166672436698,0.00277777787846293,0.0366519130766392,0.000916297896765172,0.00855211354792118
5,1.02222228662528,-0.0916666697993398,0.00972222266958873,0.0354301854968071,-0.00671951752156019,0.00152716308366507
5,1.02500007039179,-0.0916666697993398,0.0138888899621255,0.019547687843442,-0.011606439948082,-0.00794124789535999
5,1.02916674604155,-0.0986111170596459,0.00972222266958873,0.0143553335219622,-0.00580321997404099,-0.0177150927484035
5,1.02777785415829,-0.0986111170596459,0.00694444498106275,0.00824668072164059,0.000305432622553781,-0.0106901414692402
5,1.02500007039179,-0.0805555590452358,-0.00277777787846293,-0.00702495034784079,0.00152716308366507,-0.00397062394768
5,1.02500007039179,-0.0777777813567098,0.00833333382532574,-0.0229074470698834,0.000916297896765172,0.0027488935738802
5,1.02222228662528,-0.0819444448505077,0.0138888899621255,-0.0323758572340012,0.00366519158706069,0.00397062394768
5,1.02638896227504,-0.0902777839940679,0.0125000003581147,-0.0363464802503586,0.00824668072164059,0.0164933614432812
5,1.02777785415829,-0.0972222251763917,0.0166666676506515,-0.0204639863222837,-0.00885754637420177,0.0305432621389627
5,1.02916674604155,-0.106944444047242,0.0194444453391775,0.00427605677396059,0.000305432622553781,0.0415388382971287
5,1.02777785415829,-0.112499999424294,0.00833333382532574,0.0339030213654041,-0.0045814891345799,0.02382374368608
5,1.02361117850853,-0.106944444047242,0.0111111115138517,0.0436768643558025,0.000305432622553781,0.0219911485910416
5,1.02361117850853,-0.0972222251763917,0.0222222230277034,0.0464257597923279,0.00122173049021512,0.0146607663482428
5,1.02638896227504,-0.0888888921108138,0.0138888899621255,0.0461203269660473,-0.00610865233466029,0.0140499006956816
5,1.03194452980806,-0.0666666706026059,0.00555555575692586,0.0400116741657257,0.00763581553474069,0.0287106670439243
5,1.03194452980806,-0.0652777787193518,0.00416666691266287,0.0268780700862408,0.00641408516094089,0.0372627787292004
5,1.02638896227504,-0.0750000036681839,0.00277777787846293,0.00794124789535999,0.00702495034784079,0.0293215326964855
5,1.02222228662528,-0.0861111144222878,0.0125000003581147,0.00610865233466029,0.00152716308366507,0.0171042270958424
5,1.01944450285877,-0.0930555616825939,0.0180555564949145,0.0033597587607801,0.000610865245107561,0.00855211354792118
5,1.02500007039179,-0.101388894748172,0.026388891079988,0.00885754637420177,-0.0125227374956012,0.00733038317412138
5,1.02500007039179,-0.0916666697993398,0.0125000003581147,-0.00916297826915979,-0.0140499006956816,0.0134390350431204
5,1.02777785415829,-0.0916666697993398,0.0138888899621255,-0.0128281703218818,0.00183259579353034,0.0256563406437635
5,1.02361117850853,-0.0986111170596459,0.0125000003581147,-0.0204639863222837,0.0152716310694814,0.021685715764761
5,1.02083339474202,-0.104166672436698,0.0111111115138517,-0.00733038317412138,0.0125227374956012,0.0164933614432812
5,1.02361117850853,-0.104166672436698,0.0125000003581147,-0.00244346098043024,0.00519235478714108,0.0235183127224445
5,1.02638896227504,-0.102777780553444,0.0138888899621255,0.0131336031481624,0.00733038317412138,0.0308486949652433
5,1.02777785415829,-0.112499999424294,0.00833333382532574,0.0360410511493683,-0.00305432616733015,0.0271835029125214
5,1.02500007039179,-0.111111119697004,0.00972222266958873,0.0406225398182869,-0.00580321997404099,0.0109955742955208
5,1.02361117850853,-0.102777780553444,0.00555555575692586,0.0427605658769607,-0.00702495034784079,0.0143553335219622
5,1.02500007039179,-0.100000002864918,0.00138888893923146,0.0335975885391235,-0.00183259579353034,0.0045814891345799
5,1.02638896227504,-0.100000002864918,0.00972222266958873,0.0253509078174829,-0.000610865245107561,-0.0027488935738802
5,1.02361117850853,-0.0944444474878658,0.00972222266958873,0.0235183127224445,0.00244346098043024,-0.00427605677396059
5,1.02222228662528,-0.0875000002275597,0.00555555575692586,0.00855211354792118,-0.0027488935738802,0.0229074470698834
5,1.02222228662528,-0.0902777839940679,0.00416666691266287,-0.000916297896765172,-0.00855211354792118,0.0241291765123606
5,1.02916674604155,-0.101388894748172,0.00972222266958873,0.00152716308366507,-0.00244346098043024,0.0183259565383196
5,1.0305556379248,-0.108333335930496,0.0125000003581147,-0.00152716308366507,-0.000916297896765172,0.0131336031481624
5,1.03194452980806,-0.102777780553444,0.0111111115138517,-0.00122173049021512,0.0122173046693206,0.013744467869401
5,1.02500007039179,-0.111111119697004,0.0152777788063885,-0.00397062394768,0.0134390350431204,0.0125227374956012
5,1.02500007039179,-0.113888891307548,0.0138888899621255,0.00702495034784079,0.00580321997404099,0.0140499006956816
5,1.02222228662528,-0.104166672436698,0.0111111115138517,0.0113010071218014,-0.00519235478714108,0.0128281703218818
5,1.02777785415829,-0.0986111170596459,0.00694444498106275,0.0149661982432008,-0.00671951752156019,0.0189368221908808
5,1.03194452980806,-0.102777780553444,0.00694444498106275,0.00916297826915979,-0.00244346098043024,0.015577063895762
5,1.02916674604155,-0.101388894748172,0.00694444498106275,0.00671951752156019,0.00366519158706069,0.00549778714776039
5,1.02222228662528,-0.108333335930496,0.0111111115138517,0.0109955742955208,-0.000610865245107561,0.00549778714776039
5,1.02083339474202,-0.108333335930496,0.0111111115138517,0.0143553335219622,-0.00733038317412138,0.00122173049021512
5,1.02361117850853,-0.111111119697004,0.0194444453391775,0.0253509078174829,-0.00885754637420177,-0.000610865245107561
5,1.0305556379248,-0.108333335930496,0.0180555564949145,0.0250454749912024,-0.00885754637420177,-0.00397062394768
5,1.02500007039179,-0.104166672436698,0.00555555575692586,0.0164933614432812,-0.00519235478714108,-0.00702495034784079
5,1.02222228662528,-0.101388894748172,0.00972222266958873,0.00549778714776039,-0.0027488935738802,-0.0045814891345799
5,1.02083339474202,-0.104166672436698,0.00972222266958873,0.00824668072164059,0.0027488935738802,-0.00183259579353034
5,1.02500007039179,-0.108333335930496,0.00555555575692586,0.0146607663482428,0.00580321997404099,-0.00733038317412138
5,1.02222228662528,-0.105555564319952,0.0111111115138517,0.0143553335219622,-0.00122173049021512,-0.00671951752156019
5,1.02500007039179,-0.108333335930496,0.0194444453391775,0.0177150927484035,-0.00122173049021512,-0.00580321997404099
5,1.02500007039179,-0.108333335930496,0.0111111115138517,0.0219911485910416,-0.0128281703218818,-0.0122173046693206
5,1.02222228662528,-0.111111119697004,0.0152777788063885,0.0271835029125214,-0.0149661982432008,-0.0143553335219622
5,1.02777785415829,-0.115277783190802,0.0125000003581147,0.0219911485910416,-0.0109955742955208,-0.0299323964864016
5,1.02916674604155,-0.102777780553444,0.0166666676506515,0.0186313893646002,-0.00244346098043024,-0.0106901414692402
5,1.02916674604155,-0.0944444474878658,0.00277777787846293,0.0189368221908808,-0.000305432622553781,-0.00977384392172098
5,1.02916674604155,-0.0944444474878658,0.00555555575692586,0.00702495034784079,0.00519235478714108,0.0106901414692402
5,1.02638896227504,-0.0986111170596459,0.00972222266958873,-0.000916297896765172,0.00641408516094089,0.0235183127224445
5,1.02500007039179,-0.0958333393711199,0.0125000003581147,-0.00427605677396059,0.0192422550171614,0.0314595587551594
5,1.02500007039179,-0.0986111170596459,0.0125000003581147,-0.0113010071218014,0.0192422550171614,0.0357356183230877
5,1.02361117850853,-0.104166672436698,0.00555555575692586,-0.0045814891345799,0.0164933614432812,0.0372627787292004
5,1.02638896227504,-0.101388894748172,0.00416666691266287,-0.0146607663482428,0.013744467869401,0.027488935738802
5,1.02222228662528,-0.100000002864918,0.0152777788063885,-0.00488692196086049,0.0109955742955208,0.0271835029125214
5,1.02500007039179,-0.101388894748172,0.0152777788063885,0.00733038317412138,0.0113010071218014,0.0106901414692402
5,1.02500007039179,-0.102777780553444,0.00555555575692586,0.0113010071218014,0.0103847095742822,0.000610865245107561
5,1.02500007039179,-0.0986111170596459,0.0180555564949145,0.0259617734700441,-0.000610865245107561,-0.00519235478714108
5,1.02500007039179,-0.0958333393711199,0.0152777788063885,0.0192422550171614,-0.00855211354792118,-0.0125227374956012
5,1.02361117850853,-0.0958333393711199,0.00833333382532574,0.013744467869401,-0.0103847095742822,-0.011606439948082
5,1.02500007039179,-0.0944444474878658,0.00555555575692586,0.0122173046693206,-0.00366519158706069,-0.0146607663482428
5,1.02777785415829,-0.101388894748172,0.00277777787846293,0.00671951752156019,-0.0027488935738802,-0.0146607663482428
5,1.02916674604155,-0.0986111170596459,0.00416666691266287,-0.00152716308366507,0.000305432622553781,-0.0131336031481624
5,1.02916674604155,-0.0986111170596459,0.00416666691266287,-0.00580321997404099,-0.00366519158706069,-0.0226020142436027
5,1.02916674604155,-0.104166672436698,0.0125000003581147,-0.0033597587607801,-0.00366519158706069,-0.0103847095742822
5,1.02500007039179,-0.101388894748172,0.0125000003581147,0.0045814891345799,-0.00427605677396059,-0.00733038317412138
5,1.02500007039179,-0.101388894748172,0.0125000003581147,0.01191187184304,-0.00733038317412138,0.00977384392172098
5,1.02916674604155,-0.104166672436698,0.00972222266958873,0.00366519158706069,-0.000610865245107561,0.00610865233466029
5,1.02916674604155,-0.104166672436698,0.00555555575692586,0.01588249579072,0.000305432622553781,0.015577063895762
5,1.02916674604155,-0.104166672436698,0.00555555575692586,0.0192422550171614,0.00610865233466029,0.0259617734700441
5,1.02500007039179,-0.105555564319952,0.00972222266958873,0.0293215326964855,-0.0027488935738802,0.00488692196086049
5,1.02500007039179,-0.102777780553444,0.0208333341834404,0.0329867228865623,-0.00397062394768,0.00397062394768
5,1.02500007039179,-0.102777780553444,0.0208333341834404,0.03176499158144,-0.00946841109544039,0.00244346098043024
5,1.02500007039179,-0.0986111170596459,0.0180555564949145,0.0189368221908808,-0.00122173049021512,-0.00671951752156019
5,1.02222228662528,-0.0875000002275597,0.00138888893923146,0.0171042270958424,0.00885754637420177,-0.00122173049021512
5,1.02222228662528,-0.0875000002275597,0.00138888893923146,0.0109955742955208,0.00183259579353034,0.00916297826915979
5,1.02500007039179,-0.0958333393711199,0.00972222266958873,0.00671951752156019,-0.00794124789535999,0.0109955742955208
5,1.02222228662528,-0.104166672436698,0.00277777787846293,-0.00488692196086049,-0.0027488935738802,0.000916297896765172
5,1.02777785415829,-0.101388894748172,0.00277777787846293,-0.00702495034784079,-0.00549778714776039,-0.00427605677396059
5,1.02222228662528,-0.102777780553444,0.00277777787846293,-0.011606439948082,0.000610865245107561,-0.0033597587607801
5,1.02638896227504,-0.101388894748172,0.0125000003581147,-0.00671951752156019,-0.00641408516094089,-0.000916297896765172
5,1.02500007039179,-0.106944444047242,0.0111111115138517,0.00397062394768,-0.0021380283869803,0.0033597587607801
5,1.02777785415829,-0.101388894748172,0.00138888893923146,-0.0113010071218014,-0.00763581553474069,0.00733038317412138
5,1.02916674604155,-0.101388894748172,0.00555555575692586,-0.0219911485910416,0.00671951752156019,0.0140499006956816
5,1.02777785415829,-0.102777780553444,0.00694444498106275,-0.015577063895762,0.0103847095742822,0.00488692196086049
5,1.02222228662528,-0.105555564319952,0.0152777788063885,-0.00855211354792118,0.0021380283869803,0.0131336031481624
5,1.01805561097552,-0.111111119697004,0.0111111115138517,0.0027488935738802,0.000305432622553781,0.0198531206697226
5,1.02500007039179,-0.108333335930496,0.0138888899621255,0.00855211354792118,-0.000305432622553781,0.00733038317412138
5,1.02500007039179,-0.108333335930496,0.0194444453391775,0.00946841109544039,0.00366519158706069,0.01191187184304
5,1.02500007039179,-0.108333335930496,0.026388891079988,0.00641408516094089,-0.00702495034784079,0.00916297826915979
5,1.02500007039179,-0.104166672436698,0.0138888899621255,0.0149661982432008,0.00916297826915979,0.0033597587607801
5,1.02500007039179,-0.112499999424294,0.00694444498106275,0.0183259565383196,-0.0021380283869803,0.000610865245107561
5,1.02222228662528,-0.104166672436698,0.0111111115138517,0.0152716310694814,-0.0113010071218014,0.00427605677396059
5,1.02638896227504,-0.0958333393711199,0.00694444498106275,0.0219911485910416,-0.0045814891345799,0.0113010071218014
5,1.02500007039179,-0.100000002864918,0.0152777788063885,0.0140499006956816,-0.00946841109544039,0.0164933614432812
5,1.02222228662528,-0.0986111170596459,0.0250000007162294,0.00549778714776039,-0.00244346098043024,0.00641408516094089
5,1.02777785415829,-0.104166672436698,0.0138888899621255,0.0100792767480016,-0.000916297896765172,-0.00519235478714108
5,1.02777785415829,-0.108333335930496,0.0166666676506515,0.0125227374956012,0.00519235478714108,-0.000305432622553781
5,1.02500007039179,-0.105555564319952,0.0152777788063885,0.0186313893646002,-0.0033597587607801,-0.0103847095742822
5,1.02500007039179,-0.108333335930496,0.0111111115138517,0.0271835029125214,-0.00152716308366507,-0.00305432616733015
5,1.02361117850853,-0.111111119697004,0.00277777787846293,0.0342084541916847,0.00549778714776039,-0.0192422550171614
5,1.02500007039179,-0.108333335930496,0.00277777787846293,0.0366519130766392,-0.00519235478714108,-0.0164933614432812
5,1.02083339474202,-0.104166672436698,0.00555555575692586,0.0366519130766392,-0.0113010071218014,-0.0171042270958424
5,1.02777785415829,-0.104166672436698,0.0152777788063885,0.0293215326964855,-0.00916297826915979,-0.0045814891345799
5,1.02638896227504,-0.101388894748172,0.00555555575692586,0.0280998013913631,-0.000610865245107561,-0.00702495034784079
5,1.02916674604155,-0.0986111170596459,0.00555555575692586,0.0106901414692402,0.00519235478714108,-0.0134390350431204
5,1.02222228662528,-0.100000002864918,0.00972222266958873,-0.00427605677396059,-0.000610865245107561,-0.00549778714776039
5,1.02361117850853,-0.0944444474878658,0.00694444498106275,-0.0198531206697226,-0.00702495034784079,-0.00702495034784079
5,1.02361117850853,-0.0875000002275597,0.00416666691266287,-0.0183259565383196,0.00305432616733015,-0.00183259579353034
5,1.02638896227504,-0.0902777839940679,0.00833333382532574,-0.0201585534960032,0.0027488935738802,0.00488692196086049
5,1.0305556379248,-0.0944444474878658,0.00555555575692586,-0.0204639863222837,0.00733038317412138,0.00916297826915979
5,1.03194452980806,-0.100000002864918,0.00277777787846293,-0.0247400421649218,0.00397062394768,0.00305432616733015
5,1.02500007039179,-0.104166672436698,0.00972222266958873,-0.015577063895762,0.0027488935738802,0.00244346098043024
5,1.02500007039179,-0.113888891307548,0.0111111115138517,-0.00488692196086049,0.0033597587607801,0.000916297896765172
5,1.02638896227504,-0.10972222781375,0.00833333382532574,0.00244346098043024,0.000610865245107561,0.000916297896765172
5,1.02916674604155,-0.108333335930496,0.00694444498106275,0.0128281703218818,-0.00244346098043024,-0.00366519158706069
5,1.02222228662528,-0.0986111170596459,0.00138888893923146,0.0106901414692402,-0.0021380283869803,0.00305432616733015
5,1.02222228662528,-0.105555564319952,0.00277777787846293,0.017409659922123,-0.00855211354792118,0.00641408516094089
5,1.02500007039179,-0.104166672436698,0.0152777788063885,0.0235183127224445,0.000305432622553781,0.0027488935738802
5,1.02500007039179,-0.105555564319952,0.00694444498106275,0.0284052342176437,0.0045814891345799,-0.00702495034784079
5,1.02500007039179,-0.108333335930496,0.0152777788063885,0.0293215326964855,-0.00152716308366507,-0.0021380283869803
5,1.02500007039179,-0.105555564319952,0.00972222266958873,0.0177150927484035,0.00183259579353034,-0.0131336031481624
5,1.02916674604155,-0.0986111170596459,0.0111111115138517,0.0167987942695618,-0.00610865233466029,-0.0027488935738802
5,1.02916674604155,-0.0986111170596459,0.00555555575692586,0.00763581553474069,-0.00671951752156019,-0.0021380283869803
5,1.0305556379248,-0.0986111170596459,0.00277777787846293,0.0033597587607801,-0.00580321997404099,-0.00122173049021512
5,1.02916674604155,-0.105555564319952,0.0125000003581147,-0.00244346098043024,0.0021380283869803,0.0033597587607801
5,1.02777785415829,-0.104166672436698,0.00972222266958873,-0.00152716308366507,0.00763581553474069,-0.0122173046693206
5,1.02638896227504,-0.104166672436698,0.00972222266958873,-0.0021380283869803,0.00580321997404099,-0.00488692196086049
5,1.02500007039179,-0.108333335930496,0.00972222266958873,0.0106901414692402,0.0027488935738802,-0.00824668072164059
5,1.02500007039179,-0.108333335930496,0.0125000003581147,0.00824668072164059,-0.00488692196086049,-0.00244346098043024
5,1.0305556379248,-0.0986111170596459,0.00555555575692586,0.00580321997404099,-0.00305432616733015,-0.000916297896765172
5,1.02777785415829,-0.0986111170596459,0.00555555575692586,0.00183259579353034,-0.0021380283869803,0.0027488935738802
5,1.02222228662528,-0.0972222251763917,0.0138888899621255,-0.00580321997404099,0.0103847095742822,0.00763581553474069
5,1.02222228662528,-0.0986111170596459,0.00972222266958873,-0.00641408516094089,0.0103847095742822,0.00794124789535999
5,1.02500007039179,-0.104166672436698,0.0138888899621255,-0.0021380283869803,0.01191187184304,0.000610865245107561
5,1.02222228662528,-0.111111119697004,0.0152777788063885,-0.00427605677396059,0.00671951752156019,0.000916297896765172
5,1.02361117850853,-0.10972222781375,0.0125000003581147,0.00488692196086049,-0.00671951752156019,-0.00824668072164059
5,1.02222228662528,-0.108333335930496,0.00972222266958873,0.0134390350431204,-0.00519235478714108,-0.0045814891345799
5,1.02222228662528,-0.105555564319952,0.00972222266958873,0.0164933614432812,-0.0021380283869803,-0.00702495034784079
5,1.02222228662528,-0.108333335930496,0.00555555575692586,0.0241291765123606,0.00152716308366507,-0.00488692196086049
5,1.02361117850853,-0.102777780553444,0.00972222266958873,0.0320704244077206,-0.00305432616733015,-0.00610865233466029
5,1.02638896227504,-0.0958333393711199,0.00555555575692586,0.0308486949652433,-0.000916297896765172,-0.00794124789535999
5,1.02638896227504,-0.0972222251763917,0.00972222266958873,0.0302378293126821,-0.00702495034784079,0.00305432616733015
5,1.02777785415829,-0.0972222251763917,0.00972222266958873,0.0348193198442459,-0.00702495034784079,-0.0027488935738802
5,1.02638896227504,-0.0944444474878658,0.00555555575692586,0.0335975885391235,-0.0021380283869803,0.00397062394768
5,1.02777785415829,-0.0930555616825939,0.00555555575692586,0.0271835029125214,0.00183259579353034,-0.00152716308366507
5,1.02777785415829,-0.0902777839940679,0.0125000003581147,0.0189368221908808,0.00610865233466029,-0.00305432616733015
5,1.02638896227504,-0.0930555616825939,0.00972222266958873,0.0027488935738802,0.00916297826915979,0.00183259579353034
5,1.02500007039179,-0.0986111170596459,0.00833333382532574,-0.00427605677396059,0.00824668072164059,0.00488692196086049
5,1.01805561097552,-0.0944444474878658,0.00972222266958873,0.00183259579353034,0.00519235478714108,-0.00183259579353034
5,1.02083339474202,-0.0986111170596459,0.00972222266958873,-0.00152716308366507,0.000305432622553781,-0.00366519158706069
5,1.02222228662528,-0.101388894748172,0.00972222266958873,-0.000610865245107561,0.0033597587607801,-0.00305432616733015
5,1.02777785415829,-0.0986111170596459,0.00972222266958873,-0.00183259579353034,0.00152716308366507,-0.00549778714776039
5,1.02500007039179,-0.101388894748172,0.0111111115138517,0.00366519158706069,0.000305432622553781,0.00397062394768
5,1.02361117850853,-0.105555564319952,0.00694444498106275,0.00183259579353034,0.00183259579353034,-0.000305432622553781
5,1.02638896227504,-0.0986111170596459,0.00416666691266287,0.00427605677396059,0.000305432622553781,0.00122173049021512
5,1.02638896227504,-0.0986111170596459,0.00416666691266287,-0.0021380283869803,0.000916297896765172,-0.00610865233466029
5,1.02638896227504,-0.0986111170596459,0.00555555575692586,-0.01191187184304,-0.00183259579353034,0.0033597587607801
5,1.02777785415829,-0.0944444474878658,-0.00555555575692586,-0.0100792767480016,0.00794124789535999,0.0113010071218014
5,1.02777785415829,-0.0944444474878658,-0.00555555575692586,-0.00916297826915979,0.00641408516094089,0.0161879286170006
5,1.02777785415829,-0.104166672436698,0.00555555575692586,-0.000305432622553781,-0.00366519158706069,0.00671951752156019
5,1.02361117850853,-0.104166672436698,0.00694444498106275,0.00580321997404099,-0.00488692196086049,-0.00366519158706069
5,1.02500007039179,-0.105555564319952,0.00694444498106275,0.0149661982432008,-0.000916297896765172,-0.00641408516094089
5,1.02500007039179,-0.106944444047242,0.00555555575692586,0.00610865233466029,0.00183259579353034,-0.0171042270958424
5,1.02500007039179,-0.104166672436698,0.00972222266958873,0.0131336031481624,-0.000916297896765172,-0.00122173049021512
5,1.02222228662528,-0.0972222251763917,0.0152777788063885,0.013744467869401,0.0033597587607801,-0.0027488935738802
5,1.02222228662528,-0.0930555616825939,0.0166666676506515,0.00488692196086049,-0.00702495034784079,-0.00488692196086049
5,1.02222228662528,-0.0916666697993398,0.0125000003581147,0.0021380283869803,0.00122173049021512,0.00580321997404099
5,1.02916674604155,-0.0972222251763917,0.00972222266958873,-0.00183259579353034,0.00397062394768,0.00244346098043024
5,1.02916674604155,-0.0972222251763917,0.00833333382532574,0.0106901414692402,0.0125227374956012,-0.00641408516094089
5,1.02222228662528,-0.101388894748172,0.0180555564949145,-0.000916297896765172,0.011606439948082,-0.0106901414692402
5,1.01944450285877,-0.0986111170596459,0.0152777788063885,0.00488692196086049,-0.00183259579353034,0.0033597587607801
5,1.01805561097552,-0.0972222251763917,0.0180555564949145,0.019547687843442,-0.00244346098043024,0.00244346098043024
5,1.01944450285877,-0.101388894748172,0.00833333382532574,0.0201585534960032,-0.0109955742955208,0.00244346098043024
5,1.02500007039179,-0.101388894748172,0.0152777788063885,0.0134390350431204,-0.00397062394768,-0.0045814891345799
5,1.02777785415829,-0.0944444474878658,0.00833333382532574,0.00580321997404099,0.00488692196086049,0.00488692196086049
5,1.02777785415829,-0.0958333393711199,0.0152777788063885,-0.00397062394768,0.00641408516094089,0.00366519158706069
5,1.02500007039179,-0.0986111170596459,0.00277777787846293,0.00305432616733015,-0.00305432616733015,-0.000610865245107561
5,1.02361117850853,-0.0972222251763917,0.00833333382532574,0.00610865233466029,-0.000305432622553781,0.00122173049021512
5,1.02500007039179,-0.0986111170596459,0.0208333341834404,0.0149661982432008,-0.00244346098043024,-0.000916297896765172
5,1.02638896227504,-0.0944444474878658,0.0152777788063885,0.0204639863222837,-0.00244346098043024,0.00244346098043024
5,1.02777785415829,-0.101388894748172,0.00972222266958873,0.0149661982432008,0.00183259579353034,0.00519235478714108
5,1.02500007039179,-0.102777780553444,0.0152777788063885,0.0189368221908808,-0.00549778714776039,-0.0021380283869803
5,1.02361117850853,-0.104166672436698,0.0138888899621255,0.0259617734700441,0.00152716308366507,-0.00305432616733015
5,1.02500007039179,-0.101388894748172,0.0125000003581147,0.015577063895762,-0.0033597587607801,-0.0140499006956816
5,1.02916674604155,-0.0986111170596459,0.0111111115138517,0.0122173046693206,-0.0027488935738802,-0.00916297826915979
5,1.02916674604155,-0.0944444474878658,0.0125000003581147,0.00946841109544039,-0.00580321997404099,0.00549778714776039
5,1.03194452980806,-0.0875000002275597,0.0180555564949145,0.00824668072164059,-0.000305432622553781,0.00397062394768
5,1.02500007039179,-0.0944444474878658,0.0138888899621255,0.0109955742955208,0.00152716308366507,0.00366519158706069
5,1.02500007039179,-0.0944444474878658,0.0138888899621255,0.0027488935738802,0.000305432622553781,0.0103847095742822
5,1.02500007039179,-0.0930555616825939,0.00555555575692586,0.00610865233466029,-0.000916297896765172,0.00733038317412138
5,1.02500007039179,-0.0847222225390337,0.0125000003581147,0.00122173049021512,0.00122173049021512,0.011606439948082
5,1.02777785415829,-0.0972222251763917,0.00694444498106275,-0.0045814891345799,0.0045814891345799,0.015577063895762
5,1.02916674604155,-0.100000002864918,0.00833333382532574,-0.0045814891345799,0.00488692196086049,0.00671951752156019
5,1.02638896227504,-0.106944444047242,0.0194444453391775,0.00488692196086049,0.00641408516094089,-0.00244346098043024
5,1.02916674604155,-0.0958333393711199,0.0194444453391775,0.000305432622553781,0.000610865245107561,0.00549778714776039
5,1.02916674604155,-0.0916666697993398,0.00555555575692586,-0.0021380283869803,0.00671951752156019,0.00610865233466029
5,1.02500007039179,-0.100000002864918,0.00972222266958873,0.00122173049021512,0.00794124789535999,0.0125227374956012
5,1.02777785415829,-0.0972222251763917,0.0125000003581147,0.00916297826915979,-0.0045814891345799,0.0161879286170006
5,1.02500007039179,-0.0972222251763917,0.00694444498106275,0.00763581553474069,-0.000305432622553781,0.00671951752156019
5,1.02500007039179,-0.0944444474878658,0.00833333382532574,0.00977384392172098,-0.00733038317412138,0.00916297826915979
5,1.02638896227504,-0.0972222251763917,0.00555555575692586,-0.00580321997404099,-0.0033597587607801,0.00671951752156019
5,1.02361117850853,-0.101388894748172,0.0138888899621255,0.00519235478714108,-0.0027488935738802,-0.00183259579353034
5,1.02638896227504,-0.101388894748172,0.00972222266958873,-0.000305432622553781,0.0021380283869803,0.00305432616733015
5,1.02777785415829,-0.0986111170596459,0.00138888893923146,0.0033597587607801,0.00580321997404099,0.00610865233466029
5,1.02500007039179,-0.101388894748172,0.00972222266958873,0.0125227374956012,-0.000610865245107561,0.00641408516094089
5,1.02500007039179,-0.105555564319952,0.0152777788063885,0.0143553335219622,0.000610865245107561,0.00580321997404099
5,1.02777785415829,-0.104166672436698,0.0125000003581147,0.0167987942695618,0.00946841109544039,0.000916297896765172
5,1.02916674604155,-0.101388894748172,0.0111111115138517,0.0033597587607801,0.00671951752156019,-0.000916297896765172
5,1.02500007039179,-0.0972222251763917,0.00694444498106275,0.00671951752156019,-0.00488692196086049,0.0021380283869803
5,1.02500007039179,-0.0944444474878658,0.0125000003581147,0.0033597587607801,-0.00366519158706069,0.000610865245107561
5,1.02500007039179,-0.101388894748172,0.00416666691266287,0.00977384392172098,0.00305432616733015,0.0045814891345799
5,1.02777785415829,-0.104166672436698,0.0138888899621255,0.0140499006956816,0.00183259579353034,0.00763581553474069
5,1.02916674604155,-0.104166672436698,0.00972222266958873,0.011606439948082,0.000305432622553781,0.00733038317412138
5,1.0305556379248,-0.108333335930496,0.00555555575692586,0.011606439948082,0.00427605677396059,0.00733038317412138
5,1.02361117850853,-0.108333335930496,0.0138888899621255,0.0134390350431204,0.00305432616733015,0.00794124789535999
5,1.02500007039179,-0.0972222251763917,0.0138888899621255,0.013744467869401,0.00305432616733015,0.00855211354792118
5,1.02361117850853,-0.0972222251763917,0.0125000003581147,0.0143553335219622,0.00183259579353034,-0.00488692196086049
5,1.02638896227504,-0.102777780553444,0.00972222266958873,0.01191187184304,-0.00183259579353034,0.0021380283869803
5,1.02916674604155,-0.0986111170596459,0.00277777787846293,-0.00183259579353034,-0.000305432622553781,0.00946841109544039
5,1.02916674604155,-0.0986111170596459,0.00277777787846293,0.00183259579353034,0.00824668072164059,0.00977384392172098
5,1.02500007039179,-0.102777780553444,0.0194444453391775,0.00885754637420177,0.00488692196086049,0.0027488935738802
5,1.02916674604155,-0.101388894748172,0.0111111115138517,0.00580321997404099,-0.00366519158706069,-0.000305432622553781
5,1.02916674604155,-0.101388894748172,0.0111111115138517,-0.00183259579353034,-0.00244346098043024,-0.00183259579353034
5,1.02222228662528,-0.0986111170596459,0.00972222266958873,-0.00427605677396059,0.00610865233466029,-0.000610865245107561
5,1.02222228662528,-0.0986111170596459,0.00972222266958873,-0.00488692196086049,0.0045814891345799,-0.00244346098043024
5,1.02500007039179,-0.104166672436698,0.00277777787846293,0.000916297896765172,-0.00305432616733015,0.00488692196086049
5,1.02916674604155,-0.111111119697004,0.0222222230277034,0.00641408516094089,-0.0027488935738802,-0.000610865245107561
5,1.02777785415829,-0.111111119697004,0.0152777788063885,0.00641408516094089,-0.00122173049021512,0.000305432622553781
5,1.02638896227504,-0.108333335930496,0.0111111115138517,0.00794124789535999,0.0021380283869803,-0.00183259579353034
5,1.02222228662528,-0.104166672436698,0.0152777788063885,0.011606439948082,-0.0033597587607801,0.00977384392172098
5,1.01805561097552,-0.104166672436698,0.0222222230277034,0.0113010071218014,0.00580321997404099,0.00397062394768
5,1.02361117850853,-0.106944444047242,0.0236111118719664,0.0293215326964855,-0.00183259579353034,0.017409659922123
5,1.02361117850853,-0.101388894748172,0.0194444453391775,0.0293215326964855,-0.0045814891345799,0.01588249579072
5,1.02222228662528,-0.0958333393711199,0.0152777788063885,0.0226020142436027,-0.00366519158706069,0.00519235478714108
5,1.02638896227504,-0.0930555616825939,0.00972222266958873,0.00855211354792118,0.0103847095742822,0.0134390350431204
5,1.02500007039179,-0.0875000002275597,0.0152777788063885,-0.000305432622553781,0.00733038317412138,0.0164933614432812
5,1.02361117850853,-0.0944444474878658,0.0125000003581147,0.000305432622553781,0.00397062394768,0.01191187184304
5,1.01944450285877,-0.100000002864918,0.00277777787846293,0.00671951752156019,0.00519235478714108,0.00580321997404099
5,1.02500007039179,-0.100000002864918,0.0125000003581147,0.011606439948082,-0.0033597587607801,0.00580321997404099
5,1.02222228662528,-0.0930555616825939,0.0125000003581147,0.00549778714776039,0.00488692196086049,0.000916297896765172
5,1.02361117850853,-0.0944444474878658,0.0152777788063885,-0.000916297896765172,0.00427605677396059,0.00610865233466029
5,1.02500007039179,-0.0944444474878658,0.00555555575692586,0.00488692196086049,0.000610865245107561,0.0134390350431204
5,1.02638896227504,-0.105555564319952,0.0125000003581147,0.017409659922123,0.00244346098043024,0.0128281703218818
5,1.02916674604155,-0.101388894748172,0.0111111115138517,0.0219911485910416,-0.0021380283869803,0.0106901414692402
5,1.02916674604155,-0.100000002864918,0.0180555564949145,0.0100792767480016,-0.00610865233466029,0.011606439948082
5,1.02777785415829,-0.101388894748172,0.0152777788063885,0.00244346098043024,0.00519235478714108,0.00824668072164059
5,1.02916674604155,-0.104166672436698,0.00416666691266287,-0.00519235478714108,0.000610865245107561,0.00244346098043024
5,1.02916674604155,-0.104166672436698,0.00972222266958873,0.00183259579353034,-0.00183259579353034,0.0103847095742822
5,1.02916674604155,-0.106944444047242,0.0111111115138517,0.0125227374956012,0.0033597587607801,0.00244346098043024
5,1.02777785415829,-0.104166672436698,0.00555555575692586,0.011606439948082,-0.00519235478714108,0.00885754637420177
5,1.02500007039179,-0.101388894748172,0.00972222266958873,0.00397062394768,0.00549778714776039,0.00916297826915979
5,1.02083339474202,-0.100000002864918,0.00555555575692586,0.0027488935738802,0.00885754637420177,0.00183259579353034
5,1.02222228662528,-0.108333335930496,0.0125000003581147,-0.000916297896765172,-0.00824668072164059,-0.00183259579353034
5,1.02222228662528,-0.106944444047242,0.0194444453391775,0.00488692196086049,-0.00610865233466029,0.00244346098043024
5,1.02638896227504,-0.106944444047242,0.0111111115138517,0.00794124789535999,-0.00641408516094089,0.00366519158706069
5,1.02916674604155,-0.106944444047242,0.00972222266958873,0.0213802829384804,-0.00397062394768,0.00244346098043024
5,1.02916674604155,-0.100000002864918,0.00555555575692586,0.0131336031481624,0.00702495034784079,0.00519235478714108
5,1.02638896227504,-0.106944444047242,0.00416666691266287,-0.00305432616733015,-0.00183259579353034,0.0033597587607801
5,1.02777785415829,-0.108333335930496,-0.00138888893923146,0.00183259579353034,0.00519235478714108,-0.000916297896765172
5,1.02361117850853,-0.104166672436698,0.0125000003581147,0.00794124789535999,-0.00305432616733015,0.00519235478714108
5,1.02777785415829,-0.106944444047242,0.00972222266958873,0.0113010071218014,0.00549778714776039,-0.0021380283869803
5,1.02638896227504,-0.104166672436698,0.0152777788063885,0.00610865233466029,0.00824668072164059,0.00183259579353034
5,1.02500007039179,-0.101388894748172,0.00972222266958873,0.00824668072164059,0.00580321997404099,0.0103847095742822
5,1.02777785415829,-0.104166672436698,0.0152777788063885,0.00549778714776039,0.00946841109544039,0.00366519158706069
5,1.02222228662528,-0.104166672436698,0.00277777787846293,0.0152716310694814,-0.00702495034784079,0.00702495034784079
5,1.02638896227504,-0.102777780553444,0.0111111115138517,0.0229074470698834,-0.00519235478714108,0.00183259579353034
5,1.02638896227504,-0.0986111170596459,0.00416666691266287,0.0164933614432812,0.00855211354792118,0.00946841109544039
5,1.02500007039179,-0.102777780553444,0.00972222266958873,0.00305432616733015,-0.000916297896765172,0.00916297826915979
5,1.02638896227504,-0.111111119697004,0.0166666676506515,-0.000916297896765172,-0.0033597587607801,0.0027488935738802
5,1.02916674604155,-0.113888891307548,0.00694444498106275,0.00824668072164059,-0.00366519158706069,0.000916297896765172
5,1.02777785415829,-0.108333335930496,0.00694444498106275,0.00366519158706069,0.000305432622553781,-0.00122173049021512
5,1.02500007039179,-0.104166672436698,0.0138888899621255,0.00519235478714108,0.00671951752156019,0.000305432622553781
5,1.02500007039179,-0.104166672436698,0.0138888899621255,0.00519235478714108,0.00671951752156019,0.000305432622553781
5,1.02083339474202,-0.113888891307548,0.00972222266958873,0.00305432616733015,-0.0027488935738802,-0.00488692196086049
5,1.02500007039179,-0.115277783190802,-0.00138888893923146,0.00397062394768,-0.00885754637420177,-0.0109955742955208
5,1.02777785415829,-0.111111119697004,0.00277777787846293,0.0167987942695618,-0.0113010071218014,-0.0171042270958424
5,1.02777785415829,-0.106944444047242,0.0125000003581147,0.00610865233466029,-0.0021380283869803,-0.0140499006956816
5,1.02916674604155,-0.113888891307548,0.0125000003581147,0.0146607663482428,-0.00244346098043024,-0.00824668072164059
5,1.02638896227504,-0.105555564319952,0.0166666676506515,0.0021380283869803,0.00397062394768,0.00183259579353034
5,1.02500007039179,-0.10972222781375,0.00555555575692586,0.00152716308366507,-0.00183259579353034,0.0021380283869803
5,1.02500007039179,-0.111111119697004,0.00555555575692586,0.0021380283869803,-0.00549778714776039,-0.00152716308366507
5,1.02500007039179,-0.108333335930496,0.00694444498106275,0.00122173049021512,0.00183259579353034,-0.00702495034784079
5,1.02361117850853,-0.108333335930496,0.00833333382532574,-0.00671951752156019,0.0045814891345799,-0.00549778714776039
5,1.02222228662528,-0.104166672436698,0.00833333382532574,-0.00885754637420177,0.013744467869401,-0.00488692196086049
5,1.02777785415829,-0.100000002864918,0.00972222266958873,-0.00885754637420177,0.00488692196086049,0.00916297826915979
5,1.02500007039179,-0.0986111170596459,0.00555555575692586,-0.00610865233466029,-0.00122173049021512,0.00427605677396059
5,1.02500007039179,-0.0986111170596459,0.00833333382532574,-0.0045814891345799,0.0045814891345799,0.00610865233466029
5,1.02638896227504,-0.105555564319952,0.00833333382532574,-0.0033597587607801,0.0131336031481624,0.00763581553474069
5,1.02500007039179,-0.105555564319952,0.00555555575692586,0.000610865245107561,0.00763581553474069,-0.00702495034784079
5,1.02083339474202,-0.106944444047242,0.0152777788063885,0.00488692196086049,-0.000305432622553781,-0.00610865233466029
5,1.02361117850853,-0.104166672436698,0.0166666676506515,0.0027488935738802,0.000305432622553781,-0.0103847095742822
5,1.02916674604155,-0.0972222251763917,0.0138888899621255,0.0103847095742822,-0.00152716308366507,0.00580321997404099
5,1.03194452980806,-0.0944444474878658,0.0111111115138517,-0.000916297896765172,0.0140499006956816,0.0140499006956816
5,1.02638896227504,-0.0986111170596459,0.00972222266958873,0.0113010071218014,0.00305432616733015,0.0140499006956816
5,1.01666671909226,-0.102777780553444,0.0125000003581147,0.0128281703218818,0.00519235478714108,0.0189368221908808
5,1.02222228662528,-0.104166672436698,0.0138888899621255,0.0164933614432812,0.00183259579353034,0.013744467869401
5,1.02500007039179,-0.101388894748172,0.00972222266958873,0.0244346093386412,-0.00580321997404099,-0.000305432622553781
5,1.02361117850853,-0.0916666697993398,0.00416666691266287,0.02382374368608,-0.00183259579353034,0.00855211354792118
5,1.02500007039179,-0.0958333393711199,0.00694444498106275,0.00794124789535999,0.00763581553474069,0.0106901414692402
5,1.02222228662528,-0.0986111170596459,0.0111111115138517,0.00671951752156019,0.0113010071218014,0.0122173046693206
5,1.02500007039179,-0.101388894748172,0.0111111115138517,0.0146607663482428,-0.00824668072164059,0.011606439948082
5,1.02500007039179,-0.101388894748172,0.0111111115138517,0.0146607663482428,-0.00824668072164059,0.011606439948082
5,1.02638896227504,-0.100000002864918,0.00972222266958873,0.00183259579353034,0.00488692196086049,0.0021380283869803
5,1.02916674604155,-0.106944444047242,0.0125000003581147,0.00183259579353034,0.015577063895762,0.0146607663482428
5,1.02500007039179,-0.102777780553444,0.0125000003581147,-0.00427605677396059,0.00702495034784079,0.011606439948082
5,1.02500007039179,-0.108333335930496,0.0138888899621255,0.0033597587607801,-0.00244346098043024,0.0103847095742822
5,1.02361117850853,-0.111111119697004,0.0152777788063885,0.0134390350431204,-0.00641408516094089,-0.00397062394768
5,1.02361117850853,-0.111111119697004,0.0125000003581147,0.0106901414692402,-0.00977384392172098,0.000305432622553781
5,1.02361117850853,-0.104166672436698,0.0152777788063885,0.00427605677396059,0.00244346098043024,0.000610865245107561
5,1.02222228662528,-0.104166672436698,0.0125000003581147,-0.00152716308366507,0.00794124789535999,0.0106901414692402
5,1.02638896227504,-0.0986111170596459,0.0125000003581147,-0.0045814891345799,0.00152716308366507,0.0134390350431204
5,1.02500007039179,-0.108333335930496,0.00833333382532574,0.00244346098043024,-0.0027488935738802,0.0229074470698834
5,1.02500007039179,-0.113888891307548,0.0236111118719664,0.0106901414692402,0.0021380283869803,0.0171042270958424
5,1.02222228662528,-0.115277783190802,0.0152777788063885,0.0171042270958424,0.0033597587607801,0.00855211354792118
5,1.02500007039179,-0.10972222781375,0.00833333382532574,0.0134390350431204,0.00427605677396059,0.0128281703218818
5,1.01944450285877,-0.100000002864918,0.00972222266958873,0.0106901414692402,-0.000610865245107561,0.0125227374956012
5,1.02777785415829,-0.104166672436698,0.00972222266958873,0.0131336031481624,-0.000305432622553781,0.00885754637420177
5,1.02638896227504,-0.104166672436698,0.0138888899621255,0.00794124789535999,0.00610865233466029,0.00702495034784079
5,1.02638896227504,-0.108333335930496,0.0111111115138517,0.00671951752156019,0.00183259579353034,0.00488692196086049
5,1.02500007039179,-0.101388894748172,0.00555555575692586,0.00122173049021512,0.00183259579353034,0.0113010071218014
5,1.02500007039179,-0.105555564319952,0.0194444453391775,-0.000610865245107561,-0.00549778714776039,0.00702495034784079
5,1.02222228662528,-0.10972222781375,0.0125000003581147,0.00427605677396059,-0.00519235478714108,0.00549778714776039
5,1.02777785415829,-0.105555564319952,0.00555555575692586,0.00397062394768,-0.0021380283869803,0.000610865245107561
5,1.02916674604155,-0.108333335930496,0.00555555575692586,0.00885754637420177,0.00244346098043024,0.00519235478714108
5,1.02638896227504,-0.108333335930496,0.00555555575692586,-0.0045814891345799,0.00244346098043024,0.00183259579353034
5,1.02500007039179,-0.108333335930496,0.0125000003581147,0.000916297896765172,-0.000305432622553781,0.00152716308366507
5,1.02777785415829,-0.108333335930496,0.00833333382532574,0.00305432616733015,-0.000610865245107561,0.00549778714776039
5,1.03194452980806,-0.102777780553444,0.00972222266958873,-0.00610865233466029,0.00122173049021512,0.011606439948082
5,1.02916674604155,-0.100000002864918,0.00972222266958873,-0.000305432622553781,0.0164933614432812,0.00397062394768
5,1.02916674604155,-0.100000002864918,0.00972222266958873,-0.00702495034784079,0.00610865233466029,0.00641408516094089
5,1.02916674604155,-0.100000002864918,0.00972222266958873,-0.0033597587607801,-0.00427605677396059,0.00488692196086049
5,1.02500007039179,-0.108333335930496,0.0152777788063885,0.00702495034784079,-0.00122173049021512,0.0167987942695618
5,1.02916674604155,-0.116666675074056,0.0125000003581147,0.00610865233466029,-0.0033597587607801,0.00244346098043024
5,1.02916674604155,-0.113888891307548,0.0125000003581147,0.0122173046693206,0.00183259579353034,0.0027488935738802
5,1.02916674604155,-0.106944444047242,0.0180555564949145,0.0183259565383196,0.0045814891345799,0.00733038317412138
5,1.02500007039179,-0.111111119697004,0.0166666676506515,0.0100792767480016,-0.00977384392172098,0.0100792767480016
5,1.02222228662528,-0.108333335930496,0.00694444498106275,0.00824668072164059,-0.00488692196086049,0.000305432622553781
5,1.03194452980806,-0.113888891307548,0.00972222266958873,-0.0033597587607801,-0.00397062394768,-0.0027488935738802
5,1.0305556379248,-0.108333335930496,0.0166666676506515,0.000916297896765172,0.00763581553474069,-0.00580321997404099
5,1.02500007039179,-0.112499999424294,0.0152777788063885,0.00488692196086049,0.00427605677396059,-0.00122173049021512
5,1.02500007039179,-0.113888891307548,0.0208333341834404,0.015577063895762,-0.0045814891345799,0.00244346098043024
5,1.02500007039179,-0.111111119697004,0.0194444453391775,0.0149661982432008,-0.00580321997404099,-0.00305432616733015
5,1.02361117850853,-0.10972222781375,0.00972222266958873,0.00733038317412138,-0.0027488935738802,0.000305432622553781
5,1.02361117850853,-0.10972222781375,0.00972222266958873,0.0045814891345799,0.00977384392172098,-0.0113010071218014
5,1.02500007039179,-0.111111119697004,0.00277777787846293,0.000916297896765172,0.00763581553474069,-0.00794124789535999
5,1.02500007039179,-0.106944444047242,0.00972222266958873,0.00641408516094089,-0.00488692196086049,-0.00122173049021512
5,1.02500007039179,-0.106944444047242,0.00972222266958873,0.00794124789535999,-0.00916297826915979,0.00305432616733015
5,1.0305556379248,-0.105555564319952,0.0111111115138517,0.00244346098043024,-0.011606439948082,-0.00610865233466029
5,1.02916674604155,-0.105555564319952,0.00555555575692586,-0.00122173049021512,-0.00122173049021512,-0.000610865245107561
5,1.02916674604155,-0.105555564319952,0.00555555575692586,0.00488692196086049,0.00794124789535999,-0.00244346098043024
5,1.02638896227504,-0.105555564319952,0.00972222266958873,0.000610865245107561,0.0045814891345799,0.00427605677396059
5,1.02638896227504,-0.105555564319952,0.0152777788063885,0.00183259579353034,-0.000305432622553781,0.00183259579353034
5,1.02638896227504,-0.105555564319952,0.0152777788063885,0.00977384392172098,-0.00244346098043024,-0.000305432622553781
5,1.02500007039179,-0.113888891307548,0.0125000003581147,0.0134390350431204,-0.0027488935738802,-0.00397062394768
5,1.02083339474202,-0.106944444047242,0.0111111115138517,0.0134390350431204,-0.00427605677396059,-0.0103847095742822
5,1.02500007039179,-0.101388894748172,0.0125000003581147,0.00794124789535999,-0.00152716308366507,-0.00122173049021512
5,1.02500007039179,-0.101388894748172,0.0125000003581147,-0.0033597587607801,-0.00122173049021512,-0.0045814891345799
5,1.02361117850853,-0.102777780553444,0.00694444498106275,0.000305432622553781,-0.000305432622553781,-0.000610865245107561
5,1.01944450285877,-0.102777780553444,0.0125000003581147,0.00977384392172098,0.00122173049021512,0.00244346098043024
5,1.02500007039179,-0.108333335930496,0.00416666691266287,0.0128281703218818,-0.00519235478714108,-0.00916297826915979
5,1.02916674604155,-0.106944444047242,0.0111111115138517,0.0161879286170006,-0.0033597587607801,-0.00885754637420177
5,1.02500007039179,-0.101388894748172,0.00555555575692586,0.0106901414692402,-0.00519235478714108,-0.00122173049021512
5,1.02500007039179,-0.104166672436698,0.0138888899621255,0.0103847095742822,-0.00397062394768,0.00244346098043024
5,1.02916674604155,-0.105555564319952,0.00138888893923146,0.0143553335219622,0.00122173049021512,-0.00519235478714108
5,1.02222228662528,-0.111111119697004,0.0152777788063885,0.015577063895762,-0.0027488935738802,-0.00488692196086049
5,1.02777785415829,-0.108333335930496,0.0111111115138517,0.00885754637420177,-0.000305432622553781,-0.0152716310694814
5,1.03194452980806,-0.108333335930496,0.00833333382532574,0.00549778714776039,0.00733038317412138,-0.00702495034784079
5,1.02777785415829,-0.104166672436698,0.0111111115138517,0.00305432616733015,0.00702495034784079,-0.00580321997404099
5,1.02500007039179,-0.105555564319952,0.0125000003581147,0.0100792767480016,0.00397062394768,0.00671951752156019
5,1.02500007039179,-0.104166672436698,0.0125000003581147,0.01191187184304,0.00122173049021512,0.00702495034784079
5,1.02916674604155,-0.105555564319952,0.00555555575692586,0.0183259565383196,-0.00885754637420177,0.00183259579353034
5,1.02222228662528,-0.0944444474878658,0.00277777787846293,0.00916297826915979,-0.0045814891345799,0.0106901414692402
5,1.02500007039179,-0.105555564319952,0.0152777788063885,0.00763581553474069,-0.00397062394768,-0.000916297896765172
5,1.02361117850853,-0.100000002864918,0.00138888893923146,-0.00305432616733015,-0.00671951752156019,-0.00183259579353034
5,1.02500007039179,-0.102777780553444,0.00694444498106275,0.00397062394768,0.00183259579353034,-0.00580321997404099
5,1.02777785415829,-0.104166672436698,0.00972222266958873,0.00427605677396059,0.00397062394768,0.000916297896765172
5,1.0333333244436,-0.105555564319952,-0.00277777787846293,0.00733038317412138,0.00824668072164059,-0.00183259579353034
5,1.02916674604155,-0.101388894748172,0.00694444498106275,-0.00305432616733015,0.0045814891345799,0.00610865233466029
5,1.02916674604155,-0.105555564319952,0.00972222266958873,0.0033597587607801,-0.00397062394768,-0.00183259579353034
5,1.02083339474202,-0.105555564319952,0.00416666691266287,0.0113010071218014,-0.00977384392172098,-0.00855211354792118
5,1.02638896227504,-0.105555564319952,0.00972222266958873,0.00580321997404099,0.00122173049021512,-0.0045814891345799
5,1.02638896227504,-0.108333335930496,0.00972222266958873,0.00733038317412138,0.00733038317412138,0.00610865233466029
5,1.02777785415829,-0.108333335930496,0.00694444498106275,0.00855211354792118,0.00244346098043024,0.00519235478714108
5,1.02222228662528,-0.108333335930496,0.0125000003581147,0.00916297826915979,0.00152716308366507,0.0113010071218014
5,1.02361117850853,-0.105555564319952,0.00555555575692586,0.00855211354792118,-0.00488692196086049,-0.00916297826915979
5,1.02500007039179,-0.104166672436698,0.00555555575692586,0.0103847095742822,0.000610865245107561,-0.00122173049021512
5,1.02500007039179,-0.104166672436698,0.00972222266958873,0.0128281703218818,0.0021380283869803,-0.000610865245107561
5,1.02222228662528,-0.104166672436698,0.00277777787846293,0.00733038317412138,0.00916297826915979,0.00152716308366507
5,1.02222228662528,-0.106944444047242,-0.00277777787846293,0.0134390350431204,0.0045814891345799,0.0033597587607801
5,1.02222228662528,-0.101388894748172,-0.00138888893923146,0.00763581553474069,0.00152716308366507,-0.0027488935738802
5,1.02500007039179,-0.102777780553444,0.00555555575692586,0.0204639863222837,0.00183259579353034,-0.00794124789535999
5,1.02638896227504,-0.101388894748172,0.0208333341834404,0.01191187184304,0.0100792767480016,0.00122173049021512
5,1.02500007039179,-0.101388894748172,0.0208333341834404,0.0113010071218014,0.000916297896765172,0.00824668072164059
5,1.02500007039179,-0.101388894748172,0.00555555575692586,0.00427605677396059,-0.000916297896765172,0.00305432616733015
5,1.02361117850853,-0.104166672436698,0.00555555575692586,0.00824668072164059,0.00244346098043024,0.00305432616733015
5,1.02500007039179,-0.102777780553444,0.00555555575692586,0.0100792767480016,0.00733038317412138,0.00671951752156019
5,1.02777785415829,-0.101388894748172,0.0138888899621255,0.00641408516094089,0.0027488935738802,-0.00183259579353034
5,1.02916674604155,-0.101388894748172,0.0125000003581147,0.00763581553474069,-0.00397062394768,0.0045814891345799
5,1.02222228662528,-0.101388894748172,0.0194444453391775,0.00671951752156019,-0.00183259579353034,-0.00488692196086049
5,1.02500007039179,-0.104166672436698,0.00277777787846293,0.0171042270958424,-0.0033597587607801,0.0113010071218014
5,1.02500007039179,-0.105555564319952,0.00555555575692586,0.0180205255746841,-0.0033597587607801,0.00702495034784079
5,1.02638896227504,-0.101388894748172,0.00833333382532574,0.00855211354792118,0.00519235478714108,-0.00488692196086049
5,1.02916674604155,-0.104166672436698,0.00833333382532574,0.0033597587607801,0.00397062394768,0.00977384392172098
5,1.02777785415829,-0.106944444047242,0.0180555564949145,-0.0021380283869803,0.00122173049021512,0.0106901414692402
5,1.02083339474202,-0.106944444047242,0.0125000003581147,-0.00305432616733015,0.00671951752156019,0.00946841109544039
5,1.02361117850853,-0.111111119697004,0.0194444453391775,0.00885754637420177,-0.000305432622553781,-0.0021380283869803
5,1.02500007039179,-0.115277783190802,0.0152777788063885,0.0167987942695618,-0.000610865245107561,-0.000916297896765172
5,1.02916674604155,-0.111111119697004,0.00694444498106275,0.0140499006956816,0.0033597587607801,0.0113010071218014
5,1.02777785415829,-0.101388894748172,0.0138888899621255,0.00824668072164059,0.00794124789535999,0.00580321997404099
5,1.02361117850853,-0.0986111170596459,0.00972222266958873,0.00733038317412138,0.0027488935738802,0.00549778714776039
5,1.02083339474202,-0.101388894748172,0.0125000003581147,0.0033597587607801,0.00152716308366507,-0.00122173049021512
5,1.02083339474202,-0.111111119697004,0.00972222266958873,0.000916297896765172,-0.00610865233466029,0.00702495034784079
5,1.02500007039179,-0.111111119697004,0.0166666676506515,0.00916297826915979,0.000916297896765172,-0.000610865245107561
5,1.02638896227504,-0.108333335930496,0.0125000003581147,0.00641408516094089,0.00702495034784079,-0.00763581553474069
5,1.02638896227504,-0.111111119697004,0.0125000003581147,0.000305432622553781,0.0033597587607801,-0.00152716308366507
5,1.02638896227504,-0.111111119697004,0.0152777788063885,0.00244346098043024,-0.00152716308366507,0.00152716308366507
5,1.02222228662528,-0.106944444047242,0.00555555575692586,0.000305432622553781,0.000916297896765172,-0.00183259579353034
5,1.02500007039179,-0.105555564319952,-0.00277777787846293,0.00305432616733015,-0.0027488935738802,0.00397062394768
5,1.02638896227504,-0.104166672436698,0.00833333382532574,0.0143553335219622,0.00519235478714108,-0.00580321997404099
5,1.02638896227504,-0.111111119697004,0.0194444453391775,0.00397062394768,0.00580321997404099,-0.0027488935738802
5,1.02222228662528,-0.106944444047242,0.0180555564949145,0.00671951752156019,0.00122173049021512,-0.0033597587607801
5,1.02777785415829,-0.108333335930496,0.0194444453391775,0.0021380283869803,-0.000610865245107561,-0.00122173049021512
5,1.02777785415829,-0.106944444047242,0.0125000003581147,0.0027488935738802,-0.000610865245107561,-0.00122173049021512
5,1.02222228662528,-0.106944444047242,0.0152777788063885,0.0100792767480016,-0.00305432616733015,0.00702495034784079
5,1.02222228662528,-0.102777780553444,0.0152777788063885,0.0100792767480016,0.0033597587607801,0.00183259579353034
5,1.02222228662528,-0.102777780553444,0.0152777788063885,0.0045814891345799,0.000916297896765172,0.00733038317412138
5,1.02638896227504,-0.108333335930496,0.0208333341834404,0.0122173046693206,-0.000610865245107561,-0.00610865233466029
5,1.02500007039179,-0.104166672436698,0.00833333382532574,0.00122173049021512,-0.0109955742955208,-0.0103847095742822
5,1.02500007039179,-0.104166672436698,0.00833333382532574,0.00397062394768,0.00397062394768,-0.00763581553474069
5,1.02500007039179,-0.104166672436698,-0.00555555575692586,0.00427605677396059,0.00580321997404099,-0.00397062394768
5,1.02500007039179,-0.105555564319952,-0.00555555575692586,0.00671951752156019,0.0033597587607801,-0.00549778714776039
5,1.01944450285877,-0.101388894748172,0.00694444498106275,0.00305432616733015,-0.00122173049021512,-0.00671951752156019
5,1.02083339474202,-0.101388894748172,0.00694444498106275,0.00580321997404099,-0.00305432616733015,-0.00580321997404099
5,1.02500007039179,-0.101388894748172,0.00972222266958873,0.000610865245107561,-0.00794124789535999,-0.00152716308366507
5,1.02500007039179,-0.0986111170596459,0.00555555575692586,-0.000305432622553781,0.00977384392172098,0.0033597587607801
5,1.02361117850853,-0.100000002864918,0.00555555575692586,0.0033597587607801,0.00549778714776039,-0.000916297896765172
5,1.02083339474202,-0.111111119697004,0.0125000003581147,0.0128281703218818,-0.00122173049021512,0.000916297896765172
5,1.02777785415829,-0.111111119697004,0.0111111115138517,0.0128281703218818,-0.00549778714776039,0.000916297896765172
5,1.02916674604155,-0.111111119697004,0.00972222266958873,0.015577063895762,0.0027488935738802,0.0027488935738802
5,1.02500007039179,-0.106944444047242,0.00833333382532574,0.0143553335219622,0.0045814891345799,0.00671951752156019
5,1.02777785415829,-0.101388894748172,0.0180555564949145,0.0183259565383196,0.00183259579353034,-0.00244346098043024
5,1.02222228662528,-0.108333335930496,0.00833333382532574,0.017409659922123,0.000916297896765172,0.00641408516094089
5,1.02222228662528,-0.111111119697004,0.0222222230277034,0.0247400421649218,-0.00397062394768,-0.00671951752156019
5,1.02222228662528,-0.111111119697004,0.0222222230277034,0.0226020142436027,-0.00580321997404099,-0.0213802829384804
5,1.02361117850853,-0.102777780553444,0.0111111115138517,0.0284052342176437,-0.0161879286170006,0.00671951752156019
5,1.03194452980806,-0.0958333393711199,0.0152777788063885,0.0253509078174829,-0.000305432622553781,0.000610865245107561
5,1.02916674604155,-0.0944444474878658,0.0152777788063885,0.00916297826915979,-0.000610865245107561,0.00702495034784079
5,1.02222228662528,-0.0972222251763917,0.0180555564949145,-0.00549778714776039,-0.0201585534960032,-0.0125227374956012
5,1.02083339474202,-0.0972222251763917,0.0166666676506515,-0.0100792767480016,-0.0222965814173222,-0.0106901414692402
5,1.02500007039179,-0.0986111170596459,0.0111111115138517,-0.0244346093386412,-0.00366519158706069,-0.0198531206697226
5,1.02777785415829,-0.100000002864918,0.0111111115138517,-0.0332921557128429,0.0106901414692402,-0.0152716310694814
5,1.02361117850853,-0.104166672436698,0.0208333341834404,-0.0372627787292004,0.0113010071218014,-0.00580321997404099
5,1.02222228662528,-0.113888891307548,0.0138888899621255,-0.037568211555481,0.013744467869401,0.00702495034784079
5,1.02361117850853,-0.115277783190802,0.0194444453391775,-0.0323758572340012,0.0103847095742822,-0.00549778714776039
5,1.02500007039179,-0.113888891307548,0.0180555564949145,-0.019547687843442,0.00610865233466029,0.00763581553474069
5,1.02500007039179,-0.113888891307548,0.0125000003581147,-0.0113010071218014,0.00397062394768,0.00916297826915979
5,1.02500007039179,-0.106944444047242,0.00972222266958873,-0.00671951752156019,0.0103847095742822,0.0131336031481624
5,1.02361117850853,-0.104166672436698,0.00555555575692586,0.00671951752156019,0.0045814891345799,0.0180205255746841
5,1.02361117850853,-0.108333335930496,0.00972222266958873,0.00977384392172098,0.00305432616733015,0.0146607663482428
5,1.02916674604155,-0.118055554801345,0.00694444498106275,0.0177150927484035,-0.00610865233466029,0.0109955742955208
5,1.02500007039179,-0.111111119697004,0.00555555575692586,0.0186313893646002,0.00519235478714108,-0.0021380283869803
5,1.02500007039179,-0.108333335930496,0.00555555575692586,0.0183259565383196,-0.00519235478714108,0.00122173049021512
5,1.02500007039179,-0.105555564319952,0.00694444498106275,0.02382374368608,0.00305432616733015,0.00824668072164059
