Activity,acc_x,acc_y,acc_z,gyro_x,gyro_y,gyro_z
0,0.459722240879953,0.0638888929140799,0.899999995394348,0.0265726372599602,-0.0519235469400883,0.0769690200686455
0,0.447222262554524,0.0750000036681839,0.912500022343635,-0.021685715764761,-0.00671951752156019,0.058643065392971
0,0.443055586904762,0.0805555590452358,0.899999995394348,-0.0455094613134861,0.098960168659687,0.0458148941397667
0,0.437500019371745,0.0736111117849297,0.912500022343635,-0.0378736443817616,0.122173048555851,0.0354301854968071
0,0.433333343721983,0.0722222259796579,0.909722238577127,-0.0494800843298435,0.126143679022789,0.0497855171561241
0,0.433333343721983,0.0666666706026059,0.916666697993398,-0.0177150927484035,0.096211276948452,0.0589484944939613
0,0.423611149163062,0.0583333375370279,0.911111130460381,0.0198531206697226,0.10048733651638,0.0161879286170006
0,0.413888905980283,0.0694444482911319,0.904166671044111,0.0436768643558025,0.0849102661013603,0.0164933614432812
0,0.413888905980283,0.0652777787193518,0.916666697993398,0.0390953756868839,0.0140499006956816,0.0433714315295219
0,0.416666689746791,0.0652777787193518,0.909722238577127,0.00152716308366507,0.00824668072164059,0.0534507073462009
0,0.408333338447267,0.0666666706026059,0.888888957576031,0.0149661982432008,0.0757472887635231,0.0473420582711697
0,0.405555578992687,0.0625000010308258,0.913888914226889,0.0519235469400883,0.0412334054708481,0.0531452745199203
0,0.416666689746791,0.0666666706026059,0.918055589876652,0.0455094613134861,0.0571159012615681,0.0668897479772568
0,0.418055581630046,0.0680555564078778,0.911111130460381,0.0247400421649218,0.029626963660121,0.0733038261532784
0,0.413888905980283,0.0694444482911319,0.908333346693873,0.0436768643558025,0.0247400421649218,0.0714712366461754
0,0.406944470875941,0.0680555564078778,0.908333346693873,0.098960168659687,0.0329867228865623,0.0671951770782471
0,0.408333338447267,0.0722222259796579,0.913888914226889,0.125227376818657,-0.0134390350431204,0.0671951770782471
0,0.412500014097029,0.0819444448505077,0.911111130460381,0.103847093880177,-0.00641408516094089,0.0708603709936142
0,0.412500014097029,0.0819444448505077,0.911111130460381,0.0901026204228401,0.0424551330506802,0.0616973899304867
0,0.411111122213775,0.0805555590452358,0.901388887277602,0.0723875313997269,0.0445931628346443,0.0613919571042061
0,0.413888905980283,0.0777777813567098,0.899999995394348,0.0507018156349659,0.0311541277915239,0.0714712366461754
0,0.400000011459671,0.0750000036681839,0.913888914226889,0.0497855171561241,-0.00152716308366507,0.0839939713478088
0,0.400000011459671,0.0750000036681839,0.913888914226889,0.0436768643558025,-0.0271835029125214,0.0901026204228401
0,0.400000011459671,0.0777777813567098,0.908333346693873,0.0482583530247212,0.0201585534960032,0.107206851243973
0,0.400000011459671,0.0777777813567098,0.908333346693873,0.0629191175103188,-0.0555887371301651,0.109955742955208
0,0.404166687109433,0.0763888894734557,0.905555562927365,0.115453533828259,-0.0442877300083637,0.0901026204228401
0,0.404166687109433,0.0763888894734557,0.905555562927365,0.142942473292351,-0.0482583530247212,0.0879645943641663
0,0.401388903342925,0.0805555590452358,0.906944454810619,0.145691365003586,-0.0436768643558025,0.0784961804747581
0,0.411111122213775,0.0819444448505077,0.911111130460381,0.124311074614525,-0.00824668072164059,0.0748309940099716
0,0.411111122213775,0.0750000036681839,0.904166671044111,0.0665843114256859,-0.013744467869401,0.090408056974411
0,0.420833365396554,0.0708333340964038,0.899999995394348,0.0565050356090069,0.0323758572340012,0.0650571510195732
0,0.406944470875941,0.0805555590452358,0.911111130460381,0.0421497002243996,-0.00641408516094089,0.0769690200686455
0,0.395833335809908,0.0819444448505077,0.902777779160856,0.0314595587551594,-0.011606439948082,0.0995710343122482
0,0.413888905980283,0.0847222225390337,0.884722281926269,0.0458148941397667,0.0445931628346443,0.0791070461273193
0,0.426388884305712,0.0819444448505077,0.913888914226889,0.0558941699564457,0.100181899964809,0.0595593601465225
0,0.404166687109433,0.0847222225390337,0.92083337364316,0.0445931628346443,0.0916297882795334,0.0858265683054924
0,0.416666689746791,0.0875000002275597,0.92083337364316,0.0681114718317986,0.124616511166096,0.0531452745199203
0,0.418055581630046,0.0902777839940679,0.925000049292922,0.0485637858510017,0.114231802523136,0.0461203269660473
0,0.408333338447267,0.0972222251763917,0.930555616825939,0.0494800843298435,0.058643065392971,0.0531452745199203
0,0.418055581630046,0.0902777839940679,0.909722238577127,0.0467311926186085,0.0507018156349659,0.0406225398182869
0,0.411111122213775,0.0930555616825939,0.929166724942685,0.090408056974411,0.0189368221908808,0.0534507073462009
0,0.400000011459671,0.0916666697993398,0.934722292475701,0.142331600189209,-0.00305432616733015,0.0739146918058395
0,0.412500014097029,0.0875000002275597,0.919444481759906,0.152105450630188,-0.0500909499824047,0.0610865242779255
0,0.423611149163062,0.0958333393711199,0.923611157409668,0.223882108926773,-0.157297804951668,0.0241291765123606
0,0.420833365396554,0.0958333393711199,0.936111184358955,0.317955374717712,-0.378736466169357,0.0949895456433296
0,0.415277797863537,0.101388894748172,0.906944454810619,0.291993588209152,-0.288022965192795,0.105068825185299
0,0.420833365396554,0.108333335930496,0.913888914226889,0.233655959367752,-0.280387133359909,0.150578290224075
0,0.433333343721983,0.111111119697004,0.908333346693873,0.171958565711975,-0.189062789082527,0.171347707509995
0,0.440277803138253,0.112499999424294,0.906944454810619,0.192422553896904,-0.0335975885391235,0.145080491900444
0,0.447222262554524,0.113888891307548,0.89722221162784,0.151494577527046,-0.0946841165423393,0.134084925055504
0,0.434722235605237,0.105555564319952,0.87500003874349,0.223271250724793,-0.191200822591782,0.0830776765942574
0,0.4194444735133,0.112499999424294,0.873611146860236,0.300545692443848,-0.211053937673569,0.0568104684352875
0,0.438888911254999,0.112499999424294,0.884722281926269,0.294742494821549,-0.233655959367752,0.0500909499824047
0,0.443055586904762,0.120833338567854,0.872222254976982,0.172874867916107,-0.17989981174469,0.0421497002243996
0,0.452777781463682,0.120833338567854,0.856944444261187,0.0803287774324417,-0.0891863256692886,0.0531452745199203
0,0.456944457113445,0.12916666555545,0.86805557932722,0.0106901414692402,-0.0314595587551594,0.0891863256692886
0,0.454166673346937,0.12916666555545,0.858333336144441,-0.027488935738802,0.0458148941397667,0.0809396430850029
0,0.463888916529715,0.131944449321958,0.865277795560711,-0.0534507073462009,0.139277279376984,0.0470366254448891
0,0.463888916529715,0.12777778582816,0.870833363093728,-0.0415388382971287,0.162490159273148,-0.00549778714776039
0,0.458333348996699,0.120833338567854,0.888888957576031,-0.0329867228865623,0.219606056809425,-0.0577267669141293
0,0.462500024646461,0.113888891307548,0.899999995394348,0.0219911485910416,0.166766211390495,-0.0956004112958908
0,0.486111138037923,0.115277783190802,0.89166674134254,0.0152716310694814,0.0140499006956816,-0.138055548071861
0,0.473611111088636,0.1194444466846,0.893055633225794,-0.0219911485910416,0.155770644545555,-0.19028452038765
0,0.473611111088636,0.1194444466846,0.893055633225794,0.0103847095742822,0.23823744058609,-0.19028452038765
0,0.430555559955475,0.12777778582816,0.893055633225794,0.0430659987032413,0.175318330526352,-0.142942473292351
0,0.420833365396554,0.12916666555545,0.893055633225794,0.0852157026529312,0.0537561401724815,-0.0745255574584007
0,0.422222257279808,0.130555557438704,0.884722281926269,0.0803287774324417,0.0320704244077206,-0.0448985956609249
0,0.423611149163062,0.13750000469901,0.887500065692777,0.0519235469400883,0.0836885422468185,-0.027488935738802
0,0.42916666807222,0.138888896582264,0.884722281926269,0.0763581544160843,0.0229074470698834,0.00122173049021512
0,0.42916666807222,0.148611115453114,0.890277849459286,0.101403631269932,-0.0152716310694814,0.0106901414692402
0,0.426388884305712,0.144444451959316,0.890277849459286,0.133168622851372,0.0751364231109619,0.00427605677396059
0,0.422222257279808,0.118055554801345,0.859722228027695,0.159130394458771,0.0201585534960032,0.00671951752156019
0,0.422222257279808,0.118055554801345,0.859722228027695,-0.138971850275993,-0.877813339233398,0.727235078811646
0,0.444444478788016,0.152777778946911,0.779166693294388,-0.196698606014252,-0.49235737323761,0.359494209289551
0,0.459722240879953,0.159722226207217,0.854166660494678,0.216246291995048,-0.297796815633774,0.372933238744736
0,0.362500003547597,0.0819444448505077,0.936111184358955,0.164628177881241,-0.75594574213028,0.93554013967514
0,0.372222246730376,0.177777784221628,0.887500065692777,0.122478485107422,-0.690277755260468,0.979522407054901
0,0.426388884305712,0.177777784221628,0.870833363093728,0.114537231624126,-0.457232624292374,0.844826638698578
0,0.541666667496514,0.123611110178398,0.786111152710659,0.01191187184304,-0.335670441389084,0.59315013885498
0,0.543055559379768,0.106944444047242,0.751388904253164,-0.0430659987032413,-0.32253685593605,0.553138494491577
0,0.476388894855144,0.136111112815755,0.80277780668585,-0.30146199464798,-0.307876080274582,0.754724025726318
0,0.427777776188966,0.126388893944906,0.82222224442755,-0.426689386367798,-0.421497017145157,1.09192156791687
0,0.519444445988306,0.0888888921108138,0.795833347269579,-0.472504258155823,-0.65637469291687,1.34543073177338
0,0.575000024070755,0.0444444460554069,0.761111147435943,-0.535423398017883,-0.687528848648071,1.31213855743408
0,0.558333370095563,0.0152777788063885,0.786111152710659,-0.458759784698486,-0.794430255889893,1.2345587015152
0,0.502777792013115,0.0361111129898289,0.837500055143345,-0.403171062469482,-0.780380368232727,1.30908417701721
0,0.511111143312639,0.0361111129898289,0.843055622676362,-0.482278108596802,-0.872010111808777,1.56717479228973
0,0.511111143312639,0.0361111129898289,0.843055622676362,-0.659123599529266,-1.04427409172058,1.74554741382599
0,0.683333347845286,-0.0652777787193518,0.827777811960566,-0.593761026859283,-1.29075825214386,1.6823228597641
0,0.738888925927735,-0.125000002061652,0.827777811960566,-0.0598647929728031,-1.02594816684723,1.12918436527252
0,0.687500023495048,-0.12916666555545,0.866666687443965,0.347582310438156,-0.725402474403381,0.970664858818054
0,0.66527780198684,-0.104166672436698,0.894444525109048,0.65484756231308,-0.685390830039978,0.890641510486603
0,0.675000045169619,-0.12777778582816,0.841666730793107,0.760832667350769,-0.82375180721283,0.901026248931885
0,0.675000045169619,-0.12777778582816,0.841666730793107,0.667675733566284,-0.273056775331497,0.316733628511429
0,0.82916670384382,-0.359722244093018,0.656944450687316,0.838107109069824,-0.855211317539215,0.021685715764761
0,0.819444460661041,-0.226388890731841,0.666666693870094,0.433714330196381,-0.737619757652283,0.101709060370922
0,0.830555595727074,-0.241666677135707,0.66527780198684,-0.461508691310883,-0.62002819776535,0.187841057777405
0,0.830555595727074,-0.241666677135707,0.66527780198684,-0.711658000946045,-0.846964657306671,0.30757063627243
0,0.880555606276507,-0.215277779977737,0.680555564078778,-0.8078693151474,-1.09100532531738,1.30297553539276
0,0.887500065692777,-0.302777798439244,0.618055575203916,-0.272751331329346,-1.79075145721436,1.6368134021759
0,0.859722228027695,-0.355555568443255,0.65833334257057,-0.0161879286170006,-1.73516273498535,2.36862993240356
0,0.894444525109048,-0.354166676560001,0.544444451263022,-0.147829383611679,-2.17315316200256,3.13007354736328
0,0.96666670854283,-0.440277803138253,0.406944470875941,-0.607200026512146,-3.67374348640442,3.00759506225586
0,0.962500032893068,-0.461111132763207,0.391666684472075,-1.15209186077118,-5.19754695892334,2.68933415412903
0,0.884722281926269,-0.44861110581392,0.458333348996699,-1.19179809093475,-4.71893405914307,2.7568347454071
0,0.869444471210474,-0.424999992422458,0.480555570504907,-1.03541660308838,-4.27819490432739,2.38176369667053
0,0.873611146860236,-0.373611114301701,0.384722225055805,-0.716239511966705,-4.82217025756836,1.77212011814117
0,0.755555579902926,-0.362500003547597,0.438888911254999,-0.340862810611725,-4.16671180725098,1.3301590681076
0,0.690277807261557,-0.384722225055805,0.470833327322128,-0.297491371631622,-2.3591616153717,1.13315498828888
0,0.729166682744956,-0.384722225055805,0.266666682410424,-0.488692194223404,-1.74676918983459,1.08062064647675
0,0.697222266677827,-0.397222227693163,0.0722222259796579,-0.855211317539215,-2.63466191291809,1.52533054351807
0,0.679166672195524,-0.383333357484479,0.0222222230277034,-0.973108351230621,-3.12671375274658,1.42026174068451
0,0.716666704419527,-0.233333350148112,0.0722222259796579,-1.19057631492615,-2.75897288322449,0.233350530266762
0,0.762500039319197,-0.294444447139719,0.0805555590452358,-1.57481062412262,-2.12733817100525,-0.615752160549164
0,0.755555579902926,-0.497222224480098,0.0736111117849297,-1.19179809093475,-1.29045283794403,-0.181732416152954
0,0.908333346693873,-0.488888921804431,-0.030555557612777,-0.733038306236267,-1.26357471942902,-0.457232624292374
0,1.69027792100248,-1.18055557232538,0.134722233088466,-0.21135938167572,0.480750948190689,-1.07756626605988
0,1.46944450055595,-0.911111130460381,-0.00694444498106275,-1.40865528583527,-0.375376701354981,-0.327118337154388
0,1.04166667574312,-0.775000017644626,-0.269444466176932,-1.80755031108856,-1.01556348800659,-0.23273965716362
0,0.847222298326124,-0.618055575203916,-0.229166674498349,-1.45752441883087,-0.950811743736267,-0.461203247308731
0,0.880555606276507,-0.563888889004722,-0.241666677135707,-1.37414133548737,-0.745255589485168,-0.239459171891212
0,0.94305554652751,-0.572222240304247,-0.265277790527169,-1.29839408397675,-1.61665487289429,0.579405665397644
0,0.708333353120002,-0.652777823661411,-0.597222245578963,-1.23058807849884,-3.37105989456177,1.98653376102448
0,0.884722281926269,-0.672222261403111,-0.300000014672736,0.0772744566202164,-0.432187169790268,2.0980167388916
0,0.788888936477167,-0.497222224480098,-0.212499996211229,0.397978693246841,1.01953411102295,1.53479897975922
0,0.533333364820847,-0.390277792588821,-0.455555565230191,-0.36041048169136,-0.0186313893646002,0.625831425189972
0,0.444444478788016,-0.206944452990142,-0.397222227693163,-0.165239050984383,0.938289046287537,-0.992961466312408
0,0.370833354847121,-0.0750000036681839,-0.4194444735133,-0.440128415822983,0.899193644523621,-2.713463306427
0,0.370833354847121,-0.0750000036681839,-0.4194444735133,-0.889114379882813,0.368657171726227,-3.76079177856445
0,0.913888914226889,-0.343055565805897,-0.265277790527169,-0.239459171891212,1.15972769260406,-3.09830856323242
0,1.147222264375,-0.568055564654484,-0.50138890012986,-0.296880513429642,0.568410098552704,-2.11176109313965
0,1.147222264375,-0.568055564654484,-0.50138890012986,-0.434936046600342,0.264504641294479,-1.85000538825989
0,1.19722227492443,-0.486111138037923,-0.409722230330521,-0.489608496427536,0.541837453842163,-2.18903565406799
0,1.19722227492443,-0.486111138037923,-0.409722230330521,-0.838717997074127,0.211970239877701,-2.01005220413208
0,1.02361117850853,-0.295833339022973,-0.440277803138253,-0.400727599859238,0.275500237941742,-1.64475464820862
0,1.02361117850853,-0.295833339022973,-0.440277803138253,-0.0815505087375641,0.500909507274628,-1.54243469238281
0,0.969444492309338,-0.259722222994153,-0.418055581630046,0.171347707509995,0.219300627708435,-2.24492979049683
0,0.765277823085705,-0.354166676560001,-0.381944465601225,0.0778853222727776,0.350636661052704,-1.95263075828552
0,0.765277823085705,-0.354166676560001,-0.381944465601225,-0.422107875347138,0.593761026859283,-0.365908294916153
0,1.22638890722505,-0.577777807837263,-0.122222230451108,-0.0268780700862408,-0.0329867228865623,-0.235793977975845
0,0.880555606276507,-0.275000009398019,-0.288888903918631,-0.0131336031481624,-0.129808858036995,-0.716239511966705
0,0.880555606276507,-0.275000009398019,-0.288888903918631,0.12156218290329,0.263893783092499,-0.661567032337189
0,0.722222271952543,-0.122222230451108,-0.354166676560001,0.00824668072164059,0.49235737323761,-0.958447575569153
0,0.861111119910949,0.00277777787846293,-0.400000011459671,-0.296880513429642,0.352774679660797,-1.43400621414185
0,1.15277783190802,-0.101388894748172,-0.263888898643915,0.203112691640854,0.598647952079773,-0.102930791676045
0,1.11805563207438,-0.101388894748172,-0.368055571080613,-0.11087204515934,-0.171042263507843,-0.554054796695709
0,1.07222229717471,-0.033333335301303,-0.270833333748257,-0.0360410511493683,-0.36041048169136,-0.53969943523407
0,0.93750007624221,-0.0222222230277034,-0.266666682410424,-0.0751364231109619,-0.611781537532806,-0.890641510486603
0,0.93750007624221,-0.0666666706026059,-0.269444466176932,-0.0971275717020035,-0.861930847167969,-0.745255589485168
0,0.915277806110144,-0.0125000003581147,-0.301388906555989,-0.279165416955948,-1.26418566703796,-0.702800452709198
0,0.794444455386325,0.0694444482911319,-0.19166667874224,-0.343611687421799,-0.902553379535675,-0.55069500207901
0,0.794444455386325,0.0694444482911319,-0.19166667874224,0.00824668072164059,-0.694248378276825,-0.537256002426147
0,1.15694450755778,-0.0111111115138517,-0.502777792013115,0.149356558918953,-0.372627794742584,-0.499076902866364
0,1.11388895642462,0.0722222259796579,-0.584722267253534,0.0653625801205635,1.0134254693985,-0.0839939713478088
0,1.07500008094122,0.0847222225390337,-0.652777823661411,-0.0827722400426865,1.75868105888367,0.0442877300083637
0,0.841666730793107,0.0875000002275597,-0.611111115787646,-0.00183259579353034,4.51887559890747,-0.00397062394768
0,0.793055563503071,0.0416666683668809,-0.305555557893823,-0.087659165263176,1.90925931930542,-0.133474051952362
0,0.793055563503071,0.0416666683668809,-0.305555557893823,-0.087659165263176,1.90925931930542,-0.133474051952362
0,0.870833363093728,-0.00694444498106275,0.0722222259796579,-0.0424551330506802,0.885449171066284,-0.59315013885498
0,0.940277860008718,-0.0347222241455659,-0.0750000036681839,0.0360410511493683,0.587957799434662,-1.35795342922211
0,1.21111119375697,0.198611113846581,0.0222222230277034,0.0406225398182869,-0.434630632400513,-0.081855945289135
0,0.712500028769764,0.24583335278547,-0.118055554801345,-0.00824668072164059,-0.187841057777405,0.605978310108185
0,0.919444481759906,0.0902777839940679,-0.140277788465518,-0.0616973899304867,-0.0171042270958424,1.24769222736359
0,1.32222225267416,-0.0250000007162294,-0.206944452990142,0.00855211354792118,0.328340083360672,0.109344877302647
0,0.972222276075846,0.0680555564078778,-0.12916666555545,-0.0183259565383196,0.327729195356369,0.267558991909027
0,1.09305557817581,-0.029166668768514,-0.0833333367337618,-0.0235183127224445,-0.113315500319004,0.0907134860754013
0,1.09166668629255,0.0125000003581147,-0.198611113846581,0.0131336031481624,0.469449937343597,-0.0183259565383196
0,1.02916674604155,0.0125000003581147,-0.205555561106887,-0.0293215326964855,1.02533733844757,-0.0332921557128429
0,0.95000000594378,0.030555557612777,-0.13750000469901,-0.0937678143382072,1.78983521461487,0.00397062394768
0,0.729166682744956,0.0777777813567098,0.0652777787193518,-0.173180297017098,0.974635481834412,0.122783914208412
0,0.954166681593543,0.0500000014324589,0.03194444645704,0.136222943663597,-0.0241291765123606,0.504574716091156
0,0.976388951725609,0.029166668768514,-0.0138888899621255,0.144164204597473,-0.249843880534172,0.480140089988708
0,0.93750007624221,0.0944444474878658,-0.0458333348996699,-0.0149661982432008,-0.504880130290985,0.423024177551269
0,0.84583340644287,-0.033333335301303,-0.029166668768514,-0.0433714315295219,-0.68172562122345,-0.0968221426010132
0,1.08194444310977,0.0208333341834404,-0.13750000469901,0.00702495034784079,-0.266948103904724,0.76052725315094
0,1.08194444310977,0.0208333341834404,-0.13750000469901,-0.15332718193531,-0.0415388382971287,0.474642306566238
0,1.13750002119222,-0.0583333375370279,-0.0222222230277034,-0.0821613743901253,-0.237626582384109,0.528398454189301
0,0.89166674134254,-0.0347222241455659,-0.0847222225390337,-0.0418442711234093,-0.417526394128799,-0.0531452745199203
0,0.89166674134254,-0.0347222241455659,-0.0847222225390337,-0.0531452745199203,-0.187841057777405,-0.106901414692402
0,1.02777785415829,-0.0194444453391775,-0.130555557438704,-0.150883719325066,-0.0635299831628799,-0.536034226417542
0,1.25555563677339,0.00277777787846293,-0.163888889701015,-0.0849102661013603,0.355523586273193,-0.313679307699203
0,1.25555563677339,0.00277777787846293,-0.163888889701015,-0.0265726372599602,0.123394779860973,-0.251371055841446
0,1.14861115625826,-0.00833333382532574,-0.0777777813567098,0.000916297896765172,0.0305432621389627,-0.17470745742321
0,1.00416669214298,0.0250000007162294,-0.0625000010308258,-0.0280998013913631,0.0415388382971287,-0.108123145997524
0,1.00416669214298,0.0250000007162294,-0.0625000010308258,0.0192422550171614,0.0021380283869803,-0.0855211317539215
0,1.0305556379248,0.0222222230277034,-0.0916666697993398,0.0461203269660473,0.0149661982432008,-0.0794124826788902
0,1.04722224327614,0.0194444453391775,-0.0819444448505077,0.0693332031369209,0.160962998867035,-0.0934623852372169
0,1.06250005399193,0.0125000003581147,-0.101388894748172,-0.0161879286170006,0.480750948190689,-0.0748309940099716
0,1.06250005399193,0.0125000003581147,-0.101388894748172,0.081855945289135,0.778242349624634,-0.0204639863222837
0,1.11388895642462,0.0236111118719664,-0.027777779924251,0.22174409031868,0.679282128810883,0.0189368221908808
0,1.09583336194232,0.026388891079988,0.00277777787846293,0.222965821623802,0.468228220939636,0.0839939713478088
0,1.06388894587519,0.030555557612777,0.0152777788063885,0.304210901260376,-0.0390953756868839,0.0329867228865623
0,1.01527782720901,0.0180555564949145,-0.00277777787846293,0.000610865245107561,-1.33168625831604,0.148440256714821
0,0.85138887672817,0.00277777787846293,0.0805555590452358,-0.143247902393341,2.01371717453003,0.0161879286170006
0,1.11388895642462,0.0125000003581147,-0.0652777787193518,-0.189368233084679,-0.289550125598908,-0.00733038317412138
0,0.997222232726705,-0.00138888893923146,0.052777782159976,-0.0415388382971287,0.0659734457731247,-0.00885754637420177
0,1.04722224327614,0.0152777788063885,-0.0486111125881959,0.02382374368608,-0.22174409031868,-0.0314595587551594
0,0.973611167959101,0.00972222266958873,-0.0250000007162294,-0.135917514562607,-0.0781907513737679,-0.0616973899304867
0,1.00972225967599,0.030555557612777,-0.030555557612777,-0.076052725315094,-0.0592539273202419,0.00519235478714108
0,1.0513889189259,-0.0152777788063885,-0.0986111170596459,-0.120340451598167,0.299323976039886,0.0479529201984406
0,1.05000002704265,-0.00694444498106275,-0.0430555572111439,-0.0458148941397667,0.130725160241127,-0.0033597587607801
5,1.01388893532575,-0.00555555575692586,-0.0458333348996699,-0.101098194718361,0.0995710343122482,-0.0201585534960032
5,0.969444492309338,0.00277777787846293,-0.00416666691266287,-0.0714712366461754,-0.194866016507149,-0.0235183127224445
5,1.01111115155925,0.00833333382532574,-0.0375000018340919,-0.0390953756868839,-0.103236228227615,-0.011606439948082
5,1.05694448645892,0.00833333382532574,-0.0513888902767219,-0.00580321997404099,-0.0244346093386412,-0.0262672062963247
5,1.04166667574312,0.00138888893923146,-0.0347222241455659,-0.0290160998702049,-0.0167987942695618,-0.0207694191485643
5,1.0333333244436,0.0180555564949145,-0.00138888893923146,0.070249505341053,0.0464257597923279,0.00763581553474069
5,1.00833336779274,-0.0222222230277034,0.00277777787846293,0.0143553335219622,-0.257785141468048,-0.03176499158144
5,1.00555558402623,-0.033333335301303,-0.0708333340964038,0.0268780700862408,-0.00702495034784079,-0.027488935738802
5,1.02916674604155,-0.00972222266958873,-0.0638888929140799,0.0571159012615681,0.0613919571042061,-0.0021380283869803
5,1.01944450285877,0.00972222266958873,-0.03194444645704,0.0681114718317986,-0.027488935738802,0.0033597587607801
5,1.02500007039179,0.00972222266958873,-0.052777782159976,0.0125227374956012,0.00702495034784079,0.00183259579353034
5,1.02361117850853,-0.0125000003581147,0.0513888902767219,0.127365410327911,-0.363159388303757,-0.037568211555481
5,1.02361117850853,-0.0125000003581147,0.0513888902767219,0.241902634501457,-0.456927210092545,0.0256563406437635
5,1.04444445950963,0.029166668768514,-0.0652777787193518,0.218995183706284,-0.474031418561935,0.0772744566202164
5,1.04444445950963,0.029166668768514,-0.0652777787193518,0.128892570734024,-0.0488692186772823,0.0222965814173222
5,1.04444445950963,0.029166668768514,-0.0652777787193518,0.128892570734024,-0.0488692186772823,0.0222965814173222
5,1.01944450285877,0.00416666691266287,-0.0777777813567098,0.0684169083833694,-0.0842994004487991,-0.0192422550171614
5,1.05555559457566,0.0444444460554069,-0.13750000469901,-0.081855945289135,0.238542884588242,-0.0021380283869803
5,1.08194444310977,0.0458333348996699,-0.0666666706026059,-0.124921940267086,0.515570282936096,-0.0287106670439243
5,1.04166667574312,0.0138888899621255,-0.0416666683668809,0.0213802829384804,0.662788808345795,-0.0103847095742822
5,0.85138887672817,-0.0125000003581147,0.131944449321958,0.313984721899033,-0.0888808965682983,0.0180205255746841
5,0.99583334084345,0.0152777788063885,-0.029166668768514,0.0308486949652433,0.0592539273202419,0.0247400421649218
5,1.0361111082101,0.00694444498106275,-0.03194444645704,-0.0558941699564457,0.00977384392172098,-0.03176499158144
5,1.04027778385987,0.0361111129898289,-0.055555559848502,-0.0366519130766392,0.013744467869401,-0.0100792767480016
5,1.0125000434425,0.0166666676506515,-0.0388888906783549,-0.0473420582711697,0.0204639863222837,-0.0369573459029198
5,1.0305556379248,0.0166666676506515,-0.0611111152255539,-0.0855211317539215,0.162795588374138,-0.0323758572340012
5,1.0305556379248,0.0166666676506515,-0.0611111152255539,-0.0442877300083637,0.0510072484612465,0.00122173049021512
5,0.956944465360051,0.0361111129898289,-0.0708333340964038,0.0335975885391235,-0.0827722400426865,-0.0326812900602817
5,1.0513889189259,0.0250000007162294,-0.140277788465518,0.0580321997404099,-0.142026171088219,0.0803287774324417
5,1.07777786470773,0.0125000003581147,-0.0222222230277034,-0.115453533828259,0.00305432616733015,0.0800233483314514
5,1.07777786470773,0.0125000003581147,-0.0222222230277034,-0.0241291765123606,0.143858760595322,0.00580321997404099
5,1.00138890837647,-0.00416666691266287,0.00277777787846293,-0.195171445608139,0.311235845088959,-0.0745255574584007
5,0.983333411141879,-0.00416666691266287,-0.00555555575692586,-0.0516181141138077,-0.145691365003586,-0.0192422550171614
5,0.983333411141879,-0.00416666691266287,-0.00555555575692586,-0.0833831056952477,-0.0497855171561241,-0.0250454749912024
5,1.03750000009336,0.0180555564949145,-0.0416666683668809,0.00763581553474069,0.0445931628346443,-0.00916297826915979
5,1.03194452980806,0.033333335301303,-0.027777779924251,0.0302378293126821,0.00244346098043024,0.0204639863222837
5,1.03194452980806,0.033333335301303,-0.027777779924251,-0.101403631269932,-0.0620028227567673,0.0192422550171614
5,0.998611124609959,0.030555557612777,-0.0458333348996699,-0.195171445608139,-0.149661988019943,-0.0106901414692402
5,0.977777843608863,0.00416666691266287,0.0125000003581147,-0.0708603709936142,-0.406836241483688,0.0167987942695618
5,0.976388951725609,0.00555555575692586,0.00555555575692586,0.076052725315094,-0.495411723852158,0.0729983970522881
5,1.06111116210868,0.00277777787846293,-0.055555559848502,0.175623759627342,-0.226020142436027,0.0403171069920063
5,1.07222229717471,0.00277777787846293,-0.055555559848502,0.152716308832169,-0.13225232064724,-0.0140499006956816
5,1.04583335139288,0.00694444498106275,-0.0569444456537738,0.0708603709936142,-0.106290549039841,-0.0219911485910416
5,1.0361111082101,-0.00555555575692586,-0.0736111117849297,0.0711658000946045,-0.159130394458771,-0.00916297826915979
5,1.00833336779274,-0.0125000003581147,-0.0750000036681839,0.131336033344269,-0.168293371796608,0.0122173046693206
5,1.05972227022542,-0.0111111115138517,-0.106944444047242,0.218689754605293,0.117896988987923,0.0146607663482428
5,1.06388894587519,-0.00972222266958873,-0.104166672436698,0.294131606817245,0.224187538027763,0.00610865233466029
5,1.03888889197661,-0.00694444498106275,-0.0819444448505077,0.215024560689926,0.191811680793762,-0.00366519158706069
5,1.0125000434425,0.00277777787846293,-0.0666666706026059,0.111788339912891,0.0714712366461754,-0.00885754637420177
5,1.01527782720901,0.0166666676506515,-0.0583333375370279,0.120340451598167,0.00824668072164059,0.0284052342176437
5,1.04166667574312,0.00972222266958873,-0.0708333340964038,0.00946841109544039,0.156381502747536,-0.00610865233466029
5,1.0333333244436,0.0125000003581147,-0.0680555564078778,0.0198531206697226,0.160352125763893,-0.0143553335219622
5,1.00972225967599,0.0361111129898289,-0.0722222259796579,0.104763388633728,0.168293371796608,0.0733038261532784
5,1.04861113515939,0.0361111129898289,-0.0847222225390337,-0.0109955742955208,0.100792765617371,0.00305432616733015
5,1.00000001649321,0.03194444645704,-0.0513888902767219,-0.0467311926186085,-0.00641408516094089,0.0045814891345799
5,1.00972225967599,0.0222222230277034,-0.0680555564078778,-0.0717766657471657,-0.0290160998702049,0.0146607663482428
5,1.03472221632685,0.00694444498106275,-0.0722222259796579,-0.0739146918058395,0.0421497002243996,0.00305432616733015
5,1.02777785415829,0.0111111115138517,-0.0541666679652478,-0.0711658000946045,0.0167987942695618,0.00244346098043024
5,1.02083339474202,0.00694444498106275,-0.0513888902767219,-0.0726929605007172,0.000610865245107561,0.0027488935738802
5,1.01944450285877,0.00833333382532574,-0.0583333375370279,-0.0696386396884918,-0.00855211354792118,0.00916297826915979
5,1.01527782720901,0.00555555575692586,-0.0458333348996699,-0.0537561401724815,-0.0235183127224445,0.00519235478714108
5,1.02500007039179,0.00555555575692586,-0.0569444456537738,-0.0329867228865623,-0.0149661982432008,0.0125227374956012
5,1.0305556379248,0.00555555575692586,-0.0694444482911319,-0.0213802829384804,0.000305432622553781,0.00763581553474069
5,1.02638896227504,0.00138888893923146,-0.0680555564078778,-0.0229074470698834,-0.00366519158706069,0.00916297826915979
5,1.02361117850853,0.00555555575692586,-0.0722222259796579,-0.0109955742955208,-0.0201585534960032,0.0143553335219622
5,1.02638896227504,0.00555555575692586,-0.0680555564078778,-0.00977384392172098,-0.0134390350431204,0.0106901414692402
5,1.0305556379248,0.00694444498106275,-0.0652777787193518,-0.0113010071218014,-0.00641408516094089,0.00733038317412138
5,1.02222228662528,0.00972222266958873,-0.0777777813567098,-0.011606439948082,-0.0128281703218818,0.00244346098043024
5,1.01666671909226,0.00694444498106275,-0.0583333375370279,-0.0186313893646002,-0.015577063895762,-0.00183259579353034
5,1.02083339474202,0.00694444498106275,-0.0652777787193518,-0.0143553335219622,-0.0256563406437635,0.01191187184304
5,1.02222228662528,0.00277777787846293,-0.0625000010308258,-0.0259617734700441,-0.0213802829384804,0.00946841109544039
5,1.02500007039179,0.00555555575692586,-0.0722222259796579,-0.029626963660121,-0.0253509078174829,0.00733038317412138
5,1.02361117850853,0.00694444498106275,-0.0694444482911319,-0.0241291765123606,-0.0403171069920063,0.00794124789535999
5,1.02083339474202,0.00277777787846293,-0.0569444456537738,-0.0207694191485643,-0.0369573459029198,0.0143553335219622
5,1.02222228662528,0.00277777787846293,-0.0500000014324589,0.00244346098043024,-0.05283984541893,0.0161879286170006
5,1.02222228662528,0.00277777787846293,-0.0500000014324589,0.0210748501121998,-0.0488692186772823,0.01588249579072
5,1.02500007039179,-0.00833333382532574,-0.0583333375370279,0.0293215326964855,-0.0488692186772823,0.0219911485910416
5,1.01944450285877,-0.00833333382532574,-0.0583333375370279,0.0394008085131645,-0.0549778714776039,0.0192422550171614
5,1.01944450285877,-0.00833333382532574,-0.0583333375370279,0.0549778714776039,-0.0589484944939613,0.0222965814173222
5,1.01944450285877,0.00972222266958873,-0.0638888929140799,0.0616973899304867,-0.0540615729987621,0.0314595587551594
5,1.02222228662528,0.00972222266958873,-0.0652777787193518,0.0647517144680023,-0.0543670058250427,0.0314595587551594
5,1.02222228662528,0.00972222266958873,-0.0652777787193518,0.0635299831628799,-0.0415388382971287,0.0265726372599602
5,1.02638896227504,0.0111111115138517,-0.0736111117849297,0.0558941699564457,-0.0473420582711697,0.0235183127224445
5,1.03194452980806,0.00833333382532574,-0.0680555564078778,0.0372627787292004,-0.0595593601465225,0.0149661982432008
5,1.02500007039179,0.00972222266958873,-0.0763888894734557,0.0360410511493683,-0.0604756586253643,0.017409659922123
5,1.0305556379248,0.00694444498106275,-0.0611111152255539,0.0415388382971287,-0.070249505341053,0.0280998013913631
5,1.02916674604155,0.00277777787846293,-0.0680555564078778,0.0448985956609249,-0.0690277740359306,0.0189368221908808
5,1.02361117850853,0.00277777787846293,-0.0722222259796579,0.0439822971820831,-0.0678060427308083,0.0339030213654041
5,1.01388893532575,-0.00138888893923146,-0.0652777787193518,0.0552833043038845,-0.0729983970522881,0.0387899428606033
5,1.03194452980806,-0.030555557612777,-0.0569444456537738,0.0931569486856461,-0.0543670058250427,0.0183259565383196
5,1.04861113515939,-0.0388888906783549,-0.0680555564078778,0.0913243517279625,-0.00397062394768,-0.000305432622553781
5,1.01944450285877,0.00277777787846293,-0.0847222225390337,0.0519235469400883,-0.0219911485910416,0.0152716310694814
5,1.00833336779274,0.0416666683668809,-0.0847222225390337,-0.0250454749912024,-0.0574213340878487,0.0284052342176437
5,1.00555558402623,0.0541666679652478,-0.0861111144222878,-0.0717766657471657,-0.0800233483314514,0.0323758572340012
5,1.02500007039179,0.0541666679652478,-0.0888888921108138,-0.119424156844616,-0.0445931628346443,0.0152716310694814
5,1.03194452980806,0.0388888906783549,-0.0944444474878658,-0.162795588374138,-0.0372627787292004,0.00733038317412138
5,1.0305556379248,0.0250000007162294,-0.0930555616825939,-0.184481307864189,-0.0360410511493683,-0.00671951752156019
5,1.02638896227504,0.0138888899621255,-0.0986111170596459,-0.197004035115242,-0.0500909499824047,-0.000610865245107561
5,1.02222228662528,0.00972222266958873,-0.0847222225390337,-0.200058370828629,-0.05283984541893,0.00824668072164059
5,1.02222228662528,0.00416666691266287,-0.0958333393711199,-0.186313897371292,-0.0580321997404099,0.00305432616733015
5,1.02777785415829,-0.00416666691266287,-0.0847222225390337,-0.176234617829323,-0.037568211555481,0.00549778714776039
5,1.02916674604155,-0.00833333382532574,-0.0930555616825939,-0.153021737933159,-0.00885754637420177,-0.00122173049021512
5,1.03194452980806,-0.0138888899621255,-0.0944444474878658,-0.122783914208412,-0.011606439948082,-0.00122173049021512
5,1.02916674604155,-0.0194444453391775,-0.0916666697993398,-0.102625362575054,0.00855211354792118,-0.00885754637420177
5,1.02638896227504,-0.0194444453391775,-0.0875000002275597,-0.0803287774324417,0.00733038317412138,-0.00794124789535999
5,1.01666671909226,-0.0208333341834404,-0.0847222225390337,-0.0461203269660473,-0.00122173049021512,-0.0027488935738802
5,1.02083339474202,-0.0208333341834404,-0.0805555590452358,-0.0161879286170006,-0.0131336031481624,0.00763581553474069
5,1.02222228662528,-0.0208333341834404,-0.0847222225390337,-0.00885754637420177,0.00305432616733015,0.00580321997404099
5,1.03194452980806,-0.0166666676506515,-0.0916666697993398,0.00122173049021512,0.00671951752156019,-0.00824668072164059
5,1.03888889197661,-0.0180555564949145,-0.0972222251763917,0.01191187184304,0.0262672062963247,-0.00671951752156019
5,1.03472221632685,-0.0250000007162294,-0.106944444047242,0.0277943685650826,0.02382374368608,-0.00702495034784079
5,1.02500007039179,-0.0194444453391775,-0.116666675074056,0.0497855171561241,0.0204639863222837,-0.00885754637420177
5,1.02916674604155,-0.0194444453391775,-0.104166672436698,0.0729983970522881,0.0305432621389627,-0.000305432622553781
5,1.03194452980806,-0.0194444453391775,-0.101388894748172,0.087659165263176,0.0668897479772568,-0.0122173046693206
5,1.03194452980806,-0.0152777788063885,-0.108333335930496,0.102014496922493,0.0742201283574104,-0.00366519158706069
5,1.01805561097552,-0.00972222266958873,-0.102777780553444,0.10598511993885,0.0589484944939613,-0.0253509078174829
5,1.01944450285877,-0.00972222266958873,-0.0930555616825939,0.113926365971565,0.0485637858510017,-0.0131336031481624
5,1.02222228662528,-0.00972222266958873,-0.101388894748172,0.108428582549095,0.0510072484612465,-0.0106901414692402
5,1.01944450285877,0.0111111115138517,-0.101388894748172,0.10048733651638,0.03176499158144,-0.0146607663482428
5,1.01527782720901,0.0125000003581147,-0.0944444474878658,0.0934623852372169,0.00244346098043024,-0.00977384392172098
5,1.02222228662528,0.0152777788063885,-0.0986111170596459,0.0861319974064827,-0.00824668072164059,-0.00397062394768
5,1.02222228662528,0.00555555575692586,-0.0875000002275597,0.0809396430850029,-0.0226020142436027,-0.00366519158706069
5,1.01944450285877,0.00416666691266287,-0.0944444474878658,0.0879645943641663,-0.0213802829384804,0.00183259579353034
5,1.01805561097552,-0.00138888893923146,-0.0847222225390337,0.087659165263176,-0.01588249579072,0.00671951752156019
5,1.02638896227504,-0.00277777787846293,-0.0916666697993398,0.0885754600167274,-0.00610865233466029,0.00488692196086049
5,1.02638896227504,-0.00277777787846293,-0.0916666697993398,0.0858265683054924,-0.000610865245107561,0.00702495034784079
5,1.02500007039179,-0.00138888893923146,-0.0861111144222878,0.0824668109416962,-0.00702495034784079,0.0021380283869803
5,1.02500007039179,-0.00138888893923146,-0.0861111144222878,0.0693332031369209,0.00366519158706069,0.0222965814173222
5,1.02500007039179,-0.0111111115138517,-0.0805555590452358,0.0800233483314514,-0.0320704244077206,0.00763581553474069
5,1.03888889197661,-0.00972222266958873,-0.0902777839940679,0.0873537287116051,-0.00702495034784079,-0.000305432622553781
5,1.02638896227504,-0.00972222266958873,-0.0861111144222878,0.0800233483314514,0.00397062394768,0.00794124789535999
5,1.02638896227504,-0.00972222266958873,-0.0861111144222878,0.0665843114256859,-0.0177150927484035,0.0033597587607801
5,1.02222228662528,0.00555555575692586,-0.0861111144222878,0.0458148941397667,-0.019547687843442,-0.00152716308366507
5,1.01666671909226,0.0125000003581147,-0.0916666697993398,0.0314595587551594,-0.0247400421649218,0.0045814891345799
5,1.0333333244436,0.0138888899621255,-0.0875000002275597,0.00916297826915979,0.0201585534960032,-0.0103847095742822
5,1.02916674604155,0.0194444453391775,-0.0972222251763917,-0.00152716308366507,0.0027488935738802,0.00702495034784079
5,1.02500007039179,0.0152777788063885,-0.104166672436698,-0.0229074470698834,0.0192422550171614,0.00885754637420177
5,1.03194452980806,0.00972222266958873,-0.102777780553444,-0.02382374368608,0.0244346093386412,0.000916297896765172
5,1.02916674604155,0.00694444498106275,-0.0958333393711199,-0.0219911485910416,0.0366519130766392,-0.000916297896765172
5,1.02638896227504,0.00694444498106275,-0.0986111170596459,-0.021685715764761,0.0372627787292004,-0.00885754637420177
5,1.01944450285877,0.00694444498106275,-0.0958333393711199,-0.021685715764761,0.0335975885391235,-0.00641408516094089
5,1.02222228662528,0.00694444498106275,-0.0750000036681839,-0.013744467869401,0.0369573459029198,-0.0235183127224445
5,1.02500007039179,0.00694444498106275,-0.0777777813567098,0.00152716308366507,0.0305432621389627,-0.00885754637420177
5,1.02361117850853,0.00694444498106275,-0.0680555564078778,0.0113010071218014,0.0171042270958424,-0.00855211354792118
5,1.02083339474202,-0.00138888893923146,-0.0680555564078778,0.0241291765123606,0.00824668072164059,-0.00122173049021512
5,1.01944450285877,-0.00416666691266287,-0.0652777787193518,0.0335975885391235,0.00366519158706069,-0.0146607663482428
5,1.02222228662528,-0.00138888893923146,-0.0638888929140799,0.0360410511493683,-0.00916297826915979,0.00122173049021512
5,1.02500007039179,-0.00138888893923146,-0.0750000036681839,0.0326812900602817,0.0125227374956012,-0.00671951752156019
5,1.02638896227504,-0.00138888893923146,-0.0722222259796579,0.0311541277915239,0.00733038317412138,-0.0131336031481624
5,1.0305556379248,0.0125000003581147,-0.0625000010308258,0.0201585534960032,0.0186313893646002,-0.000916297896765172
5,1.02916674604155,0.0125000003581147,-0.0652777787193518,0.00977384392172098,0.0103847095742822,-0.00916297826915979
5,1.02638896227504,0.00277777787846293,-0.0652777787193518,0.0106901414692402,0.0232128798961639,-0.00671951752156019
5,1.02500007039179,0.00277777787846293,-0.0652777787193518,0.00549778714776039,0.0259617734700441,-0.0021380283869803
5,1.02361117850853,0.00555555575692586,-0.0680555564078778,0.00733038317412138,0.0219911485910416,-0.00305432616733015
5,1.02361117850853,0.00694444498106275,-0.0680555564078778,0.00824668072164059,0.0183259565383196,-0.000916297896765172
5,1.02361117850853,0.00277777787846293,-0.0722222259796579,0.0146607663482428,0.00885754637420177,0.000305432622553781
5,1.02500007039179,-0.00138888893923146,-0.0666666706026059,0.013744467869401,0.0109955742955208,-0.00641408516094089
5,1.02500007039179,0.00694444498106275,-0.0708333340964038,0.00733038317412138,0.0113010071218014,0.000610865245107561
5,1.02638896227504,0.00833333382532574,-0.0777777813567098,0.00610865233466029,0.0143553335219622,-0.00855211354792118
5,1.02361117850853,0.00555555575692586,-0.0750000036681839,-0.00366519158706069,0.00794124789535999,0.000305432622553781
5,1.01805561097552,-0.00138888893923146,-0.0694444482911319,0.00305432616733015,0.0189368221908808,0.00397062394768
5,1.02222228662528,-0.00138888893923146,-0.0805555590452358,0.00671951752156019,0.0109955742955208,0.00366519158706069
5,1.01944450285877,-0.00416666691266287,-0.0736111117849297,0.0146607663482428,0.00427605677396059,0.00366519158706069
5,1.02222228662528,-0.00555555575692586,-0.0708333340964038,0.0198531206697226,0.00580321997404099,0.00580321997404099
5,1.02361117850853,-0.00555555575692586,-0.0722222259796579,0.0400116741657257,0.00794124789535999,-0.000916297896765172
5,1.02222228662528,-0.00555555575692586,-0.0736111117849297,0.0372627787292004,0.00305432616733015,-0.00580321997404099
5,1.0125000434425,0.00416666691266287,-0.0680555564078778,0.0198531206697226,-0.0134390350431204,-0.01588249579072
5,1.02222228662528,0.0166666676506515,-0.0708333340964038,0.0198531206697226,-0.0345138870179653,0.00183259579353034
5,1.03888889197661,0.027777779924251,-0.0777777813567098,0.000610865245107561,-0.0021380283869803,0.000305432622553781
5,1.0305556379248,0.027777779924251,-0.0944444474878658,-0.0106901414692402,-0.015577063895762,-0.00397062394768
5,1.01805561097552,0.00416666691266287,-0.0722222259796579,-0.00641408516094089,-0.0348193198442459,0.0177150927484035
5,1.02500007039179,-0.00416666691266287,-0.0777777813567098,0.0122173046693206,-0.0290160998702049,0.015577063895762
5,1.02916674604155,-0.00555555575692586,-0.0847222225390337,0.0363464802503586,-0.00366519158706069,0.00671951752156019
5,1.02500007039179,-0.00138888893923146,-0.0805555590452358,0.0448985956609249,-0.00824668072164059,0.0045814891345799
5,1.01666671909226,-0.00138888893923146,-0.0819444448505077,0.0354301854968071,-0.0204639863222837,0.0103847095742822
5,1.01805561097552,0.00277777787846293,-0.0750000036681839,0.0421497002243996,-0.0394008085131645,0.0229074470698834
5,1.01944450285877,0.00277777787846293,-0.0916666697993398,0.0458148941397667,-0.0445931628346443,0.0128281703218818
5,1.02777785415829,0.00277777787846293,-0.0777777813567098,0.0525344125926495,-0.0308486949652433,0.0171042270958424
5,1.02500007039179,0.00138888893923146,-0.0847222225390337,0.0470366254448891,-0.0265726372599602,0.0103847095742822
5,1.02222228662528,0.00555555575692586,-0.0777777813567098,0.0400116741657257,-0.0406225398182869,0.0152716310694814
5,1.02500007039179,0.00555555575692586,-0.0819444448505077,0.0305432621389627,-0.0479529201984406,0.0226020142436027
5,1.02638896227504,0.00833333382532574,-0.0847222225390337,0.0247400421649218,-0.0400116741657257,0.0109955742955208
5,1.02500007039179,0.00833333382532574,-0.0861111144222878,0.0164933614432812,-0.0335975885391235,0.0183259565383196
5,1.02361117850853,-0.00277777787846293,-0.0847222225390337,0.0201585534960032,-0.0265726372599602,0.0149661982432008
5,1.02222228662528,0.00416666691266287,-0.0791666671619817,0.0125227374956012,-0.0271835029125214,0.0167987942695618
5,1.02361117850853,0.00138888893923146,-0.0750000036681839,0.00916297826915979,-0.0326812900602817,0.0164933614432812
5,1.01666671909226,0.00416666691266287,-0.0722222259796579,0.00702495034784079,-0.0335975885391235,0.0207694191485643
5,1.01944450285877,0.00277777787846293,-0.0888888921108138,-0.0122173046693206,-0.0302378293126821,0.0222965814173222
5,1.02500007039179,0.00138888893923146,-0.0847222225390337,-0.01588249579072,-0.0329867228865623,0.0134390350431204
5,1.02916674604155,-0.00555555575692586,-0.0972222251763917,-0.0268780700862408,-0.021685715764761,0.00519235478714108
5,1.02500007039179,-0.00555555575692586,-0.0902777839940679,-0.0253509078174829,0.00549778714776039,-0.00244346098043024
5,1.02361117850853,-0.00555555575692586,-0.0916666697993398,-0.0235183127224445,-0.0021380283869803,0.00122173049021512
5,1.02500007039179,-0.00277777787846293,-0.0875000002275597,-0.0335975885391235,0.000305432622553781,0.00763581553474069
5,1.02777785415829,-0.00277777787846293,-0.0861111144222878,-0.0277943685650826,0.0146607663482428,0.00733038317412138
5,1.01944450285877,0.00694444498106275,-0.0680555564078778,-0.0427605658769607,0.0106901414692402,0.00305432616733015
5,1.01944450285877,0.00694444498106275,-0.0805555590452358,-0.0458148941397667,0.00702495034784079,0.000610865245107561
5,1.02500007039179,0.00694444498106275,-0.0777777813567098,-0.0488692186772823,0.0027488935738802,0.00702495034784079
5,1.02361117850853,-0.00277777787846293,-0.0805555590452358,-0.0381790772080422,-0.0021380283869803,0.01191187184304
5,1.02361117850853,-0.00694444498106275,-0.0847222225390337,-0.0430659987032413,-0.00488692196086049,0.00763581553474069
5,1.02777785415829,-0.00277777787846293,-0.0861111144222878,-0.0351247526705265,-0.00397062394768,0.0027488935738802
5,1.02777785415829,-0.00277777787846293,-0.0861111144222878,-0.0326812900602817,-0.00610865233466029,0.00946841109544039
5,1.02777785415829,-0.00277777787846293,-0.0861111144222878,-0.0326812900602817,-0.00610865233466029,0.00946841109544039
5,1.02222228662528,-0.00972222266958873,-0.0875000002275597,-0.0277943685650826,0.01588249579072,0.00305432616733015
5,1.02500007039179,-0.00972222266958873,-0.0875000002275597,-0.0180205255746841,0.00397062394768,0.00152716308366507
5,1.02222228662528,-0.00972222266958873,-0.0916666697993398,-0.00519235478714108,-0.00488692196086049,0.011606439948082
5,1.02222228662528,-0.00555555575692586,-0.0930555616825939,0.000916297896765172,-0.0045814891345799,0.0128281703218818
5,1.02222228662528,-0.00972222266958873,-0.0944444474878658,0.00122173049021512,-0.0134390350431204,0.0143553335219622
5,1.02083339474202,-0.00972222266958873,-0.0944444474878658,0.00733038317412138,-0.015577063895762,0.0183259565383196
5,1.02222228662528,-0.00694444498106275,-0.0958333393711199,0.00610865233466029,-0.00671951752156019,0.0109955742955208
5,1.01944450285877,-0.00833333382532574,-0.0944444474878658,0.00977384392172098,-0.0167987942695618,0.0100792767480016
5,1.02361117850853,-0.00555555575692586,-0.0958333393711199,0.0106901414692402,-0.0235183127224445,0.0045814891345799
5,1.02222228662528,-0.00277777787846293,-0.0916666697993398,0.0167987942695618,-0.0268780700862408,0.0149661982432008
5,1.01944450285877,-0.00138888893923146,-0.0986111170596459,0.015577063895762,-0.0259617734700441,0.0171042270958424
5,1.01944450285877,-0.00972222266958873,-0.0861111144222878,0.0229074470698834,-0.0320704244077206,0.0134390350431204
5,1.02083339474202,-0.00833333382532574,-0.0958333393711199,0.0103847095742822,-0.0332921557128429,0.017409659922123
5,1.02361117850853,-0.00694444498106275,-0.108333335930496,0.00549778714776039,-0.0219911485910416,0.00671951752156019
5,1.02500007039179,-0.00694444498106275,-0.10972222781375,0.00549778714776039,-0.0109955742955208,0.00641408516094089
5,1.02500007039179,-0.00694444498106275,-0.10972222781375,0.0109955742955208,-0.0100792767480016,0.00671951752156019
5,1.02222228662528,-0.00555555575692586,-0.104166672436698,0.00671951752156019,-0.0210748501121998,0.00366519158706069
5,1.02361117850853,-0.00555555575692586,-0.101388894748172,0.00519235478714108,-0.0149661982432008,0.00519235478714108
5,1.01944450285877,-0.00555555575692586,-0.102777780553444,0.0125227374956012,-0.021685715764761,0.00794124789535999
5,1.01805561097552,-0.00277777787846293,-0.0916666697993398,0.000305432622553781,-0.0369573459029198,0.0103847095742822
5,1.01944450285877,0.00138888893923146,-0.0944444474878658,0.0033597587607801,-0.0323758572340012,0.0131336031481624
5,1.02083339474202,0.00138888893923146,-0.0875000002275597,0.00366519158706069,-0.0305432621389627,0.01588249579072
5,1.01666671909226,-0.00277777787846293,-0.100000002864918,0.00152716308366507,-0.0519235469400883,0.02382374368608
5,1.01944450285877,-0.00138888893923146,-0.100000002864918,0.0164933614432812,-0.0522289797663689,0.0250454749912024
5,1.02222228662528,-0.00277777787846293,-0.104166672436698,0.0210748501121998,-0.0351247526705265,0.0219911485910416
5,1.0305556379248,-0.0111111115138517,-0.108333335930496,0.0171042270958424,-0.0305432621389627,0.013744467869401
5,1.0305556379248,-0.00555555575692586,-0.113888891307548,0.021685715764761,-0.0226020142436027,0.0131336031481624
5,1.02638896227504,-0.00972222266958873,-0.111111119697004,0.0140499006956816,-0.0122173046693206,-0.00305432616733015
5,1.02500007039179,-0.0111111115138517,-0.10972222781375,0.0131336031481624,-0.00549778714776039,0.00244346098043024
5,1.02500007039179,-0.0125000003581147,-0.112499999424294,0.00824668072164059,0.00244346098043024,0.00122173049021512
5,1.02500007039179,-0.00833333382532574,-0.111111119697004,-0.0027488935738802,-0.00549778714776039,0.000305432622553781
5,1.01944450285877,-0.00138888893923146,-0.113888891307548,-0.0128281703218818,-0.00824668072164059,-0.0106901414692402
5,1.02361117850853,-0.00694444498106275,-0.118055554801345,-0.0177150927484035,-0.00794124789535999,-0.0027488935738802
5,1.02500007039179,-0.00833333382532574,-0.106944444047242,-0.0131336031481624,0.0100792767480016,-0.00610865233466029
5,1.02222228662528,-0.00833333382532574,-0.102777780553444,-0.013744467869401,0.00641408516094089,0.00610865233466029
5,1.02222228662528,-0.0111111115138517,-0.0972222251763917,-0.0134390350431204,0.00244346098043024,-0.000916297896765172
5,1.02638896227504,-0.0194444453391775,-0.104166672436698,-0.00183259579353034,0.00397062394768,-0.00244346098043024
5,1.02500007039179,-0.0125000003581147,-0.111111119697004,0.0100792767480016,0.01588249579072,-0.0103847095742822
5,1.02222228662528,-0.0125000003581147,-0.0958333393711199,0.0131336031481624,0.0134390350431204,-0.0045814891345799
5,1.02361117850853,-0.0166666676506515,-0.105555564319952,0.0213802829384804,0.0146607663482428,-0.00824668072164059
5,1.02500007039179,-0.0166666676506515,-0.112499999424294,0.0186313893646002,0.02382374368608,-0.01191187184304
5,1.02916674604155,-0.00972222266958873,-0.108333335930496,0.0204639863222837,0.0253509078174829,-0.00794124789535999
5,1.02361117850853,-0.00277777787846293,-0.106944444047242,0.0183259565383196,0.0332921557128429,-0.0033597587607801
5,1.01666671909226,-0.00694444498106275,-0.108333335930496,0.021685715764761,0.0259617734700441,-0.00763581553474069
5,1.02083339474202,-0.00694444498106275,-0.105555564319952,0.0152716310694814,0.027488935738802,-0.0100792767480016
5,1.02500007039179,-0.00694444498106275,-0.102777780553444,0.00794124789535999,0.0284052342176437,0.000916297896765172
5,1.02500007039179,-0.00416666691266287,-0.101388894748172,0.0103847095742822,0.0256563406437635,-0.00427605677396059
5,1.02222228662528,-0.00555555575692586,-0.101388894748172,0.00610865233466029,0.0268780700862408,-0.000305432622553781
5,1.02361117850853,-0.00138888893923146,-0.0916666697993398,0.0109955742955208,0.0152716310694814,-0.00549778714776039
5,1.02083339474202,-0.00277777787846293,-0.0944444474878658,0.0109955742955208,0.0171042270958424,-0.00488692196086049
5,1.02500007039179,-0.00694444498106275,-0.0972222251763917,0.013744467869401,0.0167987942695618,-0.00427605677396059
5,1.02638896227504,-0.00277777787846293,-0.0986111170596459,0.0134390350431204,0.0299323964864016,-0.00580321997404099
5,1.02638896227504,-0.00277777787846293,-0.101388894748172,0.0131336031481624,0.0250454749912024,-0.0149661982432008
5,1.02638896227504,-0.00277777787846293,-0.101388894748172,0.0027488935738802,0.0287106670439243,-0.00885754637420177
5,1.01944450285877,-0.00277777787846293,-0.101388894748172,0.0045814891345799,0.0204639863222837,-0.00580321997404099
5,1.01666671909226,-0.00277777787846293,-0.101388894748172,-0.00549778714776039,0.0177150927484035,-0.0109955742955208
5,1.01666671909226,-0.00277777787846293,-0.101388894748172,0.017409659922123,0.0113010071218014,-0.0021380283869803
5,1.02361117850853,-0.00833333382532574,-0.0972222251763917,0.01588249579072,0.0256563406437635,-0.000610865245107561
5,1.02500007039179,-0.00694444498106275,-0.104166672436698,0.0189368221908808,0.021685715764761,-0.00733038317412138
5,1.02500007039179,-0.00694444498106275,-0.104166672436698,0.0122173046693206,0.0342084541916847,-0.00641408516094089
5,1.02916674604155,-0.00972222266958873,-0.108333335930496,0.0128281703218818,0.0280998013913631,-0.00733038317412138
5,1.01944450285877,-0.00277777787846293,-0.0861111144222878,0.0149661982432008,0.0143553335219622,-0.00916297826915979
5,1.01944450285877,-0.00277777787846293,-0.0861111144222878,0.0152716310694814,0.0106901414692402,-0.00916297826915979
5,1.02083339474202,-0.00416666691266287,-0.0930555616825939,0.0143553335219622,0.00733038317412138,-0.00244346098043024
5,1.02083339474202,-0.00416666691266287,-0.0930555616825939,0.0109955742955208,0.00794124789535999,-0.00549778714776039
5,1.02083339474202,-0.00416666691266287,-0.0930555616825939,0.011606439948082,0.00946841109544039,-0.0021380283869803
5,1.02083339474202,-0.0125000003581147,-0.0861111144222878,0.0143553335219622,0.0100792767480016,0.0045814891345799
5,1.02222228662528,-0.0125000003581147,-0.0833333367337618,0.0180205255746841,0.00641408516094089,0.00855211354792118
5,1.02222228662528,-0.00972222266958873,-0.0819444448505077,0.00763581553474069,0.00366519158706069,0.00183259579353034
5,1.02638896227504,-0.00138888893923146,-0.0888888921108138,0.0021380283869803,0.00488692196086049,-0.00397062394768
5,1.02361117850853,-0.00277777787846293,-0.100000002864918,0.00946841109544039,-0.00305432616733015,0.00977384392172098
5,1.02500007039179,-0.00833333382532574,-0.0902777839940679,0.000610865245107561,0.00305432616733015,0.00244346098043024
5,1.02916674604155,-0.00555555575692586,-0.0819444448505077,0.00610865233466029,0.00427605677396059,0.00152716308366507
5,1.02500007039179,-0.0111111115138517,-0.0819444448505077,0.00488692196086049,0.00519235478714108,-0.00152716308366507
5,1.02361117850853,-0.00972222266958873,-0.0875000002275597,0.00671951752156019,0.0033597587607801,-0.00183259579353034
5,1.02083339474202,-0.00416666691266287,-0.0847222225390337,0.0134390350431204,-0.00305432616733015,-0.000305432622553781
5,1.02222228662528,-0.00555555575692586,-0.0819444448505077,0.0125227374956012,-0.00122173049021512,0.00305432616733015
5,1.02500007039179,-0.00555555575692586,-0.0833333367337618,0.011606439948082,-0.00244346098043024,0.0027488935738802
5,1.02222228662528,-0.00138888893923146,-0.0819444448505077,0.01588249579072,-0.00397062394768,0.0103847095742822
5,1.02222228662528,-0.00138888893923146,-0.0847222225390337,0.01191187184304,-0.00152716308366507,0.0106901414692402
5,1.02361117850853,0.00277777787846293,-0.0875000002275597,0.011606439948082,-0.0027488935738802,0.00519235478714108
5,1.02638896227504,0.00555555575692586,-0.0847222225390337,0.00702495034784079,-0.00702495034784079,0.0045814891345799
5,1.02638896227504,-0.00555555575692586,-0.0958333393711199,0.00641408516094089,-0.00427605677396059,0.00183259579353034
5,1.02222228662528,-0.0125000003581147,-0.0888888921108138,0.00885754637420177,0.0033597587607801,0.00519235478714108
5,1.02638896227504,-0.00555555575692586,-0.0916666697993398,0.00946841109544039,0.00244346098043024,0.0109955742955208
5,1.02916674604155,-0.00694444498106275,-0.0861111144222878,0.0128281703218818,-0.00488692196086049,0.0045814891345799
5,1.02222228662528,-0.00277777787846293,-0.0875000002275597,0.00610865233466029,-0.00427605677396059,-0.0021380283869803
5,1.02361117850853,-0.00416666691266287,-0.0958333393711199,0.000305432622553781,-0.00519235478714108,0.00244346098043024
5,1.02222228662528,-0.00694444498106275,-0.0958333393711199,0.00671951752156019,-0.00610865233466029,0.0033597587607801
5,1.02500007039179,-0.00972222266958873,-0.0944444474878658,0.00733038317412138,-0.000916297896765172,0.00366519158706069
5,1.02083339474202,-0.00972222266958873,-0.0888888921108138,0.0021380283869803,-0.00580321997404099,-0.00733038317412138
5,1.02222228662528,-0.00972222266958873,-0.100000002864918,0.0103847095742822,0.00122173049021512,-0.00733038317412138
5,1.02500007039179,0.00277777787846293,-0.0958333393711199,-0.0027488935738802,-0.00763581553474069,-0.00366519158706069
5,1.02638896227504,-0.00277777787846293,-0.0944444474878658,-0.0027488935738802,0.000916297896765172,-0.00702495034784079
5,1.02500007039179,-0.00555555575692586,-0.0833333367337618,0.000610865245107561,-0.00641408516094089,0.000610865245107561
5,1.02222228662528,-0.00416666691266287,-0.0986111170596459,0.00885754637420177,-0.00366519158706069,0.00610865233466029
5,1.02638896227504,0.00277777787846293,-0.0944444474878658,0.00397062394768,0.00641408516094089,0.00488692196086049
5,1.02500007039179,-0.00277777787846293,-0.0972222251763917,0.00122173049021512,0.0045814891345799,-0.00305432616733015
5,1.02361117850853,-0.00555555575692586,-0.0930555616825939,0.000610865245107561,-0.0103847095742822,0.000305432622553781
5,1.02638896227504,-0.00694444498106275,-0.0958333393711199,0.00366519158706069,-0.00580321997404099,0.000305432622553781
5,1.0305556379248,-0.00972222266958873,-0.0944444474878658,0.00671951752156019,-0.00152716308366507,-0.0021380283869803
5,1.02777785415829,-0.00833333382532574,-0.0958333393711199,0.00702495034784079,0.000610865245107561,0.00152716308366507
5,1.02500007039179,-0.00972222266958873,-0.0944444474878658,0.0033597587607801,0.000305432622553781,0.00305432616733015
5,1.02500007039179,-0.00277777787846293,-0.0958333393711199,0.00488692196086049,-0.000916297896765172,-0.00183259579353034
5,1.02500007039179,-0.00416666691266287,-0.0986111170596459,0.0021380283869803,-0.00671951752156019,-0.000916297896765172
5,1.02638896227504,-0.00555555575692586,-0.0958333393711199,0.00855211354792118,-0.000305432622553781,-0.000305432622553781
5,1.02500007039179,-0.00555555575692586,-0.0916666697993398,0.01191187184304,-0.00610865233466029,-0.00183259579353034
5,1.02500007039179,-0.00555555575692586,-0.0944444474878658,0.00427605677396059,0.0103847095742822,0.000610865245107561
5,1.02222228662528,-0.00694444498106275,-0.0986111170596459,0.00641408516094089,0.00488692196086049,-0.00366519158706069
5,1.02083339474202,-0.00555555575692586,-0.0916666697993398,-0.0027488935738802,0.000305432622553781,-0.00824668072164059
5,1.02222228662528,-0.00555555575692586,-0.0847222225390337,-0.00763581553474069,0.00122173049021512,-0.00641408516094089
5,1.02500007039179,-0.00277777787846293,-0.0916666697993398,-0.013744467869401,-0.00488692196086049,0.00305432616733015
5,1.02777785415829,-0.00555555575692586,-0.0888888921108138,-0.00916297826915979,-0.00580321997404099,0.0027488935738802
5,1.02638896227504,-0.00694444498106275,-0.101388894748172,-0.00885754637420177,-0.00366519158706069,0.00152716308366507
5,1.02500007039179,-0.00277777787846293,-0.0972222251763917,0.000916297896765172,0.000610865245107561,0.0021380283869803
5,1.02361117850853,-0.00555555575692586,-0.101388894748172,0.0131336031481624,0.0045814891345799,-0.0027488935738802
5,1.02361117850853,-0.00555555575692586,-0.101388894748172,0.0177150927484035,0.0109955742955208,-0.00122173049021512
5,1.02222228662528,-0.00694444498106275,-0.100000002864918,0.0192422550171614,0.0146607663482428,0.00549778714776039
5,1.02222228662528,-0.00277777787846293,-0.0916666697993398,0.0210748501121998,0.017409659922123,0.0033597587607801
5,1.02222228662528,-0.00277777787846293,-0.0916666697993398,0.0198531206697226,-0.000610865245107561,0.00519235478714108
5,1.02361117850853,-0.00138888893923146,-0.0875000002275597,0.0232128798961639,-0.00580321997404099,0.00244346098043024
5,1.02500007039179,-0.00833333382532574,-0.0888888921108138,0.0207694191485643,-0.00580321997404099,0.01191187184304
5,1.02500007039179,-0.00833333382532574,-0.0888888921108138,0.0232128798961639,-0.00305432616733015,0.00427605677396059
5,1.02638896227504,-0.00555555575692586,-0.0861111144222878,0.0140499006956816,-0.000916297896765172,0.00244346098043024
5,1.02500007039179,-0.00138888893923146,-0.0902777839940679,0.0134390350431204,-0.00427605677396059,0.00366519158706069
5,1.02500007039179,-0.00138888893923146,-0.0902777839940679,0.00549778714776039,0.00366519158706069,0.00580321997404099
5,1.02222228662528,-0.00138888893923146,-0.0916666697993398,0.00488692196086049,0.00733038317412138,-0.00427605677396059
5,1.01944450285877,-0.00416666691266287,-0.0833333367337618,0.00824668072164059,0.00397062394768,0.0045814891345799
5,1.01944450285877,-0.00416666691266287,-0.0833333367337618,0.00610865233466029,0.00671951752156019,-0.0027488935738802
5,1.02222228662528,-0.00555555575692586,-0.0902777839940679,0.00427605677396059,0.00183259579353034,-0.00183259579353034
5,1.02083339474202,-0.00972222266958873,-0.0902777839940679,0.00244346098043024,-0.00702495034784079,0.0033597587607801
5,1.02361117850853,-0.00972222266958873,-0.0930555616825939,0.0027488935738802,-0.000916297896765172,-0.000916297896765172
5,1.02500007039179,-0.0152777788063885,-0.101388894748172,0.00305432616733015,0.00244346098043024,-0.00183259579353034
5,1.02500007039179,-0.00972222266958873,-0.0930555616825939,0.00641408516094089,0.000305432622553781,0.00152716308366507
5,1.02222228662528,-0.00833333382532574,-0.0847222225390337,0.0189368221908808,0.00580321997404099,-0.000610865245107561
5,1.01944450285877,-0.00833333382532574,-0.0861111144222878,0.0189368221908808,0.000916297896765172,-0.000916297896765172
5,1.02222228662528,-0.00833333382532574,-0.0819444448505077,0.011606439948082,-0.00427605677396059,0.00366519158706069
5,1.02361117850853,-0.0111111115138517,-0.0902777839940679,0.0128281703218818,0.00519235478714108,-0.00427605677396059
5,1.02222228662528,-0.00277777787846293,-0.0819444448505077,0.00366519158706069,-0.000305432622553781,-0.00122173049021512
5,1.01944450285877,-0.00555555575692586,-0.0861111144222878,-0.0021380283869803,-0.0103847095742822,0.00183259579353034
5,1.02222228662528,-0.00555555575692586,-0.0916666697993398,0.0027488935738802,0.0027488935738802,0.0045814891345799
5,1.02222228662528,-0.00694444498106275,-0.0986111170596459,0.00427605677396059,0.00977384392172098,-0.00366519158706069
5,1.01944450285877,-0.00555555575692586,-0.0944444474878658,0.0021380283869803,0.00305432616733015,0.00152716308366507
5,1.02361117850853,-0.00555555575692586,-0.0944444474878658,0.00244346098043024,0.00824668072164059,-0.0021380283869803
5,1.02638896227504,-0.00972222266958873,-0.0944444474878658,0.000916297896765172,0.0033597587607801,0.00519235478714108
5,1.02361117850853,-0.00694444498106275,-0.0944444474878658,-0.00519235478714108,0.00305432616733015,0.000610865245107561
5,1.02222228662528,-0.00972222266958873,-0.101388894748172,0.00702495034784079,-0.000305432622553781,0.000610865245107561
5,1.02222228662528,-0.0125000003581147,-0.0916666697993398,0.00824668072164059,-0.000916297896765172,0.00122173049021512
5,1.02500007039179,-0.0125000003581147,-0.0986111170596459,0.00824668072164059,0.00183259579353034,0.000916297896765172
5,1.02500007039179,-0.00833333382532574,-0.0930555616825939,0.0027488935738802,-0.0027488935738802,-0.00488692196086049
5,1.01666671909226,-0.0125000003581147,-0.0902777839940679,0.0106901414692402,-0.00916297826915979,0.00794124789535999
5,1.01944450285877,-0.00555555575692586,-0.0930555616825939,0.00519235478714108,-0.00366519158706069,-0.0021380283869803
5,1.01944450285877,-0.00555555575692586,-0.0916666697993398,-0.0033597587607801,-0.0033597587607801,0.00244346098043024
5,1.02222228662528,-0.00555555575692586,-0.0930555616825939,0.00183259579353034,-0.00580321997404099,-0.00519235478714108
5,1.01805561097552,-0.00694444498106275,-0.0847222225390337,-0.0027488935738802,-0.00305432616733015,0.00305432616733015
5,1.01944450285877,-0.00555555575692586,-0.0916666697993398,0.00427605677396059,-0.0100792767480016,0.00610865233466029
5,1.02222228662528,-0.00416666691266287,-0.0902777839940679,0.011606439948082,0.00549778714776039,-0.00244346098043024
5,1.02361117850853,-0.00277777787846293,-0.105555564319952,0.0021380283869803,0.00580321997404099,0.00183259579353034
5,1.02361117850853,-0.00138888893923146,-0.0972222251763917,0.00610865233466029,0.00152716308366507,-0.00122173049021512
5,1.02222228662528,0.00138888893923146,-0.0986111170596459,0.0033597587607801,-0.00427605677396059,0.00427605677396059
5,1.02222228662528,-0.00416666691266287,-0.0875000002275597,-0.00305432616733015,-0.00305432616733015,0.0021380283869803
5,1.02083339474202,-0.00555555575692586,-0.0944444474878658,0.00397062394768,-0.00885754637420177,0.000305432622553781
5,1.02083339474202,-0.00694444498106275,-0.0888888921108138,-0.00305432616733015,-0.0021380283869803,-0.00183259579353034
5,1.02361117850853,-0.00555555575692586,-0.0944444474878658,-0.000610865245107561,0.00305432616733015,-0.00244346098043024
5,1.02361117850853,-0.00555555575692586,-0.0944444474878658,-0.00610865233466029,0.0033597587607801,-0.00763581553474069
5,1.02083339474202,-0.00833333382532574,-0.0875000002275597,-0.00427605677396059,-0.00152716308366507,0.00152716308366507
5,1.02361117850853,-0.00555555575692586,-0.0944444474878658,0.00183259579353034,-0.00641408516094089,-0.0027488935738802
5,1.02222228662528,-0.00555555575692586,-0.0875000002275597,-0.00305432616733015,-0.0027488935738802,-0.00397062394768
5,1.02222228662528,-0.00555555575692586,-0.0875000002275597,-0.00183259579353034,-0.000916297896765172,-0.00366519158706069
5,1.02638896227504,-0.0111111115138517,-0.0930555616825939,-0.00580321997404099,0.0021380283869803,0.000305432622553781
5,1.02361117850853,-0.00555555575692586,-0.0916666697993398,0.0033597587607801,-0.000916297896765172,-0.00152716308366507
5,1.02361117850853,-0.00555555575692586,-0.0916666697993398,0.00824668072164059,0.00122173049021512,-0.00152716308366507
5,1.02083339474202,-0.00555555575692586,-0.0930555616825939,0.00580321997404099,-0.00305432616733015,-0.00244346098043024
5,1.02222228662528,-0.00972222266958873,-0.0944444474878658,-0.00366519158706069,-0.00549778714776039,0.00855211354792118
5,1.02083339474202,-0.00277777787846293,-0.0861111144222878,0.00427605677396059,0.00152716308366507,-0.000916297896765172
5,1.02222228662528,-0.00833333382532574,-0.0847222225390337,0.00366519158706069,-0.00122173049021512,0.00977384392172098
5,1.02222228662528,-0.00277777787846293,-0.101388894748172,0.00519235478714108,0.0027488935738802,0.00152716308366507
5,1.02222228662528,-0.00555555575692586,-0.0986111170596459,0.00763581553474069,0.0045814891345799,0.00946841109544039
5,1.02500007039179,-0.00277777787846293,-0.0944444474878658,0.00702495034784079,0.00733038317412138,0.00397062394768
5,1.02500007039179,-0.00694444498106275,-0.0916666697993398,0.0113010071218014,0.00366519158706069,-0.0045814891345799
5,1.02361117850853,-0.00972222266958873,-0.0847222225390337,0.00916297826915979,0.00366519158706069,-0.000610865245107561
5,1.02083339474202,-0.00833333382532574,-0.0916666697993398,0.0045814891345799,0.00305432616733015,0.00305432616733015
5,1.02222228662528,-0.00138888893923146,-0.0944444474878658,0.00885754637420177,0.00183259579353034,-0.00885754637420177
5,1.02500007039179,-0.00555555575692586,-0.101388894748172,0.00824668072164059,0.00794124789535999,0.000916297896765172
5,1.02500007039179,-0.00972222266958873,-0.0930555616825939,0.00824668072164059,0.00885754637420177,0.000916297896765172
5,1.01944450285877,-0.00833333382532574,-0.0944444474878658,0.017409659922123,-0.00733038317412138,0.00183259579353034
5,1.02361117850853,-0.00416666691266287,-0.100000002864918,0.0113010071218014,0.00427605677396059,0.00641408516094089
5,1.02638896227504,-0.00138888893923146,-0.0972222251763917,0.0134390350431204,0.00763581553474069,-0.00305432616733015
5,1.02638896227504,-0.00277777787846293,-0.101388894748172,0.013744467869401,0.01191187184304,-0.0033597587607801
5,1.02638896227504,-0.00555555575692586,-0.0986111170596459,0.00519235478714108,0.0027488935738802,-0.00397062394768
5,1.02500007039179,-0.00138888893923146,-0.0861111144222878,0.00366519158706069,0.00824668072164059,-0.00763581553474069
5,1.02500007039179,-0.00833333382532574,-0.0916666697993398,0.00519235478714108,0.000916297896765172,-0.0045814891345799
5,1.02638896227504,-0.00555555575692586,-0.0944444474878658,0.00702495034784079,0.00152716308366507,-0.00488692196086049
5,1.02500007039179,-0.00972222266958873,-0.101388894748172,0.00610865233466029,0.0027488935738802,0.00152716308366507
5,1.02638896227504,-0.00694444498106275,-0.101388894748172,0.00610865233466029,0.00366519158706069,0.00580321997404099
5,1.02638896227504,-0.00833333382532574,-0.0930555616825939,0.00641408516094089,0.0140499006956816,-0.00641408516094089
5,1.02361117850853,-0.00694444498106275,-0.0958333393711199,0.00794124789535999,0.00397062394768,-0.00671951752156019
5,1.02500007039179,-0.00555555575692586,-0.0916666697993398,0.00885754637420177,0.00641408516094089,-0.00488692196086049
5,1.02083339474202,-0.00555555575692586,-0.0916666697993398,0.00397062394768,0.00549778714776039,-0.00488692196086049
5,1.01944450285877,-0.00416666691266287,-0.0930555616825939,0.00641408516094089,0.0027488935738802,-0.0021380283869803
5,1.01666671909226,0.00138888893923146,-0.0916666697993398,0.00580321997404099,0.00183259579353034,0.00549778714776039
5,1.01944450285877,0.00277777787846293,-0.0861111144222878,0.00488692196086049,-0.00122173049021512,0.00244346098043024
5,1.02500007039179,-0.00277777787846293,-0.0930555616825939,0.0109955742955208,0.0128281703218818,-0.00824668072164059
5,1.02500007039179,-0.00555555575692586,-0.0888888921108138,0.011606439948082,0.00152716308366507,0.00427605677396059
5,1.02083339474202,-0.00694444498106275,-0.0847222225390337,0.00122173049021512,0.00519235478714108,-0.00885754637420177
5,1.02500007039179,-0.00555555575692586,-0.0819444448505077,0.0045814891345799,0.00366519158706069,-0.00885754637420177
5,1.02222228662528,-0.00277777787846293,-0.0930555616825939,0.00580321997404099,0.00244346098043024,-0.00305432616733015
5,1.02222228662528,-0.00555555575692586,-0.0930555616825939,0.00733038317412138,0.000610865245107561,-0.00641408516094089
5,1.01944450285877,-0.00555555575692586,-0.0875000002275597,0.0045814891345799,0.00519235478714108,-0.0027488935738802
5,1.02638896227504,-0.00694444498106275,-0.0916666697993398,0.00946841109544039,0.00610865233466029,0.000305432622553781
5,1.02638896227504,-0.00416666691266287,-0.0930555616825939,0.0131336031481624,0.00671951752156019,-0.00549778714776039
5,1.02222228662528,-0.00277777787846293,-0.0916666697993398,0.00671951752156019,-0.000610865245107561,-0.00763581553474069
5,1.02083339474202,-0.00555555575692586,-0.0944444474878658,0.0109955742955208,-0.000305432622553781,-0.00183259579353034
5,1.02361117850853,-0.00277777787846293,-0.0833333367337618,0.00916297826915979,0.0027488935738802,-0.0021380283869803
5,1.02500007039179,-0.00277777787846293,-0.0750000036681839,0.00519235478714108,0.000916297896765172,0.00152716308366507
5,1.02361117850853,-0.00555555575692586,-0.0888888921108138,0.00183259579353034,0.00671951752156019,-0.000916297896765172
5,1.02222228662528,-0.00694444498106275,-0.0875000002275597,0.0106901414692402,0.0045814891345799,-0.00671951752156019
5,1.02222228662528,-0.00694444498106275,-0.0875000002275597,0.00855211354792118,0.00183259579353034,0.000916297896765172
5,1.02361117850853,-0.00833333382532574,-0.0819444448505077,0.00885754637420177,0.0033597587607801,-0.0045814891345799
5,1.02361117850853,-0.00277777787846293,-0.0819444448505077,0.01191187184304,0.00733038317412138,-0.00366519158706069
5,1.02222228662528,0.00277777787846293,-0.0819444448505077,0.00885754637420177,0.00580321997404099,0.00122173049021512
5,1.02500007039179,0.00277777787846293,-0.0916666697993398,0.0027488935738802,0.00305432616733015,0.0027488935738802
5,1.02500007039179,-0.00277777787846293,-0.0916666697993398,-0.000305432622553781,0.0103847095742822,0.00152716308366507
5,1.02222228662528,-0.00277777787846293,-0.0847222225390337,0.0045814891345799,0.0045814891345799,-0.000916297896765172
5,1.02500007039179,-0.00277777787846293,-0.0916666697993398,0.00610865233466029,0.01588249579072,0.000610865245107561
5,1.02361117850853,-0.00694444498106275,-0.0805555590452358,0.00916297826915979,0.00977384392172098,0.0027488935738802
5,1.02500007039179,-0.00694444498106275,-0.0916666697993398,0.0100792767480016,0.00305432616733015,0.00122173049021512
5,1.02361117850853,-0.00277777787846293,-0.0902777839940679,0.00977384392172098,0.00855211354792118,0.00580321997404099
5,1.02916674604155,-0.00138888893923146,-0.0916666697993398,0.00702495034784079,0.0103847095742822,-0.00610865233466029
5,1.02361117850853,-0.00138888893923146,-0.0986111170596459,0.00702495034784079,0.00641408516094089,0.00183259579353034
5,1.02222228662528,-0.00416666691266287,-0.0916666697993398,-0.00183259579353034,0.0027488935738802,-0.00366519158706069
5,1.02361117850853,-0.00277777787846293,-0.0861111144222878,-0.0027488935738802,0.0033597587607801,0.00610865233466029
5,1.02500007039179,-0.00694444498106275,-0.0888888921108138,0.000610865245107561,-0.00397062394768,-0.00152716308366507
5,1.02361117850853,-0.00277777787846293,-0.0916666697993398,0.0100792767480016,0.00977384392172098,0.000916297896765172
5,1.02222228662528,-0.00277777787846293,-0.0916666697993398,0.00946841109544039,0.01191187184304,0.0045814891345799
5,1.02222228662528,-0.00277777787846293,-0.0916666697993398,0.011606439948082,-0.0027488935738802,0.0021380283869803
5,1.02777785415829,-0.00972222266958873,-0.0888888921108138,0.00794124789535999,-0.000305432622553781,0.00244346098043024
5,1.02500007039179,-0.00277777787846293,-0.0875000002275597,0.00946841109544039,0.00641408516094089,0.00824668072164059
5,1.02500007039179,-0.00277777787846293,-0.0875000002275597,0.0146607663482428,0.00549778714776039,0.00641408516094089
5,1.02361117850853,-0.00972222266958873,-0.0819444448505077,0.00488692196086049,-0.00183259579353034,0.000610865245107561
5,1.02638896227504,-0.00416666691266287,-0.0847222225390337,-0.000916297896765172,0.000610865245107561,-0.0027488935738802
5,1.02638896227504,-0.00416666691266287,-0.0847222225390337,0.00671951752156019,0.00183259579353034,-0.00305432616733015
5,1.02638896227504,-0.00277777787846293,-0.0777777813567098,0.0027488935738802,0.00671951752156019,-0.0045814891345799
5,1.02361117850853,-0.00277777787846293,-0.0916666697993398,0.01191187184304,0.000610865245107561,-0.000916297896765172
5,1.02361117850853,-0.00277777787846293,-0.0916666697993398,0.00855211354792118,0.00152716308366507,0.000916297896765172
5,1.02500007039179,-0.00416666691266287,-0.0958333393711199,0.00610865233466029,0.00702495034784079,-0.00152716308366507
5,1.01944450285877,-0.00972222266958873,-0.0875000002275597,0.00549778714776039,0.00610865233466029,-0.00152716308366507
5,1.02222228662528,-0.00416666691266287,-0.0875000002275597,0.00366519158706069,-0.00305432616733015,0.00305432616733015
5,1.02222228662528,-0.00416666691266287,-0.0875000002275597,0.00152716308366507,-0.000916297896765172,0.000305432622553781
5,1.02222228662528,-0.00138888893923146,-0.0902777839940679,-0.00152716308366507,0.00549778714776039,-0.00641408516094089
5,1.02500007039179,-0.00277777787846293,-0.0916666697993398,0.00305432616733015,-0.00427605677396059,-0.0027488935738802
5,1.02500007039179,-0.00277777787846293,-0.0916666697993398,0.0109955742955208,-0.00183259579353034,-0.00305432616733015
5,1.02500007039179,-0.00555555575692586,-0.0805555590452358,0.00610865233466029,-0.0027488935738802,0.00244346098043024
5,1.02777785415829,-0.00277777787846293,-0.0847222225390337,0.00549778714776039,0.00580321997404099,0.000916297896765172
5,1.02638896227504,-0.00277777787846293,-0.0861111144222878,0.00366519158706069,0.00305432616733015,0.00122173049021512
5,1.02500007039179,-0.00277777787846293,-0.0916666697993398,0.00641408516094089,-0.00244346098043024,-0.000305432622553781
5,1.01944450285877,-0.00277777787846293,-0.0888888921108138,0.0161879286170006,-0.00152716308366507,0.00763581553474069
5,1.02361117850853,-0.0125000003581147,-0.0833333367337618,0.0161879286170006,-0.000305432622553781,-0.00152716308366507
5,1.02083339474202,-0.00555555575692586,-0.0916666697993398,0.0161879286170006,0.00488692196086049,0.0045814891345799
5,1.02361117850853,-0.00138888893923146,-0.0930555616825939,0.0109955742955208,0.00244346098043024,0.0033597587607801
5,1.02222228662528,-0.00277777787846293,-0.0916666697993398,0.0113010071218014,0.000610865245107561,-0.000610865245107561
5,1.02500007039179,-0.00555555575692586,-0.0972222251763917,0.0131336031481624,-0.000916297896765172,0.00580321997404099
5,1.02500007039179,-0.00555555575692586,-0.100000002864918,0.00152716308366507,0.000305432622553781,0.00122173049021512
5,1.02500007039179,-0.00277777787846293,-0.0944444474878658,0.0045814891345799,-0.00305432616733015,-0.00488692196086049
5,1.02361117850853,-0.00277777787846293,-0.0944444474878658,0.000305432622553781,0.000610865245107561,-0.00305432616733015
5,1.02083339474202,-0.00138888893923146,-0.0958333393711199,-0.0021380283869803,0.000916297896765172,0.0033597587607801
5,1.02777785415829,-0.00416666691266287,-0.0916666697993398,-0.00519235478714108,0.00610865233466029,0.000610865245107561
5,1.02638896227504,-0.00277777787846293,-0.0916666697993398,-0.00366519158706069,0.0027488935738802,-0.00610865233466029
5,1.02500007039179,-0.00277777787846293,-0.0958333393711199,-0.00397062394768,0.00580321997404099,-0.00122173049021512
5,1.02500007039179,-0.00555555575692586,-0.0875000002275597,-0.00122173049021512,0.0113010071218014,-0.000916297896765172
5,1.02638896227504,-0.00694444498106275,-0.0847222225390337,0.00885754637420177,0.00305432616733015,0.0027488935738802
5,1.02500007039179,-0.00555555575692586,-0.0833333367337618,0.00610865233466029,-0.000916297896765172,-0.00152716308366507
5,1.02916674604155,-0.00694444498106275,-0.0861111144222878,0.011606439948082,-0.000916297896765172,0.000305432622553781
5,1.02638896227504,-0.00694444498106275,-0.0875000002275597,0.0106901414692402,0.000305432622553781,-0.00794124789535999
5,1.02500007039179,-0.00555555575692586,-0.0916666697993398,0.013744467869401,0.000305432622553781,-0.00183259579353034
5,1.02222228662528,-0.00555555575692586,-0.0875000002275597,0.00763581553474069,-0.0021380283869803,0.00183259579353034
5,1.02083339474202,-0.00277777787846293,-0.0833333367337618,0.00977384392172098,-0.00183259579353034,0.00733038317412138
5,1.01944450285877,-0.00277777787846293,-0.0861111144222878,0.00733038317412138,-0.00763581553474069,0.0021380283869803
5,1.02361117850853,-0.00277777787846293,-0.0902777839940679,0.00885754637420177,0.00610865233466029,-0.00580321997404099
5,1.02361117850853,0.00138888893923146,-0.0916666697993398,0.0103847095742822,0.00305432616733015,-0.000610865245107561
5,1.02361117850853,-0.00138888893923146,-0.0986111170596459,0.0027488935738802,-0.00122173049021512,-0.0021380283869803
5,1.01944450285877,-0.00138888893923146,-0.0875000002275597,0.00977384392172098,-0.0021380283869803,-0.00305432616733015
5,1.01944450285877,-0.00277777787846293,-0.0888888921108138,0.00580321997404099,-0.00305432616733015,0.00183259579353034
5,1.02638896227504,-0.00555555575692586,-0.0930555616825939,0.0045814891345799,0.00488692196086049,0.00702495034784079
5,1.02638896227504,-0.00972222266958873,-0.0861111144222878,0.00610865233466029,0.00763581553474069,-0.00152716308366507
5,1.02222228662528,-0.00555555575692586,-0.0916666697993398,0.00183259579353034,0.00122173049021512,0.00427605677396059
5,1.02361117850853,-0.00277777787846293,-0.0916666697993398,0.0027488935738802,0.00763581553474069,-0.0021380283869803
5,1.02222228662528,-0.00138888893923146,-0.0944444474878658,0.00855211354792118,-0.00702495034784079,0.00549778714776039
5,1.02361117850853,-0.00555555575692586,-0.0847222225390337,0.00855211354792118,-0.00580321997404099,-0.000305432622553781
5,1.02638896227504,-0.00694444498106275,-0.0861111144222878,0.00305432616733015,0.00519235478714108,0.0033597587607801
5,1.02222228662528,0.00138888893923146,-0.0875000002275597,0.00122173049021512,-0.00305432616733015,-0.0021380283869803
5,1.02361117850853,-0.00277777787846293,-0.0902777839940679,0.0021380283869803,-0.00183259579353034,0.00916297826915979
5,1.02083339474202,0.00277777787846293,-0.0847222225390337,-0.00122173049021512,-0.00152716308366507,-0.0033597587607801
5,1.02361117850853,0.00277777787846293,-0.0902777839940679,-0.000610865245107561,-0.00580321997404099,0.00549778714776039
5,1.02222228662528,0.00277777787846293,-0.0916666697993398,0.00427605677396059,0.00427605677396059,0.000916297896765172
5,1.02500007039179,0.00277777787846293,-0.0972222251763917,0.000610865245107561,0.00397062394768,0.00549778714776039
5,1.02500007039179,0.00277777787846293,-0.0986111170596459,0.0109955742955208,0.00244346098043024,-0.00305432616733015
5,1.01944450285877,-0.00416666691266287,-0.100000002864918,0.00946841109544039,0.00183259579353034,-0.000305432622553781
5,1.02222228662528,-0.00277777787846293,-0.0944444474878658,0.00946841109544039,0.000610865245107561,0.0027488935738802
5,1.02638896227504,-0.00555555575692586,-0.0930555616825939,0.00977384392172098,0.000305432622553781,0.000610865245107561
5,1.02500007039179,-0.00138888893923146,-0.100000002864918,0.0021380283869803,-0.000610865245107561,0.00519235478714108
5,1.01944450285877,-0.00138888893923146,-0.0875000002275597,0.00488692196086049,0.00152716308366507,0.00366519158706069
5,1.02222228662528,-0.00138888893923146,-0.0833333367337618,0.00549778714776039,0.00610865233466029,-0.000305432622553781
5,1.02500007039179,-0.00138888893923146,-0.0875000002275597,0.00824668072164059,-0.000305432622553781,0.00549778714776039
5,1.02500007039179,-0.00138888893923146,-0.0875000002275597,0.00244346098043024,0.00580321997404099,0.00580321997404099
5,1.02361117850853,-0.00277777787846293,-0.0902777839940679,-0.00244346098043024,0.00610865233466029,0.000305432622553781
5,1.02500007039179,-0.00138888893923146,-0.0861111144222878,0.00366519158706069,-0.00305432616733015,0.00122173049021512
5,1.02222228662528,-0.00555555575692586,-0.0777777813567098,0.01588249579072,0.00152716308366507,-0.00794124789535999
5,1.02222228662528,-0.00555555575692586,-0.0777777813567098,0.0186313893646002,0.00977384392172098,0.00580321997404099
5,1.02500007039179,-0.00277777787846293,-0.0847222225390337,0.0161879286170006,0.00122173049021512,-0.00397062394768
5,1.02222228662528,-0.00277777787846293,-0.0805555590452358,0.0103847095742822,0.000305432622553781,0.000610865245107561
5,1.02361117850853,-0.00555555575692586,-0.0875000002275597,0.0149661982432008,0.000610865245107561,-0.000610865245107561
5,1.02361117850853,-0.00555555575692586,-0.0875000002275597,0.0201585534960032,0.00977384392172098,0.0027488935738802
5,1.02222228662528,-0.00555555575692586,-0.0680555564078778,0.00977384392172098,-0.00244346098043024,-0.00519235478714108
5,1.02222228662528,-0.00277777787846293,-0.0777777813567098,0.011606439948082,0.0021380283869803,0.00244346098043024
5,1.02222228662528,-0.00277777787846293,-0.0777777813567098,0.0140499006956816,0.00549778714776039,-0.00855211354792118
5,1.02361117850853,-0.00277777787846293,-0.0833333367337618,0.00855211354792118,0.0033597587607801,-0.00305432616733015
5,1.02361117850853,-0.00416666691266287,-0.0916666697993398,0.013744467869401,0.00305432616733015,0.00427605677396059
5,1.02361117850853,-0.00416666691266287,-0.0916666697993398,0.0100792767480016,0.00549778714776039,-0.000916297896765172
5,1.02500007039179,-0.00416666691266287,-0.0819444448505077,0.00397062394768,0.00733038317412138,0.00152716308366507
5,1.02361117850853,-0.00138888893923146,-0.0805555590452358,0.0103847095742822,-0.000610865245107561,-0.00183259579353034
5,1.02361117850853,-0.00277777787846293,-0.100000002864918,0.00763581553474069,0.0161879286170006,-0.00549778714776039
5,1.02500007039179,-0.00277777787846293,-0.0930555616825939,0.00580321997404099,0.00122173049021512,-0.000610865245107561
5,1.02222228662528,-0.00555555575692586,-0.0847222225390337,0.00855211354792118,0.00244346098043024,-0.0033597587607801
5,1.02222228662528,-0.00555555575692586,-0.0875000002275597,0.0103847095742822,-0.00152716308366507,-0.0027488935738802
5,1.02361117850853,-0.00277777787846293,-0.0847222225390337,0.00488692196086049,0.000916297896765172,-0.000610865245107561
5,1.02500007039179,-0.00138888893923146,-0.0902777839940679,0.00183259579353034,0.00488692196086049,-0.0045814891345799
5,1.02916674604155,-0.00277777787846293,-0.0875000002275597,0.00641408516094089,-0.00183259579353034,0.00671951752156019
5,1.02500007039179,-0.00416666691266287,-0.0819444448505077,0.00733038317412138,0.00183259579353034,0.00397062394768
5,1.02638896227504,-0.00138888893923146,-0.0875000002275597,0.0033597587607801,-0.0027488935738802,0.00671951752156019
5,1.02777785415829,-0.00277777787846293,-0.0902777839940679,-0.00152716308366507,-0.000610865245107561,-0.00122173049021512
5,1.02222228662528,-0.00277777787846293,-0.0805555590452358,0.000916297896765172,0.00885754637420177,0.000305432622553781
5,1.02361117850853,-0.00277777787846293,-0.0777777813567098,0.0045814891345799,-0.00580321997404099,-0.0045814891345799
5,1.02500007039179,-0.00277777787846293,-0.0875000002275597,-0.00244346098043024,-0.0113010071218014,0.00366519158706069
5,1.02916674604155,-0.00555555575692586,-0.0847222225390337,0.00580321997404099,-0.000305432622553781,0.0045814891345799
5,1.02916674604155,-0.00972222266958873,-0.0875000002275597,0.00183259579353034,0.0045814891345799,0.0033597587607801
5,1.02500007039179,-0.00138888893923146,-0.0875000002275597,0.0021380283869803,0.00122173049021512,0.000305432622553781
5,1.02638896227504,-0.00277777787846293,-0.0958333393711199,0.00794124789535999,-0.000916297896765172,0.00122173049021512
5,1.02083339474202,-0.00277777787846293,-0.0902777839940679,0.00183259579353034,-0.0027488935738802,0.00855211354792118
5,1.02222228662528,-0.00277777787846293,-0.0916666697993398,0.00244346098043024,0.00366519158706069,0.00610865233466029
5,1.02500007039179,0.00416666691266287,-0.0902777839940679,0.00702495034784079,0.00183259579353034,-0.0021380283869803
5,1.01944450285877,0.00555555575692586,-0.0986111170596459,-0.000305432622553781,-0.00244346098043024,0.00671951752156019
5,1.02361117850853,0.00555555575692586,-0.0916666697993398,0.00488692196086049,-0.0128281703218818,0.0113010071218014
5,1.02500007039179,-0.00138888893923146,-0.0875000002275597,0.00702495034784079,-0.00397062394768,0.00152716308366507
5,1.02500007039179,-0.00138888893923146,-0.0833333367337618,0.00946841109544039,-0.00305432616733015,0.000305432622553781
5,1.02222228662528,-0.00138888893923146,-0.0902777839940679,0.0045814891345799,-0.000305432622553781,0.00397062394768
5,1.02361117850853,-0.00138888893923146,-0.0944444474878658,0.00794124789535999,-0.0027488935738802,0.0027488935738802
5,1.02222228662528,-0.00138888893923146,-0.0819444448505077,0.00916297826915979,-0.00122173049021512,0.00183259579353034
5,1.02361117850853,-0.00138888893923146,-0.0958333393711199,0.0100792767480016,-0.00702495034784079,0.00488692196086049
5,1.02500007039179,-0.00277777787846293,-0.0986111170596459,0.0146607663482428,-0.00427605677396059,0.00549778714776039
5,1.02361117850853,-0.00277777787846293,-0.100000002864918,-0.00427605677396059,-0.0033597587607801,0.00397062394768
5,1.02638896227504,-0.00277777787846293,-0.0833333367337618,0.00610865233466029,-0.00397062394768,0.0033597587607801
5,1.02500007039179,-0.00277777787846293,-0.0861111144222878,0.00671951752156019,-0.00702495034784079,0.00610865233466029
5,1.02222228662528,-0.00555555575692586,-0.0847222225390337,0.0027488935738802,-0.00824668072164059,0.00824668072164059
5,1.02361117850853,-0.00694444498106275,-0.0847222225390337,0.00794124789535999,-0.00183259579353034,0.0027488935738802
5,1.02361117850853,-0.00138888893923146,-0.100000002864918,0.00702495034784079,-0.00855211354792118,0.00122173049021512
5,1.02222228662528,-0.00555555575692586,-0.0972222251763917,0.00946841109544039,-0.00427605677396059,0.00855211354792118
5,1.02222228662528,-0.00277777787846293,-0.0930555616825939,0.0033597587607801,-0.0103847095742822,0.00702495034784079
5,1.02500007039179,-0.00277777787846293,-0.0847222225390337,0.000305432622553781,-0.00763581553474069,0.00733038317412138
5,1.02500007039179,-0.00277777787846293,-0.0847222225390337,0.00855211354792118,-0.0134390350431204,0.00763581553474069
5,1.02222228662528,-0.00277777787846293,-0.0888888921108138,0.00152716308366507,-0.0268780700862408,0.0167987942695618
5,1.02500007039179,-0.00555555575692586,-0.0875000002275597,0.00733038317412138,-0.0265726372599602,0.013744467869401
5,1.02500007039179,-0.00277777787846293,-0.0875000002275597,-0.000916297896765172,-0.0250454749912024,0.0140499006956816
5,1.02222228662528,0.00138888893923146,-0.0861111144222878,0.00794124789535999,-0.0256563406437635,0.00916297826915979
5,1.02361117850853,-0.00416666691266287,-0.0916666697993398,0.00427605677396059,-0.0250454749912024,0.0128281703218818
5,1.02361117850853,-0.00555555575692586,-0.101388894748172,0.0113010071218014,-0.021685715764761,0.00977384392172098
5,1.02222228662528,-0.00694444498106275,-0.0958333393711199,0.00916297826915979,-0.0161879286170006,0.0106901414692402
5,1.01944450285877,-0.00972222266958873,-0.0944444474878658,0.00580321997404099,-0.0219911485910416,0.0033597587607801
5,1.01944450285877,-0.00972222266958873,-0.0944444474878658,0.00916297826915979,-0.0143553335219622,0.00671951752156019
5,1.02361117850853,-0.00277777787846293,-0.0875000002275597,0.00916297826915979,-0.0152716310694814,0.00641408516094089
5,1.01944450285877,-0.00416666691266287,-0.0930555616825939,0.00580321997404099,-0.0113010071218014,0.00366519158706069
5,1.01944450285877,-0.00416666691266287,-0.0930555616825939,0.00763581553474069,-0.0140499006956816,-0.000305432622553781
5,1.02083339474202,-0.0125000003581147,-0.0958333393711199,0.0045814891345799,-0.0198531206697226,0.00977384392172098
5,1.02500007039179,-0.00972222266958873,-0.100000002864918,0.00580321997404099,-0.00946841109544039,0.0027488935738802
5,1.02500007039179,-0.00972222266958873,-0.100000002864918,0.00122173049021512,-0.00977384392172098,0.00855211354792118
5,1.01944450285877,-0.00555555575692586,-0.0986111170596459,0.00397062394768,-0.00549778714776039,0.0134390350431204
5,1.02222228662528,-0.00555555575692586,-0.0944444474878658,-0.00122173049021512,-0.0113010071218014,0.00305432616733015
5,1.01944450285877,-0.00694444498106275,-0.0944444474878658,0.00916297826915979,-0.00916297826915979,-0.000916297896765172
5,1.02083339474202,-0.00972222266958873,-0.100000002864918,0.0100792767480016,-0.0106901414692402,0.00519235478714108
5,1.02777785415829,-0.00416666691266287,-0.0958333393711199,0.00610865233466029,-0.00946841109544039,0.01588249579072
5,1.02500007039179,-0.00972222266958873,-0.0986111170596459,0.00427605677396059,-0.00610865233466029,0.013744467869401
5,1.02777785415829,-0.00972222266958873,-0.0986111170596459,0.00366519158706069,-0.01191187184304,-0.0045814891345799
5,1.02500007039179,-0.00833333382532574,-0.0958333393711199,0.00763581553474069,-0.00885754637420177,0.0045814891345799
5,1.02222228662528,-0.00972222266958873,-0.0902777839940679,0.00580321997404099,-0.0122173046693206,0.00122173049021512
5,1.02222228662528,-0.00833333382532574,-0.113888891307548,0.00580321997404099,-0.00977384392172098,0.00671951752156019
5,1.02500007039179,-0.00555555575692586,-0.0972222251763917,0.0125227374956012,-0.00946841109544039,0.00794124789535999
5,1.02500007039179,-0.0125000003581147,-0.100000002864918,0.0140499006956816,-0.015577063895762,0.0152716310694814
5,1.02222228662528,-0.00972222266958873,-0.104166672436698,0.021685715764761,-0.011606439948082,0.00885754637420177
5,1.02777785415829,-0.00972222266958873,-0.0875000002275597,0.0186313893646002,-0.00885754637420177,0.00488692196086049
5,1.02500007039179,-0.00694444498106275,-0.0972222251763917,0.0180205255746841,-0.0210748501121998,0.0106901414692402
5,1.02361117850853,-0.00555555575692586,-0.0972222251763917,0.00702495034784079,-0.0171042270958424,0.01191187184304
5,1.01944450285877,-0.00555555575692586,-0.100000002864918,0.0161879286170006,-0.0149661982432008,0.00702495034784079
5,1.02361117850853,-0.00277777787846293,-0.101388894748172,0.00885754637420177,-0.01191187184304,0.0100792767480016
5,1.02222228662528,-0.00972222266958873,-0.0986111170596459,0.0134390350431204,-0.013744467869401,-0.000305432622553781
5,1.02222228662528,-0.00555555575692586,-0.0944444474878658,0.0113010071218014,-0.0186313893646002,0.00427605677396059
5,1.02361117850853,-0.00694444498106275,-0.0972222251763917,0.0177150927484035,-0.017409659922123,0.00549778714776039
5,1.02361117850853,-0.00972222266958873,-0.105555564319952,0.015577063895762,-0.0103847095742822,0.00183259579353034
5,1.02500007039179,-0.00694444498106275,-0.106944444047242,0.0149661982432008,-0.00519235478714108,0.000305432622553781
5,1.02500007039179,-0.00833333382532574,-0.106944444047242,0.0161879286170006,-0.00702495034784079,0.0021380283869803
5,1.02500007039179,-0.0138888899621255,-0.106944444047242,0.0113010071218014,-0.00824668072164059,-0.000305432622553781
5,1.02222228662528,-0.00972222266958873,-0.101388894748172,0.0106901414692402,-0.00916297826915979,0.000916297896765172
5,1.02500007039179,-0.0111111115138517,-0.112499999424294,0.00733038317412138,-0.00519235478714108,0.00183259579353034
5,1.02638896227504,-0.0125000003581147,-0.102777780553444,0.0100792767480016,-0.00855211354792118,0.00152716308366507
5,1.02361117850853,-0.00972222266958873,-0.105555564319952,0.00397062394768,-0.0045814891345799,0.000916297896765172
5,1.02222228662528,-0.00416666691266287,-0.101388894748172,0.00427605677396059,-0.00152716308366507,-0.00519235478714108
5,1.02222228662528,-0.00555555575692586,-0.102777780553444,0.000610865245107561,-0.000610865245107561,0.00702495034784079
5,1.01944450285877,-0.00972222266958873,-0.0972222251763917,0.0027488935738802,0.00366519158706069,0.00397062394768
5,1.02222228662528,-0.00972222266958873,-0.102777780553444,-0.00183259579353034,0.00610865233466029,0.0021380283869803
5,1.02222228662528,-0.00972222266958873,-0.100000002864918,-0.000305432622553781,0.00427605677396059,0.0045814891345799
5,1.02222228662528,-0.00833333382532574,-0.101388894748172,-0.00305432616733015,0.00397062394768,-0.00366519158706069
5,1.02500007039179,-0.00555555575692586,-0.106944444047242,0.000305432622553781,-0.00366519158706069,-0.0021380283869803
5,1.02500007039179,-0.0111111115138517,-0.104166672436698,-0.0027488935738802,-0.00244346098043024,0.00122173049021512
5,1.02222228662528,-0.00972222266958873,-0.104166672436698,-0.00305432616733015,0.00152716308366507,0.000610865245107561
5,1.02083339474202,-0.00972222266958873,-0.10972222781375,0.00152716308366507,-0.00580321997404099,0.0045814891345799
5,1.02777785415829,-0.00833333382532574,-0.104166672436698,0.00946841109544039,-0.00519235478714108,-0.00763581553474069
5,1.02500007039179,-0.00833333382532574,-0.105555564319952,0.00427605677396059,0.00702495034784079,0.000916297896765172
5,1.02500007039179,-0.0125000003581147,-0.108333335930496,0.00305432616733015,0.015577063895762,-0.000305432622553781
5,1.02222228662528,-0.00416666691266287,-0.0986111170596459,0.00397062394768,0.0100792767480016,-0.00366519158706069
5,1.02361117850853,-0.00416666691266287,-0.108333335930496,-0.00519235478714108,0.0045814891345799,-0.000916297896765172
5,1.02361117850853,-0.00416666691266287,-0.108333335930496,-0.00549778714776039,0.0045814891345799,0.0045814891345799
5,1.02222228662528,-0.0152777788063885,-0.101388894748172,-0.00152716308366507,0.00702495034784079,-0.0045814891345799
5,1.02083339474202,-0.0125000003581147,-0.106944444047242,-0.0021380283869803,-0.000916297896765172,-0.000305432622553781
5,1.02222228662528,-0.00972222266958873,-0.112499999424294,0.0033597587607801,0.00397062394768,0.00549778714776039
5,1.02500007039179,-0.00833333382532574,-0.113888891307548,0.00580321997404099,0.0106901414692402,0.00702495034784079
5,1.02222228662528,-0.0125000003581147,-0.111111119697004,0.0100792767480016,0.011606439948082,-0.00366519158706069
5,1.01944450285877,-0.00972222266958873,-0.101388894748172,0.0033597587607801,0.00733038317412138,-0.0033597587607801
5,1.02361117850853,-0.00833333382532574,-0.105555564319952,0.0109955742955208,0.00488692196086049,0.000305432622553781
5,1.02222228662528,-0.00972222266958873,-0.111111119697004,0.00488692196086049,0.00580321997404099,-0.000610865245107561
5,1.02222228662528,-0.00694444498106275,-0.101388894748172,0.00916297826915979,0.00305432616733015,0.00183259579353034
5,1.02361117850853,-0.00972222266958873,-0.111111119697004,0.00641408516094089,0.00549778714776039,-0.00183259579353034
5,1.02361117850853,-0.00972222266958873,-0.104166672436698,0.0140499006956816,0.00305432616733015,-0.0021380283869803
5,1.02361117850853,-0.0125000003581147,-0.111111119697004,0.00733038317412138,0.00885754637420177,-0.00305432616733015
5,1.02638896227504,-0.00555555575692586,-0.0986111170596459,0.00610865233466029,0.0128281703218818,-0.00397062394768
5,1.02222228662528,-0.00555555575692586,-0.104166672436698,0.00855211354792118,0.0113010071218014,-0.00702495034784079
5,1.02222228662528,-0.00972222266958873,-0.104166672436698,0.0109955742955208,0.00488692196086049,-0.00580321997404099
5,1.02222228662528,-0.0111111115138517,-0.0986111170596459,0.0146607663482428,0.0125227374956012,-0.00610865233466029
5,1.02222228662528,-0.00277777787846293,-0.113888891307548,0.0232128798961639,0.00580321997404099,0.0027488935738802
5,1.02222228662528,-0.00416666691266287,-0.104166672436698,0.0161879286170006,0.0103847095742822,0.000305432622553781
5,1.02361117850853,-0.00694444498106275,-0.0986111170596459,0.01588249579072,0.0033597587607801,-0.00733038317412138
5,1.02500007039179,-0.00833333382532574,-0.108333335930496,0.0180205255746841,0.0033597587607801,-0.00610865233466029
5,1.02500007039179,-0.00972222266958873,-0.101388894748172,0.0140499006956816,0.00702495034784079,-0.00855211354792118
5,1.02083339474202,-0.00555555575692586,-0.0986111170596459,0.017409659922123,0.00305432616733015,-0.00641408516094089
5,1.02083339474202,-0.00555555575692586,-0.0986111170596459,0.0143553335219622,-0.0103847095742822,-0.0027488935738802
5,1.02500007039179,-0.00694444498106275,-0.0986111170596459,0.00733038317412138,-0.00152716308366507,0.00305432616733015
5,1.02777785415829,-0.00694444498106275,-0.0986111170596459,0.00427605677396059,0.00610865233466029,-0.00733038317412138
5,1.02777785415829,-0.00694444498106275,-0.0986111170596459,0.00427605677396059,0.00580321997404099,-0.00580321997404099
5,1.02500007039179,-0.0111111115138517,-0.0888888921108138,0.00366519158706069,0.00549778714776039,-0.00397062394768
5,1.02500007039179,-0.0111111115138517,-0.0888888921108138,-0.00488692196086049,0.01191187184304,-0.00519235478714108
5,1.02500007039179,-0.00972222266958873,-0.108333335930496,-0.00427605677396059,0.0143553335219622,-0.000916297896765172
5,1.02500007039179,-0.0111111115138517,-0.106944444047242,-0.00977384392172098,0.0161879286170006,0.00641408516094089
5,1.01944450285877,-0.00694444498106275,-0.112499999424294,-0.00641408516094089,0.00702495034784079,0.000610865245107561
5,1.02222228662528,-0.00972222266958873,-0.101388894748172,-0.000610865245107561,0.0113010071218014,0.00366519158706069
5,1.02500007039179,-0.00972222266958873,-0.101388894748172,0.00397062394768,0.0103847095742822,0.00183259579353034
5,1.01944450285877,-0.00972222266958873,-0.0986111170596459,-0.0045814891345799,0.00794124789535999,-0.00305432616733015
5,1.02222228662528,-0.00972222266958873,-0.108333335930496,-0.00885754637420177,0.0131336031481624,-0.000305432622553781
5,1.01944450285877,-0.00694444498106275,-0.104166672436698,-0.0100792767480016,0.00794124789535999,-0.000305432622553781
5,1.01944450285877,-0.00972222266958873,-0.106944444047242,-0.00305432616733015,0.0198531206697226,-0.000610865245107561
5,1.02500007039179,-0.00138888893923146,-0.0986111170596459,-0.0021380283869803,0.0122173046693206,-0.0027488935738802
5,1.02500007039179,-0.00833333382532574,-0.100000002864918,-0.00610865233466029,0.00885754637420177,0.00488692196086049
5,1.02361117850853,-0.00555555575692586,-0.100000002864918,-0.00488692196086049,0.0122173046693206,0.00641408516094089
5,1.02083339474202,-0.00277777787846293,-0.104166672436698,-0.0033597587607801,0.0131336031481624,0.00305432616733015
5,1.02500007039179,-0.00694444498106275,-0.106944444047242,-0.00549778714776039,0.00610865233466029,0.00152716308366507
5,1.02222228662528,-0.00277777787846293,-0.105555564319952,-0.00855211354792118,0.0171042270958424,0.00152716308366507
5,1.02222228662528,-0.00277777787846293,-0.105555564319952,0.00152716308366507,0.000610865245107561,0.0027488935738802
5,1.02222228662528,-0.00416666691266287,-0.0944444474878658,0.00244346098043024,0.000610865245107561,0.00244346098043024
5,1.01805561097552,-0.00277777787846293,-0.0916666697993398,0.00549778714776039,0.013744467869401,0.0045814891345799
5,1.01944450285877,-0.00277777787846293,-0.0986111170596459,0.00397062394768,0.0027488935738802,-0.00488692196086049
5,1.02361117850853,-0.00138888893923146,-0.113888891307548,0.00824668072164059,0.00183259579353034,-0.00366519158706069
5,1.02777785415829,-0.00555555575692586,-0.101388894748172,0.00152716308366507,0.000305432622553781,-0.00183259579353034
5,1.02500007039179,-0.00555555575692586,-0.0958333393711199,0.0113010071218014,0.0100792767480016,-0.000305432622553781
5,1.02500007039179,-0.00138888893923146,-0.108333335930496,0.00641408516094089,0.0113010071218014,-0.00244346098043024
5,1.02500007039179,-0.00277777787846293,-0.101388894748172,0.00794124789535999,0.00794124789535999,-0.0106901414692402
5,1.02361117850853,-0.00972222266958873,-0.0986111170596459,0.00305432616733015,0.0134390350431204,-0.00824668072164059
5,1.02222228662528,-0.00694444498106275,-0.100000002864918,0.00397062394768,0.00916297826915979,-0.00733038317412138
5,1.02083339474202,-0.00277777787846293,-0.0916666697993398,0.00794124789535999,0.00305432616733015,-0.00885754637420177
5,1.02500007039179,-0.00833333382532574,-0.0861111144222878,0.0103847095742822,0.00549778714776039,-0.0027488935738802
5,1.02500007039179,-0.00833333382532574,-0.0958333393711199,0.0128281703218818,0.00397062394768,0.00427605677396059
5,1.02500007039179,-0.00972222266958873,-0.0958333393711199,0.0186313893646002,0.00794124789535999,0.00519235478714108
5,1.02222228662528,-0.00694444498106275,-0.0972222251763917,0.0210748501121998,0.0131336031481624,-0.000305432622553781
5,1.02361117850853,-0.00416666691266287,-0.0986111170596459,0.0140499006956816,0.00733038317412138,0.000916297896765172
5,1.02222228662528,-0.00416666691266287,-0.104166672436698,0.0113010071218014,-0.00152716308366507,-0.000916297896765172
5,1.02222228662528,-0.00277777787846293,-0.0958333393711199,0.0161879286170006,0.00977384392172098,-0.00702495034784079
5,1.02500007039179,-0.00277777787846293,-0.0847222225390337,0.0192422550171614,0.0122173046693206,-0.00580321997404099
5,1.02361117850853,-0.00277777787846293,-0.0875000002275597,0.0186313893646002,0.00946841109544039,-0.00916297826915979
5,1.02361117850853,-0.00277777787846293,-0.0916666697993398,0.0186313893646002,-0.00305432616733015,-0.00855211354792118
5,1.02222228662528,-0.00555555575692586,-0.0944444474878658,0.00580321997404099,0.00305432616733015,-0.00152716308366507
5,1.02500007039179,-0.00694444498106275,-0.0986111170596459,0.0131336031481624,0.0131336031481624,-0.00702495034784079
5,1.02222228662528,-0.00694444498106275,-0.100000002864918,0.0103847095742822,0.00305432616733015,-0.00977384392172098
5,1.02638896227504,-0.00416666691266287,-0.101388894748172,0.00427605677396059,0.00671951752156019,-0.0033597587607801
5,1.02500007039179,-0.00416666691266287,-0.0986111170596459,0.00183259579353034,0.00244346098043024,-0.00122173049021512
5,1.02638896227504,-0.00972222266958873,-0.0916666697993398,0.0134390350431204,-0.00152716308366507,-0.00122173049021512
5,1.01944450285877,-0.0111111115138517,-0.0888888921108138,0.00397062394768,0.00366519158706069,-0.00580321997404099
5,1.01944450285877,-0.0111111115138517,-0.0888888921108138,0.00488692196086049,0.0021380283869803,0.00122173049021512
5,1.01944450285877,-0.0111111115138517,-0.0888888921108138,-0.0027488935738802,0.00763581553474069,-0.0027488935738802
5,1.02083339474202,-0.00555555575692586,-0.0972222251763917,-0.000610865245107561,0.0045814891345799,-0.00183259579353034
5,1.02361117850853,-0.00833333382532574,-0.104166672436698,-0.00397062394768,0.000305432622553781,-0.00397062394768
5,1.02083339474202,-0.00555555575692586,-0.101388894748172,-0.00427605677396059,0.00580321997404099,-0.0021380283869803
5,1.02500007039179,-0.00277777787846293,-0.0930555616825939,-0.000610865245107561,-0.00427605677396059,-0.00183259579353034
5,1.02361117850853,-0.00277777787846293,-0.0944444474878658,-0.0106901414692402,0.0021380283869803,0.000916297896765172
5,1.02361117850853,-0.00694444498106275,-0.0986111170596459,-0.00183259579353034,0.00549778714776039,-0.00488692196086049
5,1.02083339474202,-0.00416666691266287,-0.0944444474878658,-0.0027488935738802,0.00519235478714108,0.00702495034784079
5,1.02222228662528,-0.00416666691266287,-0.0875000002275597,0.000305432622553781,0.00122173049021512,0.000916297896765172
5,1.02222228662528,0.00138888893923146,-0.0944444474878658,-0.00427605677396059,0.0021380283869803,0.00549778714776039
5,1.02222228662528,0.00138888893923146,-0.101388894748172,-0.00122173049021512,0.00183259579353034,0.0027488935738802
5,1.02222228662528,-0.00277777787846293,-0.0972222251763917,-0.00885754637420177,0.00916297826915979,0.00152716308366507
5,1.02361117850853,0.00277777787846293,-0.0819444448505077,-0.0100792767480016,0.00702495034784079,0.00519235478714108
5,1.02222228662528,-0.00416666691266287,-0.0875000002275597,-0.00122173049021512,0.0113010071218014,-0.00183259579353034
5,1.02361117850853,-0.00277777787846293,-0.0972222251763917,-0.00397062394768,-0.00519235478714108,-0.00122173049021512
5,1.02222228662528,-0.00138888893923146,-0.101388894748172,-0.00549778714776039,-0.00427605677396059,0.00794124789535999
5,1.02500007039179,-0.00416666691266287,-0.102777780553444,0.00122173049021512,0.00244346098043024,0.00855211354792118
5,1.02222228662528,-0.00416666691266287,-0.0944444474878658,0.00305432616733015,0.00824668072164059,0.0027488935738802
5,1.02222228662528,-0.00277777787846293,-0.0916666697993398,0.0027488935738802,0.00580321997404099,0.00397062394768
5,1.02222228662528,-0.00277777787846293,-0.0819444448505077,0.00519235478714108,0.00305432616733015,0.0109955742955208
5,1.02222228662528,-0.00138888893923146,-0.0847222225390337,-0.000305432622553781,-0.00580321997404099,0.000610865245107561
5,1.02500007039179,-0.00138888893923146,-0.0916666697993398,0.00152716308366507,-0.00549778714776039,0.00549778714776039
5,1.01944450285877,-0.0125000003581147,-0.101388894748172,0.0033597587607801,-0.00244346098043024,-0.00397062394768
5,1.01944450285877,-0.0125000003581147,-0.101388894748172,0.0149661982432008,-0.00855211354792118,0.00183259579353034
5,1.02222228662528,-0.00694444498106275,-0.0944444474878658,0.00885754637420177,0.00305432616733015,-0.0033597587607801
5,1.02500007039179,-0.00277777787846293,-0.0944444474878658,0.00794124789535999,-0.00641408516094089,0.00916297826915979
5,1.02500007039179,-0.00277777787846293,-0.0944444474878658,0.0125227374956012,-0.011606439948082,0.00671951752156019
5,1.02361117850853,-0.00138888893923146,-0.0930555616825939,0.00916297826915979,-0.00610865233466029,-0.00183259579353034
5,1.02500007039179,-0.00555555575692586,-0.0930555616825939,0.0109955742955208,0.00152716308366507,0.00763581553474069
5,1.02500007039179,-0.00555555575692586,-0.0930555616825939,0.0045814891345799,-0.00427605677396059,-0.000916297896765172
5,1.02361117850853,-0.00555555575692586,-0.0958333393711199,0.0106901414692402,0.000305432622553781,-0.000305432622553781
5,1.02500007039179,-0.00416666691266287,-0.0916666697993398,0.00488692196086049,-0.0045814891345799,-0.0033597587607801
5,1.02500007039179,-0.00416666691266287,-0.0916666697993398,0.00488692196086049,-0.0027488935738802,0.0027488935738802
5,1.02500007039179,-0.00555555575692586,-0.101388894748172,0.000916297896765172,-0.00397062394768,0.00641408516094089
5,1.02222228662528,-0.00833333382532574,-0.100000002864918,0.000916297896765172,-0.00549778714776039,0.0033597587607801
5,1.02222228662528,-0.00833333382532574,-0.100000002864918,0.0109955742955208,-0.0033597587607801,-0.000916297896765172
5,1.02083339474202,-0.00416666691266287,-0.0972222251763917,0.00427605677396059,0.000916297896765172,-0.000610865245107561
5,1.01944450285877,-0.00694444498106275,-0.0930555616825939,0.0027488935738802,-0.00244346098043024,0.00733038317412138
5,1.02361117850853,-0.00833333382532574,-0.0986111170596459,0.000610865245107561,0.000916297896765172,-0.0021380283869803
5,1.02500007039179,-0.0111111115138517,-0.100000002864918,0.00977384392172098,-0.000305432622553781,0.00183259579353034
5,1.02083339474202,-0.00694444498106275,-0.0930555616825939,0.0106901414692402,-0.000305432622553781,0.00183259579353034
5,1.02500007039179,-0.00972222266958873,-0.0916666697993398,0.015577063895762,0.00122173049021512,0.00488692196086049
5,1.02916674604155,-0.00972222266958873,-0.0944444474878658,0.00916297826915979,0.0021380283869803,0.00397062394768
5,1.02500007039179,-0.00416666691266287,-0.0916666697993398,-0.00122173049021512,-0.00122173049021512,0.00946841109544039
5,1.02222228662528,-0.00555555575692586,-0.0916666697993398,0.00610865233466029,0.00519235478714108,-0.00122173049021512
5,1.02361117850853,-0.00416666691266287,-0.0888888921108138,0.00580321997404099,0.000305432622553781,0.00549778714776039
5,1.02222228662528,-0.00277777787846293,-0.0944444474878658,0.0125227374956012,-0.00610865233466029,0.00671951752156019
5,1.02361117850853,-0.00138888893923146,-0.0972222251763917,0.011606439948082,-0.01191187184304,0.000916297896765172
5,1.02500007039179,-0.00416666691266287,-0.104166672436698,0.00855211354792118,-0.00488692196086049,-0.000610865245107561
5,1.02500007039179,-0.00416666691266287,-0.0944444474878658,0.00916297826915979,0.00122173049021512,0.00488692196086049
5,1.02638896227504,-0.00555555575692586,-0.0972222251763917,0.00794124789535999,-0.00122173049021512,0.000610865245107561
5,1.02361117850853,-0.00555555575692586,-0.0888888921108138,0.00641408516094089,-0.00305432616733015,-0.00427605677396059
5,1.02222228662528,-0.00555555575692586,-0.0944444474878658,0.00305432616733015,-0.00702495034784079,-0.00488692196086049
5,1.02638896227504,-0.00555555575692586,-0.0986111170596459,0.00183259579353034,-0.00183259579353034,0.00183259579353034
5,1.02777785415829,-0.00555555575692586,-0.104166672436698,0.00122173049021512,-0.00183259579353034,-0.00152716308366507
5,1.02222228662528,-0.00694444498106275,-0.0986111170596459,-0.00519235478714108,-0.00366519158706069,0.0033597587607801
5,1.01944450285877,-0.00277777787846293,-0.0944444474878658,-0.00702495034784079,0.000610865245107561,-0.00122173049021512
5,1.02222228662528,-0.00277777787846293,-0.0875000002275597,-0.00916297826915979,-0.00580321997404099,0.00305432616733015
5,1.02083339474202,-0.00277777787846293,-0.106944444047242,-0.00916297826915979,0.000916297896765172,0.000610865245107561
5,1.02500007039179,-0.00416666691266287,-0.100000002864918,-0.0125227374956012,-0.000305432622553781,-0.00519235478714108
5,1.02222228662528,-0.00277777787846293,-0.101388894748172,-0.00519235478714108,0.00152716308366507,0.00427605677396059
5,1.02222228662528,-0.00277777787846293,-0.0972222251763917,-0.011606439948082,-0.011606439948082,0.00824668072164059
5,1.02500007039179,-0.00555555575692586,-0.101388894748172,-0.0122173046693206,-0.0134390350431204,-0.00549778714776039
5,1.02500007039179,-0.00555555575692586,-0.100000002864918,-0.00977384392172098,-0.00824668072164059,0.00702495034784079
5,1.02500007039179,-0.0111111115138517,-0.100000002864918,-0.00885754637420177,-0.000305432622553781,0.00366519158706069
5,1.02361117850853,-0.00833333382532574,-0.0986111170596459,-0.0109955742955208,-0.0106901414692402,-0.000305432622553781
5,1.02222228662528,-0.00972222266958873,-0.105555564319952,-0.00763581553474069,-0.00641408516094089,0.00671951752156019
5,1.02361117850853,-0.00833333382532574,-0.100000002864918,-0.0103847095742822,-0.00427605677396059,0.0021380283869803
5,1.02222228662528,-0.00416666691266287,-0.0944444474878658,-0.00549778714776039,-0.00733038317412138,-0.00549778714776039
5,1.01944450285877,-0.00416666691266287,-0.104166672436698,-0.0027488935738802,-0.0125227374956012,0.000916297896765172
5,1.02222228662528,-0.00416666691266287,-0.0916666697993398,-0.00671951752156019,-0.017409659922123,0.00183259579353034
5,1.02222228662528,-0.00277777787846293,-0.0972222251763917,-0.00397062394768,-0.00977384392172098,0.000916297896765172
5,1.02500007039179,-0.00555555575692586,-0.101388894748172,-0.00305432616733015,-0.0113010071218014,0.0113010071218014
5,1.02500007039179,-0.0111111115138517,-0.0972222251763917,-0.000305432622553781,-0.00794124789535999,0.00152716308366507
5,1.02777785415829,-0.00833333382532574,-0.102777780553444,0.000305432622553781,-0.00763581553474069,0.0021380283869803
5,1.02222228662528,-0.00416666691266287,-0.105555564319952,0.0021380283869803,-0.0128281703218818,0.000610865245107561
5,1.02638896227504,-0.00833333382532574,-0.0986111170596459,0.00580321997404099,-0.00702495034784079,0.00641408516094089
5,1.02500007039179,-0.00972222266958873,-0.0986111170596459,0.00794124789535999,-0.00671951752156019,0.0045814891345799
5,1.02500007039179,-0.00972222266958873,-0.0986111170596459,0.00733038317412138,-0.00488692196086049,0.00122173049021512
5,1.02500007039179,-0.00972222266958873,-0.0944444474878658,0.0180205255746841,0.00366519158706069,0.0027488935738802
5,1.02222228662528,-0.00555555575692586,-0.0888888921108138,0.0210748501121998,-0.00122173049021512,-0.0033597587607801
5,1.02500007039179,-0.00277777787846293,-0.101388894748172,0.0226020142436027,-0.00183259579353034,-0.00366519158706069
5,1.02500007039179,-0.00555555575692586,-0.100000002864918,0.0183259565383196,-0.00763581553474069,0.000305432622553781
5,1.02361117850853,-0.00277777787846293,-0.111111119697004,0.0235183127224445,0.00122173049021512,0.00427605677396059
5,1.02361117850853,-0.00694444498106275,-0.10972222781375,0.0219911485910416,0.00244346098043024,-0.00794124789535999
5,1.02361117850853,-0.00694444498106275,-0.10972222781375,0.00671951752156019,-0.00366519158706069,-0.00610865233466029
5,1.02500007039179,-0.00694444498106275,-0.101388894748172,0.011606439948082,-0.0021380283869803,0.00183259579353034
5,1.02361117850853,-0.00555555575692586,-0.0916666697993398,0.0122173046693206,0.00122173049021512,0.00244346098043024
5,1.02361117850853,-0.00555555575692586,-0.0916666697993398,0.017409659922123,-0.00427605677396059,0.0027488935738802
5,1.02500007039179,-0.00972222266958873,-0.0875000002275597,0.0192422550171614,0.00183259579353034,0.00488692196086049
5,1.02638896227504,-0.00416666691266287,-0.0930555616825939,0.0125227374956012,-0.000916297896765172,0.00671951752156019
5,1.02638896227504,-0.00416666691266287,-0.0930555616825939,0.0106901414692402,0.00305432616733015,0.00366519158706069
5,1.02361117850853,-0.00277777787846293,-0.0916666697993398,0.01588249579072,-0.00733038317412138,0.0103847095742822
5,1.02222228662528,-0.00694444498106275,-0.0972222251763917,0.011606439948082,0.00122173049021512,-0.00549778714776039
5,1.02222228662528,-0.00694444498106275,-0.0972222251763917,0.0180205255746841,-0.00122173049021512,0.00519235478714108
5,1.02500007039179,-0.00416666691266287,-0.0972222251763917,0.0140499006956816,0.00519235478714108,-0.00610865233466029
5,1.02361117850853,-0.00416666691266287,-0.0986111170596459,0.0109955742955208,-0.0045814891345799,-0.0106901414692402
5,1.02222228662528,-0.00694444498106275,-0.100000002864918,0.0177150927484035,-0.00305432616733015,0.0027488935738802
5,1.02222228662528,-0.00694444498106275,-0.100000002864918,0.0171042270958424,-0.00305432616733015,0.0021380283869803
5,1.02361117850853,-0.00555555575692586,-0.102777780553444,0.00702495034784079,-0.00610865233466029,0.00152716308366507
5,1.02361117850853,-0.00555555575692586,-0.0986111170596459,0.0100792767480016,-0.00885754637420177,-0.00244346098043024
5,1.02500007039179,-0.00277777787846293,-0.0958333393711199,0.00580321997404099,-0.00244346098043024,0.0027488935738802
5,1.02222228662528,-0.00138888893923146,-0.104166672436698,-0.0033597587607801,0.00824668072164059,-0.0033597587607801
5,1.02222228662528,-0.00555555575692586,-0.101388894748172,-0.00244346098043024,0.00763581553474069,0.0045814891345799
5,1.01944450285877,-0.00555555575692586,-0.0986111170596459,-0.00122173049021512,0.00397062394768,-0.00122173049021512
5,1.02222228662528,-0.00138888893923146,-0.101388894748172,0.00610865233466029,-0.00305432616733015,-0.00519235478714108
5,1.02083339474202,-0.00277777787846293,-0.101388894748172,0.00824668072164059,-0.00152716308366507,-0.0027488935738802
5,1.02361117850853,-0.00277777787846293,-0.104166672436698,-0.00183259579353034,0.000305432622553781,-0.00580321997404099
5,1.02500007039179,0.00138888893923146,-0.102777780553444,0.00122173049021512,0.00183259579353034,0.0106901414692402
5,1.02916674604155,0.00138888893923146,-0.0958333393711199,0.00427605677396059,0.00580321997404099,-0.0113010071218014
5,1.02777785415829,0.00138888893923146,-0.0958333393711199,0.00733038317412138,0.000610865245107561,-0.000610865245107561
5,1.02083339474202,-0.00277777787846293,-0.101388894748172,0.00152716308366507,0.00946841109544039,-0.00580321997404099
5,1.02500007039179,-0.00277777787846293,-0.0986111170596459,0.00122173049021512,0.00824668072164059,-0.000916297896765172
