Activity,acc_x,acc_y,acc_z,gyro_x,gyro_y,gyro_z
0,0.500000008246606,0.181944447715425,0.838888947026599,0.204334422945976,0.0815505087375641,0.50793445110321
0,0.488888921804431,0.18333333959868,0.858333336144441,0.270918726921081,0.162490159273148,0.541226625442505
0,0.488888921804431,0.18333333959868,0.858333336144441,0.377514719963074,0.253203630447388,0.586736083030701
0,0.488888921804431,0.18333333959868,0.858333336144441,0.388510286808014,0.245567828416824,0.594371855258942
0,0.493055597454194,0.186111123365188,0.881944498159761,0.350025773048401,0.196393176913261,0.664621412754059
0,0.44583337067127,0.186111123365188,0.936111184358955,0.263588339090347,0.136528387665749,0.781907498836517
0,0.423611149163062,0.198611113846581,0.986111194908388,0.23304508626461,0.0809396430850029,0.833831071853638
0,0.42916666807222,0.20972223675665,1.01527782720901,0.279165416955948,-0.0268780700862408,0.865596055984497
0,0.433333343721983,0.211111128639904,0.991666665193688,0.374460399150848,-0.058643065392971,0.875064492225647
0,0.406944470875941,0.20972223675665,0.916666697993398,0.456316351890564,0.05283984541893,0.837190806865692
0,0.388888900705567,0.204166669223633,0.841666730793107,0.504574716091156,0.204334422945976,0.773966252803802
0,0.394444468238583,0.20972223675665,0.825000028194058,0.484721571207047,0.233350530266762,0.706160247325897
0,0.394444468238583,0.20972223675665,0.825000028194058,0.417831838130951,0.150578290224075,0.678671300411224
0,0.416666689746791,0.224999998848587,0.858333336144441,0.409279704093933,0.109039448201656,0.666148543357849
0,0.411111122213775,0.251388896006557,0.912500022343635,0.445626199245453,0.0852157026529312,0.679587602615356
0,0.406944470875941,0.251388896006557,0.923611157409668,0.501520395278931,0.164933621883392,0.666148543357849
0,0.395833335809908,0.243055569018962,0.887500065692777,0.532369077205658,0.149051114916802,0.693332076072693
0,0.384722225055805,0.236111109602691,0.869444471210474,0.47647488117218,0.144164204597473,0.738536059856415
0,0.380555573717971,0.226388890731841,0.854166660494678,0.408668845891953,0.129808858036995,0.761138081550598
0,0.373611114301701,0.222222239394008,0.848611190209378,0.364075690507889,0.147523954510689,0.749531626701355
0,0.373611114301701,0.222222239394008,0.848611190209378,0.334448724985123,0.193644285202026,0.720820963382721
0,0.377777789951463,0.2194444556275,0.84583340644287,0.385455965995789,0.207083314657211,0.67836582660675
0,0.379166681834717,0.227777782615095,0.831944487610329,0.442266434431076,0.182343274354935,0.627053201198578
0,0.393055576355329,0.244444460902216,0.852777768611424,0.537256002426147,0.224798411130905,0.530536472797394
0,0.386111116939059,0.254166679773066,0.854166660494678,0.548556983470917,0.324674874544144,0.434325188398361
0,0.393055576355329,0.261111114877407,0.848611190209378,0.49235737323761,0.384539663791656,0.41263946890831
0,0.426388884305712,0.250000004123303,0.89166674134254,0.430965423583984,0.364686548709869,0.416304677724838
0,0.431944451838729,0.244444460902216,0.898611103511094,0.339946508407593,0.357967019081116,0.480140089988708
0,0.426388884305712,0.233333350148112,0.899999995394348,0.312152147293091,0.28496864438057,0.529620170593262
0,0.411111122213775,0.2194444556275,0.89166674134254,0.337503045797348,0.139582708477974,0.610865235328674
0,0.398611119576417,0.220833347510754,0.886111173809523,0.386677712202072,0.102625362575054,0.642630219459534
0,0.405555578992687,0.226388890731841,0.884722281926269,0.371711492538452,0.149661988019943,0.59803706407547
0,0.405555578992687,0.226388890731841,0.884722281926269,0.315511912107468,0.0922406539320946,0.60903263092041
0,0.424999992422458,0.229166674498349,0.893055633225794,0.313984721899033,0.087659165263176,0.590401232242584
0,0.443055586904762,0.2194444556275,0.898611103511094,0.287412106990814,0.0494800843298435,0.552527606487274
0,0.426388884305712,0.206944452990142,0.887500065692777,0.369268029928207,0.0268780700862408,0.513126790523529
0,0.447222262554524,0.223611131277262,0.887500065692777,0.391564607620239,0.0109955742955208,0.427605658769607
0,0.440277803138253,0.220833347510754,0.881944498159761,0.386677712202072,0.0045814891345799,0.368046313524246
0,0.44861110581392,0.216666671860991,0.87500003874349,0.383012503385544,0.0027488935738802,0.283746898174286
0,0.449999997697174,0.226388890731841,0.862500011794203,0.35430184006691,0.0308486949652433,0.224492982029915
0,0.444444478788016,0.226388890731841,0.863888903677457,0.310624986886978,0.0467311926186085,0.231823354959488
0,0.440277803138253,0.226388890731841,0.866666687443965,0.288328409194946,0.103541657328606,0.241291776299477
0,0.449999997697174,0.234722242031366,0.858333336144441,0.29107728600502,0.0974330082535744,0.283136039972305
0,0.454166673346937,0.250000004123303,0.854166660494678,0.273056775331497,-0.0372627787292004,0.304210901260376
0,0.452777781463682,0.259722222994153,0.848611190209378,0.240070044994354,-0.0461203269660473,0.289855569601059
0,0.449999997697174,0.252777787889811,0.84583340644287,0.166155353188515,-0.142331600189209,0.328645497560501
0,0.455555565230191,0.261111114877407,0.87500003874349,0.135306656360626,-0.172569438815117,0.280387133359909
0,0.458333348996699,0.265277790527169,0.887500065692777,0.0803287774324417,-0.135001212358475,0.262672066688538
0,0.46527780841297,0.250000004123303,0.89722221162784,0.138055548071861,-0.207999616861343,0.231517925858498
0,0.463888916529715,0.231944458264858,0.877777822509998,0.210137650370598,-0.312763005495071,0.243735238909721
0,0.459722240879953,0.24583335278547,0.85138887672817,0.159435823559761,-0.260839462280273,0.23273965716362
0,0.449999997697174,0.256944463539574,0.833333379493583,0.0907134860754013,-0.0778853222727776,0.179288953542709
0,0.447222262554524,0.251388896006557,0.834722271376837,0.078801617026329,0.145080491900444,0.1750128865242
0,0.449999997697174,0.259722222994153,0.858333336144441,0.0623082555830479,0.284357786178589,0.149967417120934
0,0.459722240879953,0.252777787889811,0.870833363093728,0.0332921557128429,0.297185927629471,0.218384325504303
0,0.468055592179478,0.238888893369199,0.858333336144441,0.0574213340878487,0.100792765617371,0.274889349937439
0,0.466666700296224,0.233333350148112,0.840277838909853,0.124311074614525,-0.0675006061792374,0.320704251527786
0,0.470833327322128,0.229166674498349,0.798611131036088,0.0867428630590439,-0.188146501779556,0.386066824197769
0,0.472222219205382,0.233333350148112,0.781944477060896,0.0204639863222837,-0.318260788917542,0.486554175615311
0,0.456944457113445,0.236111109602691,0.798611131036088,-0.00244346098043024,-0.47097709774971,0.630107522010803
0,0.440277803138253,0.229166674498349,0.834722271376837,0.0448985956609249,-0.420580714941025,0.767552196979523
0,0.483333354271415,0.233333350148112,0.84583340644287,0.0253509078174829,-0.476169466972351,0.924239099025726
0,0.519444445988306,0.226388890731841,0.834722271376837,-0.00702495034784079,-0.686001658439636,1.07939887046814
0,0.565277780887976,0.222222239394008,0.837500055143345,0.0849102661013603,-0.688750565052032,1.09192156791687
0,0.550000018796039,0.193055558469529,0.791666671619817,-0.0711658000946045,-0.753502309322357,1.14598321914673
0,0.545833343146276,0.20972223675665,0.800000022919342,-0.0433714315295219,-0.972802877426147,1.14781582355499
0,0.572222240304247,0.284722228268869,0.866666687443965,0.529314756393433,-0.337197601795196,0.859487414360046
0,0.543055559379768,0.352777784676747,0.887500065692777,0.70860368013382,0.157908663153648,0.629191219806671
0,0.512500035195893,0.250000004123303,0.841666730793107,0.878424227237701,0.29107728600502,0.501214921474457
0,0.562499997121468,0.197222234119292,0.805555590452358,0.941648781299591,0.644157409667969,0.345444291830063
0,0.572222240304247,0.161111118090472,0.744444493460751,0.648738861083984,0.461508691310883,-0.0271835029125214
0,0.594444461812454,0.150000007336368,0.662500018220332,0.0418442711234093,0.499382346868515,-0.1795943826437
0,0.594444461812454,0.150000007336368,0.662500018220332,-0.291382730007172,0.119729585945606,-0.120951317250729
0,0.584722267253534,0.175000000455119,0.786111152710659,0.295658767223358,-0.0265726372599602,0.141109868884087
0,0.584722267253534,0.175000000455119,0.786111152710659,0.950200915336609,-0.123089343309402,-0.00549778714776039
0,0.627777818386695,0.222222239394008,0.879166714393253,1.31641459465027,-0.229074463248253,0.246484130620956
0,0.620833358970425,0.281944444502361,0.798611131036088,1.43614423274994,-0.383317947387695,0.653625786304474
0,0.620833358970425,0.281944444502361,0.798611131036088,2.222327709198,1.24524879455566,1.55892813205719
0,0.725000007095193,0.354166676560001,0.825000028194058,2.02288031578064,1.05924034118652,1.70156514644623
0,0.573611132187501,0.341666673922643,0.95000000594378,0.849713563919067,-0.249538451433182,1.77547979354858
0,0.56666667277123,0.334722238818301,0.98888888142718,-0.33841934800148,-2.56655025482178,1.47187983989716
0,0.618055575203916,0.297222230906227,0.741666709694243,-0.256868839263916,-4.6416597366333,0.869566679000854
0,0.6319444454126,0.287500012035377,0.637500012945616,0.839328825473785,-4.43946313858032,0.823446333408356
0,0.790277828360421,0.227777782615095,0.595833353695709,1.84756195545197,-4.0680570602417,1.29472887516022
0,1.0125000434425,0.154166670830166,0.579166699720517,2.32434225082398,-3.94160795211792,1.66155350208282
0,1.07916665934326,0.14722222356986,0.577777807837263,2.16643357276917,-4.99321269989014,2.07449841499329
0,1.11111117265811,0.0722222259796579,0.522222229754814,1.68049025535583,-6.60650777816772,2.5280659198761
0,1.06805562152495,0.026388891079988,0.495833332596844,0.938899874687195,-7.31847095489502,2.5091290473938
0,1.01527782720901,0.00277777787846293,0.430555559955475,-0.240680903196335,-7.14926147460938,2.56838297843933
0,0.926388941176177,0.0194444453391775,0.322222236180943,-1.31152772903442,-6.99990463256836,2.43093824386597
0,0.866666687443965,0.00277777787846293,0.12916666555545,-2.18964648246765,-6.18103981018066,1.35398280620575
0,0.795833347269579,-0.0722222259796579,0.0222222230277034,-1.7657059431076,-4.07324934005737,0.574213325977325
0,0.708333353120002,-0.223611131277262,-0.0708333340964038,-0.898277342319489,-3.6135733127594,0.6722571849823
0,0.680555564078778,-0.304166666010569,-0.25555557165632,-0.292909890413284,-3.98131418228149,1.19882309436798
0,0.662500018220332,-0.0930555616825939,-0.440277803138253,0.228158175945282,-3.76354074478149,0.895223021507263
0,0.745833336720147,-0.0930555616825939,-0.580555591603771,0.894001305103302,-3.73544096946716,0.61850106716156
0,0.818055568777787,-0.0625000010308258,-0.615277791437408,1.45172131061554,-3.2113184928894,0.809091031551361
0,0.798611131036088,-0.0875000002275597,-0.584722267253534,1.3045027256012,-2.16796064376831,1.13223874568939
0,0.673611153286365,-0.0833333367337618,-0.613888899554154,0.523511528968811,-1.8301522731781,1.03114056587219
0,0.58333337537028,-0.0888888921108138,-0.800000022919342,1.25654983520508,-1.72508347034454,0.769690215587616
0,0.6319444454126,-0.106944444047242,-0.901388887277602,1.39552164077759,-1.44683432579041,0.38576140999794
0,0.761111147435943,-0.113888891307548,-0.808333374218867,0.734565436840057,-0.669508337974548,0.262672066688538
0,0.788888936477167,-0.140277788465518,-0.766666714968959,-0.0103847095742822,-1.41720736026764,0.0503963828086853
0,0.719444488186035,-0.202777789496344,-0.679166672195524,-0.156686931848526,-1.63559174537659,-0.0907134860754013
0,0.581944483487025,-0.193055558469529,-0.654166666920807,-0.341779112815857,-2.43826866149902,-0.346971452236175
0,0.456944457113445,-0.170833336961321,-0.729166682744956,0.0250454749912024,-3.06104564666748,-0.544891774654388
0,0.384722225055805,-0.0750000036681839,-0.769444450111609,1.08367490768433,-1.35764801502228,-0.666148543357849
0,0.495833332596844,-0.0777777813567098,-0.866666687443965,1.38666415214539,-0.26908615231514,-0.0467311926186085
0,0.525000013521323,-0.0722222259796579,-0.911111130460381,1.50944805145264,-0.0439822971820831,0.33841934800148
0,0.569444456537738,-0.125000002061652,-0.962500032893068,1.39155101776123,0.139582708477974,0.548556983470917
0,0.569444456537738,-0.126388893944906,-1.0513889189259,0.941343367099762,-0.78251838684082,0.386983126401901
0,0.483333354271415,-0.168055565350778,-0.947222222177272,-0.611170649528503,-3.13709855079651,0.021685715764761
0,0.479166678621653,-0.262500006760661,-0.773611125761372,-0.248927593231201,-1.3478741645813,-0.0470366254448891
0,0.625000034620187,-0.2194444556275,-0.779166693294388,0.855211317539215,1.87382912635803,-0.252898216247559
0,0.709722245003256,-0.268055574293678,-0.793055563503071,0.588568687438965,1.44652891159058,-0.769690215587616
0,0.601388921228725,-0.312500017310094,-0.712500028769764,0.895833909511566,3.00057005882263,-1.0100656747818
0,0.577777807837263,-0.295833339022973,-0.637500012945616,1.54182386398315,5.44830703735352,-0.502742111682892
0,0.75000001236991,-0.259722222994153,-0.844444514559616,1.18324601650238,3.77026033401489,-0.434325188398361
0,0.800000022919342,-0.226388890731841,-0.877777822509998,-0.070249505341053,1.9746218919754,-1.48592972755432
0,0.765277823085705,-0.293055555256465,-0.718055596302781,-0.362243086099625,2.31151413917542,-1.351233959198
0,0.719444488186035,-0.437500019371745,-0.698611158561081,-0.147218525409698,1.69545650482178,-0.511905074119568
0,0.697222266677827,-0.427777776188966,-0.630555602153203,0.108734011650086,2.47522592544556,0.494495421648026
0,1.09861114570882,-0.268055574293678,-0.54027777561326,0.00580321997404099,2.12825441360474,0.348498612642288
0,0.986111194908388,-0.298611122789481,-0.533333364820847,0.0897971913218498,1.46088421344757,0.115453533828259
0,0.831944487610329,-0.395833335809908,-0.473611111088636,0.203112691640854,1.39216184616089,-0.107817716896534
0,0.831944487610329,-0.395833335809908,-0.473611111088636,0.211664810776711,1.6523904800415,-0.350331217050552
0,0.805555590452358,-0.394444468238583,-0.433333343721983,0.366213709115982,2.31151413917542,-0.55069500207901
0,0.954166681593543,-0.295833339022973,-0.376388898068209,0.493884563446045,2.20766711235046,-1.06993043422699
0,0.634722229179108,-0.259722222994153,-0.211111128639904,0.917519569396973,3.46207880973816,-1.04060900211334
0,0.75000001236991,-0.208333344873396,-0.229166674498349,0.380569040775299,2.83777451515198,-1.63009393215179
0,0.916666697993398,-0.220833347510754,-0.25555557165632,0.313373863697052,2.76294350624085,-1.60535383224487
0,1.00555558402623,-0.166666673467524,-0.241666677135707,0.139582708477974,2.43918490409851,-1.07573366165161
0,1.25555563677339,-0.158333334323963,-0.176388892338373,0.255647093057633,2.11084485054016,0.254730820655823
0,1.12083341584089,-0.123611110178398,-0.12916666555545,0.104763388633728,1.73974418640137,0.406530827283859
0,1.12083341584089,-0.123611110178398,-0.12916666555545,0.259312301874161,1.89826369285583,0.28008171916008
0,1.08750001064279,-0.18333333959868,-0.0180555564949145,-0.0125227374956012,1.0867292881012,0.241902634501457
0,1.11111117265811,-0.216666671860991,0.0250000007162294,0.0299323964864016,0.755029439926147,0.114842668175697
0,1.11111117265811,-0.216666671860991,0.0250000007162294,-0.0879645943641663,0.0754418596625328,0.103541657328606
0,1.04444445950963,-0.2194444556275,0.0652777787193518,-0.119729585945606,-0.673173487186432,0.0757472887635231
0,0.92083337364316,-0.216666671860991,-0.03194444645704,-0.0149661982432008,-0.846353769302368,0.12675453722477
0,0.92083337364316,-0.216666671860991,-0.03194444645704,0.0772744566202164,-0.557414531707764,0.25961771607399
0,1.00000001649321,-0.212499996211229,-0.0652777787193518,-0.0442877300083637,-0.390037447214127,0.242818936705589
0,1.04861113515939,-0.215277779977737,-0.102777780553444,-0.101709060370922,-0.0659734457731247,0.18539759516716
0,1.05000002704265,-0.2194444556275,-0.126388893944906,-0.22204951941967,0.341779112815857,0.298713117837906
0,0.954166681593543,-0.200000005729836,-0.1194444466846,-0.389121174812317,0.765414178371429,0.222965821623802
0,1.02500007039179,-0.224999998848587,-0.0680555564078778,-0.26419922709465,1.23700213432312,0.0839939713478088
0,1.13750002119222,-0.227777782615095,-0.0652777787193518,-0.1795943826437,0.997848391532898,0.0592539273202419
0,1.03750000009336,-0.206944452990142,0.00555555575692586,-0.251371055841446,0.620333671569824,0.0781907513737679
0,1.0305556379248,-0.230555566381603,0.0625000010308258,-0.211970239877701,0.450207680463791,0.00763581553474069
0,1.01805561097552,-0.250000004123303,0.0458333348996699,-0.0980438739061356,-0.0192422550171614,-0.0363464802503586
0,1.02916674604155,-0.241666677135707,0.0208333341834404,-0.0387899428606033,-0.162184715270996,-0.125227376818657
0,1.05277781080915,-0.275000009398019,0.0208333341834404,-0.0574213340878487,-0.211053937673569,-0.23823744058609
0,0.997222232726705,-0.243055569018962,-0.00555555575692586,-0.119729585945606,-0.0742201283574104,-0.132863193750381
0,0.940277860008718,-0.241666677135707,0.029166668768514,-0.150578290224075,-0.225714713335037,-0.28557950258255
0,0.970833384192592,-0.159722226207217,0.029166668768514,-0.0873537287116051,-0.214108273386955,-0.373544096946716
0,0.940277860008718,-0.241666677135707,-0.0152777788063885,0.0397062413394451,-0.135001212358475,-0.660039901733398
0,0.947222222177272,-0.250000004123303,-0.0111111115138517,0.0394008085131645,-0.0436768643558025,-0.578183948993683
0,0.887500065692777,-0.265277790527169,0.03194444645704,0.0687223374843597,-0.288022965192795,-1.12460291385651
0,1.09166668629255,-0.230555566381603,-0.0513888902767219,0.298102229833603,-0.0372627787292004,-1.14842665195465
0,1.11250006454136,-0.224999998848587,-0.0444444460554069,0.556498229503632,-0.0409279726445675,-1.05313169956207
0,0.987499989543926,-0.0388888906783549,-0.143055560076062,0.229685336351395,0.287106662988663,-0.345138877630234
0,1.36805558757383,-0.12777778582816,0.00277777787846293,0.288939267396927,0.565050363540649,0.236404851078987
0,1.26944445835822,-0.131944449321958,0.0416666683668809,0.0849102661013603,-0.248316720128059,-0.239764615893364
0,1.10138892947533,-0.0902777839940679,-0.0250000007162294,-0.114842668175697,-0.137139245867729,-0.127976268529892
0,1.04861113515939,-0.115277783190802,-0.0138888899621255,-0.146913096308708,-0.00152716308366507,-0.0571159012615681
0,1.00277780025972,-0.125000002061652,0.00555555575692586,-0.134084925055504,-0.177150920033455,-0.167987942695618
0,1.0305556379248,-0.115277783190802,-0.0236111118719664,-0.130114302039146,0.0507018156349659,-0.00519235478714108
0,1.01111115155925,-0.126388893944906,-0.0236111118719664,-0.109039448201656,0.129503428936005,-0.0210748501121998
0,1.01388893532575,-0.1194444466846,-0.0222222230277034,-0.0632245540618896,0.292604446411133,0.00855211354792118
0,0.976388951725609,-0.10972222781375,-0.0222222230277034,0.0268780700862408,0.411417752504349,0.184786736965179
0,0.938888968125464,-0.169444445078067,0.0416666683668809,0.0537561401724815,0.420886158943176,0.386372268199921
0,0.877777822509998,-0.14722222356986,0.0222222230277034,0.0916297882795334,0.340251952409744,0.335670441389084
0,1.14027780495873,-0.158333334323963,0.0444444460554069,-0.0381790772080422,0.0219911485910416,-0.0452040284872055
0,1.14027780495873,-0.158333334323963,0.0444444460554069,-0.0409279726445675,0.147218525409698,-0.127670839428902
0,1.04166667574312,-0.14722222356986,0.0416666683668809,-0.10598511993885,0.129808858036995,-0.00397062394768
0,0.899999995394348,-0.170833336961321,0.0625000010308258,-0.201585531234741,0.142026171088219,-0.271835029125214
0,0.899999995394348,-0.170833336961321,0.0625000010308258,-0.0897971913218498,0.0323758572340012,-0.177761793136597
0,1.05694448645892,-0.163888889701015,0.033333335301303,-0.0595593601465225,-0.0125227374956012,0.0430659987032413
0,0.986111194908388,-0.122222230451108,0.0680555564078778,0.000610865245107561,0.0106901414692402,0.0103847095742822
0,0.986111194908388,-0.122222230451108,0.0680555564078778,0.0949895456433296,-0.0244346093386412,0.321620553731918
0,0.827777811960566,-0.0944444474878658,0.0625000010308258,0.178678080439568,-0.141415297985077,1.05313169956207
0,1.15833339944103,-0.176388892338373,-0.0250000007162294,0.16890424489975,-0.0784961804747581,1.258993268013
0,1.15833339944103,-0.176388892338373,-0.0250000007162294,0.0305432621389627,-0.118813291192055,0.00183259579353034
0,1.29861118790655,-0.187500003092477,0.0152777788063885,-0.0583376325666905,-0.0684169083833694,-0.0213802829384804
0,1.14444448060849,-0.226388890731841,0.029166668768514,-0.0849102661013603,0.0720821022987366,-0.0952949747443199
0,1.14444448060849,-0.226388890731841,0.029166668768514,-0.180816113948822,-0.0161879286170006,-0.0910189226269722
0,1.09444447005906,-0.193055558469529,0.033333335301303,-0.186924770474434,-0.0348193198442459,-0.0366519130766392
0,1.07500008094122,-0.18333333959868,0.0222222230277034,-0.172874867916107,0.0522289797663689,-0.0149661982432008
5,1.05555559457566,-0.17361112072783,0.0125000003581147,-0.140499010682106,0.0781907513737679,-0.0348193198442459
5,0.990277773310434,-0.161111118090472,0.0152777788063885,-0.078801617026329,0.0616973899304867,-0.0226020142436027
5,0.979166735492117,-0.175000000455119,0.0222222230277034,-0.027488935738802,0.0852157026529312,-0.0244346093386412
5,1.01527782720901,-0.188888894975731,0.0208333341834404,0.0122173046693206,0.0659734457731247,-0.0821613743901253
5,1.04305556762637,-0.195833342236038,0.0347222241455659,0.0326812900602817,0.0265726372599602,-0.0882700309157372
5,1.02777785415829,-0.187500003092477,0.027777779924251,0.0415388382971287,-0.000610865245107561,-0.0558941699564457
5,1.02222228662528,-0.17361112072783,0.0222222230277034,0.0519235469400883,-0.00122173049021512,-0.04764748737216
5,1.01527782720901,-0.163888889701015,0.030555557612777,0.0311541277915239,0.00733038317412138,-0.0167987942695618
5,1.00972225967599,-0.170833336961321,0.029166668768514,0.029626963660121,-0.000305432622553781,-0.0103847095742822
5,1.01944450285877,-0.17361112072783,0.0250000007162294,0.0546724386513233,-0.0213802829384804,0.00183259579353034
5,1.02500007039179,-0.168055565350778,0.029166668768514,0.0705549344420433,-0.0351247526705265,0.0189368221908808
5,1.01944450285877,-0.170833336961321,0.0236111118719664,0.0708603709936142,-0.0149661982432008,0.0836885422468185
5,1.01527782720901,-0.17361112072783,0.0111111115138517,-0.0103847095742822,0.00580321997404099,0.0607810914516449
5,1.01805561097552,-0.14722222356986,0.0138888899621255,-0.0873537287116051,-0.0372627787292004,0.00671951752156019
5,1.01944450285877,-0.170833336961321,0.0388888906783549,-0.0959058403968811,-0.0400116741657257,-0.013744467869401
5,1.03194452980806,-0.17361112072783,0.0236111118719664,-0.0308486949652433,0.0103847095742822,-0.0381790772080422
5,1.02777785415829,-0.184722231481934,0.03194444645704,0.00366519158706069,0.0552833043038845,-0.0332921557128429
5,1.02916674604155,-0.180555567988136,0.0347222241455659,-0.00305432616733015,0.130419731140137,0.00824668072164059
5,1.0125000434425,-0.176388892338373,0.0236111118719664,-0.00580321997404099,0.144775062799454,0.0339030213654041
5,1.00000001649321,-0.16527778158427,0.0361111129898289,0.00580321997404099,-0.00519235478714108,-0.0198531206697226
5,1.0125000434425,-0.180555567988136,0.029166668768514,-0.0131336031481624,-0.0262672062963247,-0.0351247526705265
5,1.02916674604155,-0.180555567988136,0.0416666683668809,0.0128281703218818,-0.0415388382971287,-0.0403171069920063
5,1.02916674604155,-0.190277786858986,0.03194444645704,0.0418442711234093,-0.0726929605007172,-0.0433714315295219
5,1.00972225967599,-0.176388892338373,0.0361111129898289,0.0442877300083637,-0.124005645513535,-0.027488935738802
5,0.987499989543926,-0.175000000455119,0.0361111129898289,0.02382374368608,-0.176234617829323,0.0314595587551594
5,1.01111115155925,-0.17361112072783,0.0222222230277034,0.0638354197144508,-0.163406446576118,0.0729983970522881
5,1.03888889197661,-0.16527778158427,0.0125000003581147,0.112399205565453,-0.0607810914516449,0.0592539273202419
5,1.08055555122652,-0.180555567988136,0.0986111170596459,0.195476874709129,-0.0943786799907684,0.143858760595322
5,1.0361111082101,-0.163888889701015,0.0236111118719664,0.087659165263176,0.0342084541916847,0.0870482996106148
5,1.01527782720901,-0.187500003092477,0.030555557612777,0.0675006061792374,0.0323758572340012,0.058643065392971
5,1.00972225967599,-0.190277786858986,0.0222222230277034,0.0748309940099716,0.0222965814173222,0.0497855171561241
5,1.02083339474202,-0.187500003092477,0.0125000003581147,0.0998764708638191,0.0968221426010132,0.0177150927484035
5,1.01944450285877,-0.180555567988136,0.0152777788063885,0.0971275717020035,0.113315500319004,0.011606439948082
5,1.02500007039179,-0.188888894975731,0.0111111115138517,0.0946841165423393,0.146607652306557,-0.0171042270958424
5,1.02361117850853,-0.176388892338373,0.03194444645704,0.0864374339580536,0.108734011650086,-0.00885754637420177
5,1.00833336779274,-0.163888889701015,0.03194444645704,0.0580321997404099,0.0439822971820831,0.00427605677396059
5,1.01944450285877,-0.180555567988136,0.0388888906783549,0.0277943685650826,0.0293215326964855,0.00519235478714108
5,1.00555558402623,-0.179166676104882,0.029166668768514,0.00763581553474069,0.00641408516094089,-0.00733038317412138
5,1.01111115155925,-0.18333333959868,0.026388891079988,-0.0372627787292004,-0.0534507073462009,-0.000610865245107561
5,1.0125000434425,-0.187500003092477,0.0111111115138517,0.0201585534960032,-0.102625362575054,0.0140499006956816
5,1.00833336779274,-0.179166676104882,0.0250000007162294,0.00427605677396059,-0.138666406273842,0.00733038317412138
5,1.0305556379248,-0.170833336961321,0.026388891079988,-0.00671951752156019,-0.0827722400426865,0.00916297826915979
5,1.02916674604155,-0.166666673467524,0.0152777788063885,0.00885754637420177,-0.0277943685650826,0.0299323964864016
5,1.02638896227504,-0.163888889701015,0.0208333341834404,0.000610865245107561,0.0171042270958424,0.0482583530247212
5,1.05000002704265,-0.180555567988136,0.0194444453391775,0.0161879286170006,0.0842994004487991,0.0335975885391235
5,1.03888889197661,-0.198611113846581,0.027777779924251,0.0751364231109619,0.139888137578964,0.000305432622553781
5,1.00277780025972,-0.190277786858986,0.0416666683668809,0.0525344125926495,-0.00824668072164059,-0.00305432616733015
5,1.00972225967599,-0.175000000455119,0.0236111118719664,0.0271835029125214,0.00641408516094089,0.0045814891345799
5,1.02222228662528,-0.175000000455119,0.0222222230277034,0.00549778714776039,0.0421497002243996,0.015577063895762
5,0.976388951725609,-0.158333334323963,0.0680555564078778,-0.0302378293126821,-0.217468023300171,0.0766635909676552
5,1.11944452395763,-0.133333341205212,-0.0250000007162294,-0.18509216606617,-0.264810085296631,0.131336033344269
5,1.02916674604155,-0.195833342236038,0.0152777788063885,-0.13744467496872,-0.123700208961964,0.122173048555851
5,1.04583335139288,-0.190277786858986,0.00138888893923146,0.0583376325666905,-0.123089343309402,0.0607810914516449
5,0.976388951725609,-0.18333333959868,0.027777779924251,0.0901026204228401,-0.231517925858498,-0.0201585534960032
5,0.99583334084345,-0.197222234119292,0.00833333382532574,0.0739146918058395,-0.204028993844986,-0.0387899428606033
5,1.0305556379248,-0.195833342236038,-0.00833333382532574,0.0247400421649218,-0.0268780700862408,-0.0519235469400883
5,1.0513889189259,-0.170833336961321,-0.0236111118719664,0.0027488935738802,0.106595985591412,-0.000305432622553781
5,1.04305556762637,-0.162500009973726,-0.0180555564949145,0.0226020142436027,0.308486938476563,0.0259617734700441
5,1.02222228662528,-0.194444450352783,-0.0194444453391775,-0.0103847095742822,0.379958182573318,0.00305432616733015
5,0.933333400592447,-0.163888889701015,0.0486111125881959,-0.0836885422468185,0.021685715764761,0.0390953756868839
5,0.987499989543926,-0.172222228844576,0.0111111115138517,-0.109039448201656,-0.168293371796608,0.0519235469400883
5,1.04305556762637,-0.19166667874224,-0.00555555575692586,-0.0534507073462009,0.0335975885391235,0.0177150927484035
5,1.02916674604155,-0.188888894975731,0.0402777795226179,-0.00366519158706069,0.0241291765123606,0.0235183127224445
5,1.0125000434425,-0.193055558469529,0.0680555564078778,-0.0204639863222837,-0.432492583990097,0.0122173046693206
5,0.973611167959101,-0.176388892338373,-0.0958333393711199,0.0592539273202419,-0.990823447704315,0.0589484944939613
5,0.994444448960196,-0.184722231481934,-0.026388891079988,0.204639852046967,-1.0345002412796,0.105068825185299
5,0.976388951725609,-0.176388892338373,0.0750000036681839,0.11117747426033,-1.69881629943848,0.200974673032761
5,1.06250005399193,-0.187500003092477,-0.0902777839940679,0.0726929605007172,-1.77364718914032,0.296880513429642
5,1.08194444310977,-0.204166669223633,-0.133333341205212,0.0549778714776039,-1.29411804676056,0.178372651338577
5,1.05277781080915,-0.220833347510754,-0.133333341205212,0.01191187184304,-0.955698668956757,0.109039448201656
5,1.02361117850853,-0.20138889761309,-0.130555557438704,-0.0726929605007172,-0.787099897861481,0.0873537287116051
5,1.01805561097552,-0.19166667874224,-0.16527778158427,-0.0247400421649218,-0.530841886997223,0.133779495954514
5,1.00138890837647,-0.206944452990142,-0.176388892338373,-0.0531452745199203,-0.372933238744736,0.16401731967926
5,1.00000001649321,-0.216666671860991,-0.15555556271342,-0.0568104684352875,-0.3378084897995,0.10048733651638
5,1.02222228662528,-0.216666671860991,-0.176388892338373,-0.0494800843298435,-0.274278491735458,0.0577267669141293
5,1.00833336779274,-0.226388890731841,-0.150000007336368,-0.058643065392971,-0.386066824197769,0.0293215326964855
5,1.00833336779274,-0.226388890731841,-0.150000007336368,0.0378736443817616,-0.357050746679306,0.00152716308366507
5,1.00555558402623,-0.222222239394008,-0.200000005729836,0.08460483700037,-0.266031801700592,0.00763581553474069
5,1.00000001649321,-0.2194444556275,-0.208333344873396,0.0629191175103188,-0.0571159012615681,0.0458148941397667
5,1.00000001649321,-0.2194444556275,-0.208333344873396,0.0381790772080422,0.0968221426010132,0.0342084541916847
5,0.998611124609959,-0.216666671860991,-0.216666671860991,-0.0109955742955208,0.252898216247559,0.0207694191485643
5,1.00277780025972,-0.220833347510754,-0.16527778158427,-0.0406225398182869,0.0937678143382072,0.011606439948082
5,1.00277780025972,-0.220833347510754,-0.16527778158427,-0.0348193198442459,0.0641408488154411,0.0192422550171614
5,0.994444448960196,-0.226388890731841,-0.181944447715425,-0.011606439948082,0.0332921557128429,0.00397062394768
5,0.987499989543926,-0.2194444556275,-0.180555567988136,0.0183259565383196,0.01588249579072,-0.00824668072164059
5,0.987499989543926,-0.2194444556275,-0.180555567988136,0.0259617734700441,0.0488692186772823,0.0128281703218818
5,0.979166735492117,-0.218055563744246,-0.169444445078067,0.02382374368608,-0.0946841165423393,0.0403171069920063
5,0.993055557076942,-0.2194444556275,-0.17361112072783,0.03176499158144,-0.0784961804747581,0.0467311926186085
5,1.00416669214298,-0.223611131277262,-0.194444450352783,0.0448985956609249,-0.013744467869401,0.0403171069920063
5,1.00694447590948,-0.229166674498349,-0.195833342236038,0.0491746515035629,0.0577267669141293,0.0455094613134861
5,1.00277780025972,-0.220833347510754,-0.188888894975731,0.0427605658769607,0.0213802829384804,0.0415388382971287
5,0.99583334084345,-0.220833347510754,-0.179166676104882,0.0448985956609249,0.0302378293126821,0.0500909499824047
5,0.997222232726705,-0.223611131277262,-0.172222228844576,0.0540615729987621,0.0250454749912024,0.0397062413394451
5,0.983333411141879,-0.212499996211229,-0.184722231481934,0.0815505087375641,0.0681114718317986,-0.013744467869401
5,1.01388893532575,-0.236111109602691,-0.229166674498349,0.0684169083833694,0.427605658769607,-0.0369573459029198
5,1.07222229717471,-0.226388890731841,-0.252777787889811,0.124005645513535,1.05374252796173,-0.0986547395586967
5,1.09444447005906,-0.229166674498349,-0.259722222994153,0.0323758572340012,1.86894226074219,-0.170125976204872
5,1.03194452980806,-0.238888893369199,-0.188888894975731,0.011606439948082,2.13100337982178,-0.196087747812271
5,0.993055557076942,-0.218055563744246,-0.101388894748172,-0.0949895456433296,2.09496235847473,-0.220522359013557
5,0.952777789710289,-0.197222234119292,0.0722222259796579,-0.117896988987923,1.01617431640625,-0.18020524084568
5,0.899999995394348,-0.190277786858986,0.0402777795226179,-0.0684169083833694,0.35491269826889,-0.0629191175103188
5,0.963888924776322,-0.194444450352783,0.0152777788063885,-0.0433714315295219,0.318260788917542,-0.064446285367012
5,1.02361117850853,-0.194444450352783,0.029166668768514,-0.111482910811901,0.122478485107422,-0.0980438739061356
5,1.01666671909226,-0.205555561106887,0.00138888893923146,-0.0784961804747581,0.0739146918058395,-0.0601702257990837
5,1.00277780025972,-0.204166669223633,0.00277777787846293,-0.0711658000946045,-0.021685715764761,-0.0192422550171614
5,1.01111115155925,-0.20972223675665,0.0138888899621255,-0.0250454749912024,0.0662788823246956,-0.0164933614432812
5,0.99583334084345,-0.202777789496344,-0.00555555575692586,0.00763581553474069,0.0253509078174829,0.0320704244077206
5,0.959722249126559,-0.193055558469529,0.00138888893923146,0.0678060427308083,-0.102625362575054,0.144469633698463
5,1.01944450285877,-0.223611131277262,-0.00972222266958873,-0.0378736443817616,-0.00733038317412138,-0.00733038317412138
5,1.03888889197661,-0.218055563744246,-0.0125000003581147,0.0314595587551594,0.0574213340878487,0.0335975885391235
5,1.0125000434425,-0.2194444556275,-0.0111111115138517,-0.00671951752156019,0.0354301854968071,0.0415388382971287
5,1.00277780025972,-0.2194444556275,-0.0111111115138517,0.0369573459029198,0.00152716308366507,0.0360410511493683
5,1.00416669214298,-0.220833347510754,-0.033333335301303,0.05283984541893,-0.0671951770782471,0.019547687843442
5,1.03194452980806,-0.200000005729836,-0.0236111118719664,0.0479529201984406,0.0177150927484035,0.0424551330506802
5,1.01111115155925,-0.195833342236038,-0.00972222266958873,0.0308486949652433,-0.0131336031481624,0.0647517144680023
5,1.01805561097552,-0.202777789496344,-0.0152777788063885,0.0131336031481624,0.00122173049021512,0.0901026204228401
5,1.02777785415829,-0.212499996211229,-0.00277777787846293,0.000305432622553781,0.05283984541893,0.0754418596625328
5,1.04444445950963,-0.216666671860991,-0.0152777788063885,0.00610865233466029,0.124921940267086,0.0470366254448891
5,1.01944450285877,-0.223611131277262,-0.00972222266958873,-0.0109955742955208,0.0546724386513233,-0.0125227374956012
5,1.00694447590948,-0.238888893369199,0.00277777787846293,0.00702495034784079,0.0583376325666905,-0.0500909499824047
5,0.99583334084345,-0.233333350148112,0.0208333341834404,0.00183259579353034,0.0207694191485643,-0.076052725315094
5,1.01666671909226,-0.234722242031366,0.0111111115138517,0.000916297896765172,0.0626136884093285,-0.113620936870575
5,1.00277780025972,-0.223611131277262,0.0138888899621255,0.0400116741657257,0.0210748501121998,-0.0934623852372169
5,0.994444448960196,-0.206944452990142,0.00555555575692586,0.0733038261532784,-0.0632245540618896,-0.0128281703218818
5,1.00555558402623,-0.197222234119292,-0.00555555575692586,0.0430659987032413,-0.102930791676045,0.0351247526705265
5,1.0125000434425,-0.200000005729836,-0.00833333382532574,0.03176499158144,-0.0659734457731247,0.0256563406437635
5,1.00972225967599,-0.20138889761309,-0.00833333382532574,0.0348193198442459,-0.0763581544160843,0.00916297826915979
5,1.02222228662528,-0.216666671860991,-0.00555555575692586,0.0485637858510017,-0.04764748737216,0.00610865233466029
5,1.02500007039179,-0.222222239394008,-0.00416666691266287,0.0247400421649218,0.0503963828086853,-0.0284052342176437
5,1.00972225967599,-0.216666671860991,-0.00138888893923146,0.0128281703218818,0.0448985956609249,-0.0378736443817616
5,1.00833336779274,-0.223611131277262,-0.00555555575692586,-0.0262672062963247,0.0290160998702049,-0.0213802829384804
5,1.00555558402623,-0.229166674498349,0.00555555575692586,-0.027488935738802,0.00549778714776039,-0.00580321997404099
5,1.01111115155925,-0.238888893369199,-0.00555555575692586,0.0516181141138077,-0.0507018156349659,0.00885754637420177
5,0.998611124609959,-0.254166679773066,0.0125000003581147,0.058643065392971,-0.120340451598167,-0.00244346098043024
5,1.02361117850853,-0.24583335278547,-0.00694444498106275,0.110566608607769,-0.0595593601465225,-0.0299323964864016
5,1.04027778385987,-0.226388890731841,-0.00972222266958873,0.108428582549095,0.0262672062963247,-0.00916297826915979
5,1.0125000434425,-0.216666671860991,0.00138888893923146,0.124311074614525,0.0464257597923279,-0.0247400421649218
5,0.993055557076942,-0.200000005729836,0.00833333382532574,0.0888808965682983,-0.0595593601465225,-0.000305432622553781
5,1.0125000434425,-0.19166667874224,-0.00972222266958873,0.0497855171561241,-0.0531452745199203,0.02382374368608
5,1.01805561097552,-0.186111123365188,-0.00416666691266287,0.0268780700862408,-0.0510072484612465,0.019547687843442
5,1.01527782720901,-0.181944447715425,-0.00833333382532574,-0.0021380283869803,-0.0546724386513233,0.0369573459029198
5,1.02500007039179,-0.18333333959868,-0.0125000003581147,-0.000305432622553781,0.0641408488154411,0.0452040284872055
5,1.01805561097552,-0.180555567988136,-0.0138888899621255,-0.0134390350431204,0.0167987942695618,0.0565050356090069
5,1.0125000434425,-0.18333333959868,-0.00277777787846293,-0.0271835029125214,-0.0122173046693206,0.0748309940099716
5,1.01944450285877,-0.188888894975731,-0.00972222266958873,-0.0171042270958424,0.0430659987032413,0.0885754600167274
5,1.04583335139288,-0.200000005729836,-0.0208333341834404,0.0177150927484035,0.12156218290329,0.0723875313997269
5,1.02222228662528,-0.206944452990142,-0.00833333382532574,0.00152716308366507,0.134084925055504,0.0387899428606033
5,0.998611124609959,-0.208333344873396,-0.00833333382532574,-0.0134390350431204,0.090408056974411,0.00122173049021512
5,0.993055557076942,-0.208333344873396,0.00694444498106275,-0.0143553335219622,0.0607810914516449,-0.000610865245107561
5,1.00277780025972,-0.206944452990142,0.00694444498106275,0.0525344125926495,-0.0455094613134861,0.0103847095742822
5,1.00277780025972,-0.206944452990142,0.00694444498106275,0.0531452745199203,-0.0369573459029198,0.0201585534960032
5,1.01527782720901,-0.206944452990142,-0.00416666691266287,0.0113010071218014,-0.0235183127224445,0.0021380283869803
5,1.01944450285877,-0.208333344873396,-0.00416666691266287,-0.0372627787292004,0.0167987942695618,-0.00641408516094089
5,1.01944450285877,-0.208333344873396,-0.00416666691266287,-0.00152716308366507,-0.0235183127224445,-0.00885754637420177
5,1.04166667574312,-0.226388890731841,-0.00555555575692586,0.0959058403968811,0.058643065392971,-0.0131336031481624
5,1.0305556379248,-0.222222239394008,-0.00555555575692586,0.0965167060494423,0.149051114916802,-0.0293215326964855
5,1.0305556379248,-0.222222239394008,-0.00555555575692586,0.0204639863222837,0.203112691640854,-0.113620936870575
5,1.01944450285877,-0.218055563744246,-0.00138888893923146,-0.00671951752156019,0.137750118970871,-0.0473420582711697
5,0.993055557076942,-0.223611131277262,0.030555557612777,-0.0412334054708481,0.0284052342176437,-0.0577267669141293
5,0.993055557076942,-0.223611131277262,0.030555557612777,-0.0949895456433296,-0.0250454749912024,-0.0882700309157372
5,0.99583334084345,-0.220833347510754,0.0388888906783549,-0.109344877302647,-0.0952949747443199,-0.102319926023483
5,1.01666671909226,-0.202777789496344,0.0194444453391775,-0.0998764708638191,-0.144775062799454,-0.102319926023483
5,1.01666671909226,-0.202777789496344,0.0194444453391775,-0.0671951770782471,-0.090408056974411,-0.0497855171561241
5,1.05416670269241,-0.187500003092477,0.0402777795226179,-0.0717766657471657,0.101403631269932,0.00610865233466029
5,1.00416669214298,-0.200000005729836,0.0222222230277034,-0.0503963828086853,0.104763388633728,-0.0161879286170006
5,1.00416669214298,-0.200000005729836,0.0222222230277034,-0.0027488935738802,0.0699440687894821,-0.0045814891345799
5,1.00416669214298,-0.200000005729836,0.0194444453391775,0.0598647929728031,0.0180205255746841,-0.0100792767480016
5,0.99583334084345,-0.211111128639904,0.0250000007162294,0.0452040284872055,0.00549778714776039,0.00305432616733015
5,1.00972225967599,-0.218055563744246,0.0166666676506515,0.0598647929728031,0.0742201283574104,-0.00549778714776039
5,1.02916674604155,-0.213888888094483,0.0111111115138517,0.0656680166721344,0.120035022497177,0.01588249579072
5,1.02361117850853,-0.205555561106887,0.0138888899621255,0.0418442711234093,0.126143679022789,0.02382374368608
5,1.01944450285877,-0.206944452990142,0.0166666676506515,0.00946841109544039,0.0861319974064827,0.0589484944939613
5,1.01111115155925,-0.212499996211229,0.0375000018340919,0.0232128798961639,0.0812450796365738,0.0784961804747581
5,1.00555558402623,-0.216666671860991,0.0361111129898289,-0.00122173049021512,0.0543670058250427,0.0894917547702789
5,1.00972225967599,-0.2194444556275,0.029166668768514,0.0106901414692402,0.0467311926186085,0.0693332031369209
5,1.00833336779274,-0.236111109602691,0.033333335301303,0.0378736443817616,0.03176499158144,0.0583376325666905
5,1.00277780025972,-0.238888893369199,0.0361111129898289,0.090408056974411,0.0369573459029198,0.0394008085131645
5,1.00000001649321,-0.234722242031366,0.03194444645704,0.148134827613831,0.0134390350431204,0.0253509078174829
5,0.997222232726705,-0.218055563744246,0.0222222230277034,0.187230199575424,-0.00671951752156019,0.0253509078174829
5,1.00833336779274,-0.202777789496344,0.0180555564949145,0.190895393490791,-0.0033597587607801,0.0229074470698834
5,1.01666671909226,-0.181944447715425,0.0166666676506515,0.183870434761047,-0.00702495034784079,0.0354301854968071
5,1.01527782720901,-0.176388892338373,0.0222222230277034,0.153021737933159,-0.0109955742955208,0.0302378293126821
5,1.01944450285877,-0.181944447715425,0.0222222230277034,0.129808858036995,-0.00824668072164059,0.0311541277915239
5,1.02361117850853,-0.193055558469529,0.0250000007162294,0.10598511993885,-0.0100792767480016,0.0229074470698834
5,1.02222228662528,-0.200000005729836,0.0361111129898289,0.0836885422468185,0.00122173049021512,0.0171042270958424
5,1.01527782720901,-0.208333344873396,0.029166668768514,0.0748309940099716,0.00824668072164059,0.0204639863222837
5,1.01388893532575,-0.224999998848587,0.0458333348996699,0.0913243517279625,0.00152716308366507,0.0171042270958424
5,1.02083339474202,-0.236111109602691,0.029166668768514,0.129197999835014,0.00519235478714108,0.0210748501121998
5,1.02222228662528,-0.254166679773066,0.0416666683668809,0.188451930880547,0.00977384392172098,0.00702495034784079
5,1.02083339474202,-0.251388896006557,0.0416666683668809,0.251065611839294,0.0189368221908808,0.000916297896765172
5,1.01666671909226,-0.251388896006557,0.0430555572111439,0.294742494821549,0.00122173049021512,-0.013744467869401
5,1.01111115155925,-0.230555566381603,0.0500000014324589,0.318566232919693,-0.00366519158706069,-0.0146607663482428
5,1.01388893532575,-0.20138889761309,0.0583333375370279,0.299934834241867,0.00610865233466029,-0.00855211354792118
5,1.00555558402623,-0.17361112072783,0.052777782159976,0.261755764484406,-0.0033597587607801,-0.00549778714776039
5,1.00138890837647,-0.14722222356986,0.052777782159976,0.209832206368446,-0.0299323964864016,0.000916297896765172
5,1.01805561097552,-0.140277788465518,0.0416666683668809,0.160657554864883,-0.0259617734700441,-0.0143553335219622
5,1.03750000009336,-0.143055560076062,0.030555557612777,0.101403631269932,0.0192422550171614,-0.0186313893646002
5,1.03194452980806,-0.144444451959316,0.03194444645704,0.0510072484612465,0.0412334054708481,-0.0494800843298435
5,1.00000001649321,-0.148611115453114,0.0250000007162294,-0.00977384392172098,-0.0143553335219622,-0.0574213340878487
5,1.00555558402623,-0.161111118090472,0.0152777788063885,-0.0616973899304867,-0.0253509078174829,-0.0684169083833694
5,1.01388893532575,-0.177777784221628,0.0111111115138517,-0.105374254286289,-0.00488692196086049,-0.0699440687894821
5,1.01666671909226,-0.193055558469529,0.0222222230277034,-0.138666406273842,0.0235183127224445,-0.0711658000946045
5,1.01527782720901,-0.212499996211229,0.0236111118719664,-0.137139245867729,0.021685715764761,-0.0711658000946045
5,1.00972225967599,-0.226388890731841,0.0180555564949145,-0.121256753802299,0.0131336031481624,-0.0613919571042061
5,1.01111115155925,-0.233333350148112,0.0152777788063885,-0.096211276948452,0.0213802829384804,-0.0439822971820831
5,1.01527782720901,-0.227777782615095,0.00972222266958873,-0.0726929605007172,0.0537561401724815,-0.0348193198442459
5,1.01388893532575,-0.222222239394008,0.0166666676506515,-0.0513126812875271,0.0226020142436027,-0.00580321997404099
5,1.00972225967599,-0.194444450352783,0.0152777788063885,-0.04764748737216,0.0280998013913631,0.00733038317412138
5,1.01527782720901,-0.200000005729836,-0.00138888893923146,0.0397062413394451,-0.132557764649391,0.0662788823246956
5,1.04027778385987,-0.181944447715425,0.0152777788063885,-0.0311541277915239,0.145691365003586,0.00488692196086049
5,1.0125000434425,-0.152777778946911,0.00972222266958873,-0.128892570734024,0.0549778714776039,0.0436768643558025
5,0.984722303025134,-0.143055560076062,0.0388888906783549,-0.226020142436027,-0.107512280344963,0.0549778714776039
5,1.05000002704265,-0.186111123365188,0.0166666676506515,-0.205250725150108,0.183565005660057,0.0574213340878487
5,1.02500007039179,-0.216666671860991,0.0375000018340919,-0.167682513594627,0.0959058403968811,0.0210748501121998
5,1.01944450285877,-0.215277779977737,0.029166668768514,-0.145080491900444,0.0543670058250427,0.0177150927484035
5,1.01666671909226,-0.212499996211229,0.0347222241455659,-0.156992360949516,0.0607810914516449,0.0045814891345799
5,1.0125000434425,-0.202777789496344,0.029166668768514,-0.1750128865242,0.0629191175103188,0.0125227374956012
5,0.994444448960196,-0.20972223675665,0.0444444460554069,-0.186924770474434,-0.0268780700862408,0.027488935738802
5,1.01805561097552,-0.223611131277262,0.0180555564949145,-0.161573857069016,0.00702495034784079,0.0131336031481624
5,1.01944450285877,-0.226388890731841,0.0361111129898289,-0.130114302039146,0.0452040284872055,-0.00855211354792118
5,1.00972225967599,-0.2194444556275,0.0416666683668809,-0.121867619454861,0.0100792767480016,-0.0171042270958424
5,1.01527782720901,-0.202777789496344,0.0361111129898289,-0.124616511166096,0.0302378293126821,-0.011606439948082
5,1.00277780025972,-0.193055558469529,0.0430555572111439,-0.145385921001434,-0.0332921557128429,0.00794124789535999
5,0.973611167959101,-0.193055558469529,0.0416666683668809,-0.159435823559761,-0.129503428936005,-0.0128281703218818
5,1.06805562152495,-0.226388890731841,0.00277777787846293,-0.142331600189209,-0.00122173049021512,-0.0113010071218014
5,1.04444445950963,-0.215277779977737,0.00694444498106275,-0.130419731140137,0.0830776765942574,-0.0381790772080422
5,1.02222228662528,-0.212499996211229,0.0250000007162294,-0.13744467496872,0.0919352173805237,-0.0519235469400883
5,1.01666671909226,-0.202777789496344,0.03194444645704,-0.149051114916802,0.122173048555851,-0.0613919571042061
5,1.01666671909226,-0.212499996211229,0.029166668768514,-0.148745685815811,0.102014496922493,-0.0592539273202419
5,1.0125000434425,-0.2194444556275,0.029166668768514,-0.102319926023483,0.0613919571042061,-0.05283984541893
5,0.983333411141879,-0.222222239394008,0.0416666683668809,-0.0971275717020035,-0.01588249579072,-0.0335975885391235
5,0.96666670854283,-0.216666671860991,0.0541666679652478,-0.0791070461273193,-0.203418120741844,0.0106901414692402
5,0.961111141009813,-0.20972223675665,0.0541666679652478,-0.115148097276688,-0.429132848978043,-0.00977384392172098
5,1.147222264375,-0.240277785252453,-0.030555557612777,-0.0870482996106148,0.244346097111702,-0.0855211317539215
5,1.06250005399193,-0.20972223675665,0.030555557612777,-0.0855211317539215,0.154548913240433,0.0033597587607801
5,0.973611167959101,-0.213888888094483,0.03194444645704,-0.12156218290329,-0.167071640491486,-0.011606439948082
5,1.03472221632685,-0.208333344873396,0.0194444453391775,-0.115148097276688,0.0623082555830479,-0.0189368221908808
5,1.0125000434425,-0.212499996211229,0.0194444453391775,-0.0745255574584007,0.027488935738802,-0.01588249579072
5,1.01388893532575,-0.206944452990142,0.0166666676506515,-0.0671951770782471,0.0650571510195732,-0.0210748501121998
5,1.01944450285877,-0.20138889761309,0.0194444453391775,-0.0580321997404099,0.113926365971565,-0.0134390350431204
5,1.01111115155925,-0.20138889761309,0.030555557612777,-0.0662788823246956,0.0262672062963247,0.011606439948082
5,1.00555558402623,-0.20972223675665,0.0222222230277034,-0.0561996027827263,0.00946841109544039,0.0149661982432008
5,1.00972225967599,-0.213888888094483,0.0236111118719664,-0.0552833043038845,-0.011606439948082,-0.0290160998702049
5,1.01527782720901,-0.223611131277262,0.030555557612777,-0.01191187184304,-0.00671951752156019,-0.011606439948082
5,1.02222228662528,-0.202777789496344,0.0236111118719664,-0.0305432621389627,0.0125227374956012,0.00610865233466029
5,1.01527782720901,-0.195833342236038,0.029166668768514,-0.0332921557128429,0.0100792767480016,0.00427605677396059
5,1.01527782720901,-0.200000005729836,0.0250000007162294,-0.04764748737216,0.00488692196086049,0.017409659922123
5,1.01388893532575,-0.211111128639904,0.0250000007162294,-0.0100792767480016,0.000610865245107561,0.00244346098043024
5,1.01388893532575,-0.211111128639904,0.0250000007162294,-0.0271835029125214,0.0244346093386412,0.00488692196086049
5,1.02222228662528,-0.197222234119292,0.0180555564949145,-0.0219911485910416,0.00763581553474069,0.0033597587607801
5,1.02222228662528,-0.19166667874224,0.0208333341834404,-0.0354301854968071,0.0351247526705265,-0.000305432622553781
5,1.02222228662528,-0.19166667874224,0.0208333341834404,-0.0363464802503586,0.0427605658769607,0.00427605677396059
5,1.01944450285877,-0.222222239394008,0.0152777788063885,-0.0705549344420433,0.0879645943641663,-0.117896988987923
5,1.00833336779274,-0.215277779977737,0.0388888906783549,0.0021380283869803,0.0992656052112579,-0.131946891546249
5,1.00833336779274,-0.215277779977737,0.0388888906783549,0.0308486949652433,0.0833831056952477,-0.100181899964809
5,1.0125000434425,-0.208333344873396,0.0250000007162294,0.0351247526705265,0.10598511993885,-0.108428582549095
5,0.979166735492117,-0.180555567988136,0.0486111125881959,0.0256563406437635,0.0534507073462009,0.0027488935738802
5,0.979166735492117,-0.180555567988136,0.0486111125881959,-0.0021380283869803,-0.0916297882795334,0.0320704244077206
5,1.02777785415829,-0.179166676104882,0.0222222230277034,0.00366519158706069,0.00549778714776039,0.0503963828086853
5,1.01944450285877,-0.211111128639904,0.0361111129898289,-0.00488692196086049,0.0412334054708481,-0.0244346093386412
5,1.01944450285877,-0.211111128639904,0.0361111129898289,0.0189368221908808,-0.0152716310694814,-0.0552833043038845
5,1.0125000434425,-0.206944452990142,0.0250000007162294,0.0250454749912024,-0.0213802829384804,-0.0152716310694814
5,1.00972225967599,-0.193055558469529,0.030555557612777,0.01191187184304,-0.000305432622553781,0.0180205255746841
5,1.00694447590948,-0.176388892338373,0.029166668768514,-0.00885754637420177,-0.0409279726445675,0.0638354197144508
5,1.00972225967599,-0.187500003092477,0.029166668768514,-0.0213802829384804,-0.0348193198442459,0.0714712366461754
5,1.00694447590948,-0.187500003092477,0.027777779924251,-0.0226020142436027,-0.0354301854968071,0.0503963828086853
5,1.01805561097552,-0.202777789496344,0.0250000007162294,-0.00733038317412138,-0.0342084541916847,0.0400116741657257
5,1.01944450285877,-0.194444450352783,0.0375000018340919,-0.0314595587551594,-0.0045814891345799,0.0415388382971287
5,1.01805561097552,-0.187500003092477,0.033333335301303,-0.0403171069920063,-0.0308486949652433,0.00946841109544039
5,1.01944450285877,-0.206944452990142,0.0402777795226179,-0.0335975885391235,0.0531452745199203,0.0045814891345799
5,1.01944450285877,-0.205555561106887,0.0138888899621255,-0.00122173049021512,0.0189368221908808,-0.0045814891345799
5,1.01111115155925,-0.206944452990142,0.0250000007162294,-0.00397062394768,-0.0956004112958908,0.0128281703218818
5,1.00000001649321,-0.197222234119292,0.0347222241455659,-0.0311541277915239,0.127976268529892,0.000305432622553781
5,1.03472221632685,-0.206944452990142,0.0500000014324589,0.0268780700862408,-0.127976268529892,0.0149661982432008
5,0.998611124609959,-0.205555561106887,0.0472222237439329,-0.0122173046693206,0.0122173046693206,0.013744467869401
5,1.03888889197661,-0.200000005729836,0.0250000007162294,0.0256563406437635,0.0561996027827263,-0.0113010071218014
5,1.01388893532575,-0.206944452990142,0.029166668768514,0.0265726372599602,-0.0277943685650826,0.011606439948082
5,1.00416669214298,-0.205555561106887,0.0361111129898289,0.0268780700862408,-0.0109955742955208,0.0314595587551594
5,1.02361117850853,-0.20972223675665,0.0250000007162294,0.0290160998702049,-0.0027488935738802,0.0198531206697226
5,0.986111194908388,-0.211111128639904,0.0625000010308258,0.0259617734700441,-0.206472456455231,0.0360410511493683
5,1.02222228662528,-0.202777789496344,0.026388891079988,0.0280998013913631,-0.00916297826915979,0.00519235478714108
5,1.03888889197661,-0.200000005729836,0.0138888899621255,0.0180205255746841,0.0235183127224445,0.0186313893646002
5,1.01944450285877,-0.197222234119292,0.029166668768514,0.0033597587607801,-0.0128281703218818,0.0363464802503586
5,1.01944450285877,-0.193055558469529,0.029166668768514,0.00794124789535999,-0.0161879286170006,0.0418442711234093
5,1.01527782720901,-0.197222234119292,0.0194444453391775,0.0045814891345799,-0.0839939713478088,0.0452040284872055
5,0.99583334084345,-0.20972223675665,0.0513888902767219,-0.00580321997404099,-0.260534018278122,-0.0412334054708481
5,0.968055600426084,-0.188888894975731,0.0500000014324589,-0.126143679022789,-0.524122357368469,0.0100792767480016
5,1.06805562152495,-0.223611131277262,-0.0250000007162294,-0.00305432616733015,0.0106901414692402,0.0345138870179653
5,1.04166667574312,-0.20138889761309,-0.00277777787846293,0.0342084541916847,0.037568211555481,0.0213802829384804
5,1.0305556379248,-0.206944452990142,0.0152777788063885,-0.0241291765123606,-0.0390953756868839,0.0293215326964855
5,1.00416669214298,-0.180555567988136,0.00972222266958873,0.0207694191485643,-0.111482910811901,-0.00244346098043024
5,1.02916674604155,-0.170833336961321,0.0111111115138517,-0.0256563406437635,-0.0485637858510017,0.0167987942695618
5,1.00277780025972,-0.195833342236038,0.0125000003581147,0.0045814891345799,-0.0620028227567673,0.0623082555830479
5,1.01527782720901,-0.20972223675665,0.00972222266958873,0.108734011650086,-0.141109868884087,0.01191187184304
5,1.02916674604155,-0.226388890731841,0.0111111115138517,0.113010071218014,-0.16371189057827,0.0723875313997269
5,1.04583335139288,-0.212499996211229,-0.00555555575692586,0.013744467869401,-0.0342084541916847,0.0378736443817616
5,1.01527782720901,-0.20972223675665,-0.0375000018340919,-0.0690277740359306,-0.0913243517279625,0.0348193198442459
5,1.02222228662528,-0.208333344873396,0.00555555575692586,0.01588249579072,0.0222965814173222,0.0491746515035629
5,0.993055557076942,-0.197222234119292,0.026388891079988,0.0726929605007172,-0.170736834406853,0.0357356183230877
5,0.96666670854283,-0.200000005729836,0.00555555575692586,0.0754418596625328,-0.335670441389084,0.037568211555481
5,1.00000001649321,-0.213888888094483,-0.0125000003581147,0.058643065392971,-0.296269655227661,0.0345138870179653
5,1.03750000009336,-0.206944452990142,-0.0250000007162294,0.0571159012615681,-0.164628177881241,0.0400116741657257
5,1.02222228662528,-0.204166669223633,-0.029166668768514,0.112704634666443,-0.165849909186363,0.0543670058250427
5,1.00416669214298,-0.226388890731841,-0.0125000003581147,0.164933621883392,-0.241902634501457,0.0354301854968071
5,1.00972225967599,-0.233333350148112,-0.0222222230277034,0.166766211390495,-0.19058994948864,-0.000610865245107561
5,1.0361111082101,-0.212499996211229,-0.0416666683668809,0.145080491900444,-0.0418442711234093,-0.0421497002243996
5,1.05416670269241,-0.200000005729836,-0.0472222237439329,0.0949895456433296,0.139582708477974,-0.0436768643558025
5,1.04305556762637,-0.194444450352783,-0.0375000018340919,-0.0103847095742822,0.283441483974457,-0.0222965814173222
5,1.0361111082101,-0.188888894975731,-0.0208333341834404,-0.112704634666443,0.384539663791656,-0.000305432622553781
5,1.02638896227504,-0.190277786858986,-0.00972222266958873,-0.201890960335732,0.450207680463791,-0.0256563406437635
5,1.01666671909226,-0.190277786858986,0.00277777787846293,-0.217468023300171,0.464563012123108,-0.0146607663482428
5,0.977777843608863,-0.190277786858986,0.0138888899621255,-0.157603234052658,0.216246291995048,0.0345138870179653
5,0.983333411141879,-0.184722231481934,-0.00138888893923146,-0.021685715764761,0.0109955742955208,0.0323758572340012
5,1.00833336779274,-0.193055558469529,0.00277777787846293,-0.0308486949652433,0.00152716308366507,0.0134390350431204
5,1.0125000434425,-0.187500003092477,-0.00555555575692586,-0.0589484944939613,-0.0106901414692402,0.000916297896765172
5,1.01527782720901,-0.187500003092477,-0.00833333382532574,-0.078801617026329,0.000916297896765172,-0.00916297826915979
5,1.01527782720901,-0.18333333959868,-0.00833333382532574,-0.0974330082535744,0.0149661982432008,-0.00244346098043024
5,1.0125000434425,-0.190277786858986,0.00555555575692586,-0.120035022497177,-0.00488692196086049,-0.00488692196086049
5,1.01666671909226,-0.193055558469529,-0.00555555575692586,-0.146607652306557,0.00519235478714108,-0.0109955742955208
5,1.0361111082101,-0.223611131277262,-0.0180555564949145,-0.170431405305862,0.0638354197144508,-0.0366519130766392
5,1.02222228662528,-0.238888893369199,-0.00555555575692586,-0.156686931848526,0.0965167060494423,-0.0519235469400883
5,1.01527782720901,-0.243055569018962,-0.00694444498106275,-0.0897971913218498,0.0571159012615681,-0.0339030213654041
5,1.00555558402623,-0.2194444556275,-0.00694444498106275,-0.0629191175103188,0.0400116741657257,-0.0280998013913631
5,1.00416669214298,-0.208333344873396,-0.00555555575692586,-0.070249505341053,0.0323758572340012,-0.0213802829384804
5,1.00138890837647,-0.181944447715425,-0.00555555575692586,-0.103541657328606,0.00397062394768,-0.00183259579353034
5,1.0125000434425,-0.19166667874224,-0.00555555575692586,-0.13225232064724,0.00397062394768,0.00549778714776039
5,1.01805561097552,-0.202777789496344,-0.00694444498106275,-0.149356558918953,0.011606439948082,0.00885754637420177
5,1.00277780025972,-0.212499996211229,-0.0125000003581147,-0.139888137578964,0.00488692196086049,-0.00702495034784079
5,1.00000001649321,-0.20972223675665,-0.0152777788063885,-0.133168622851372,-0.00549778714776039,-0.00427605677396059
5,1.00555558402623,-0.206944452990142,-0.0125000003581147,-0.125838235020638,-0.00488692196086049,0.00488692196086049
5,1.0125000434425,-0.205555561106887,-0.00972222266958873,-0.133168622851372,-0.0302378293126821,0.0177150927484035
5,1.0125000434425,-0.200000005729836,-0.0152777788063885,-0.143553331494331,-0.0378736443817616,0.0241291765123606
5,1.0125000434425,-0.197222234119292,-0.0180555564949145,-0.142637029290199,-0.0403171069920063,0.0262672062963247
5,1.00833336779274,-0.20138889761309,-0.026388891079988,-0.131030589342117,-0.0513126812875271,0.0351247526705265
5,1.00555558402623,-0.202777789496344,-0.026388891079988,-0.12675453722477,-0.0580321997404099,0.0342084541916847
5,1.0125000434425,-0.204166669223633,-0.027777779924251,-0.125227376818657,-0.0726929605007172,0.0445931628346443
5,1.01666671909226,-0.204166669223633,-0.03194444645704,-0.113315500319004,-0.0791070461273193,0.0433714315295219
5,1.01527782720901,-0.195833342236038,-0.0250000007162294,-0.110566608607769,-0.0641408488154411,0.0519235469400883
5,1.0125000434425,-0.197222234119292,-0.0250000007162294,-0.102014496922493,-0.0623082555830479,0.0455094613134861
5,1.00694447590948,-0.202777789496344,-0.0194444453391775,-0.108428582549095,-0.0797179117798805,0.0351247526705265
5,1.00972225967599,-0.197222234119292,-0.0250000007162294,-0.10567969083786,-0.0800233483314514,0.0259617734700441
5,1.01527782720901,-0.208333344873396,-0.0361111129898289,-0.0913243517279625,-0.0751364231109619,0.0189368221908808
5,1.02222228662528,-0.220833347510754,-0.0222222230277034,-0.0888808965682983,-0.0577267669141293,0.0134390350431204
5,1.02361117850853,-0.234722242031366,-0.0236111118719664,-0.0595593601465225,-0.0473420582711697,0.00671951752156019
5,1.02916674604155,-0.259722222994153,-0.0125000003581147,-0.0540615729987621,-0.0348193198442459,0.00641408516094089
5,1.0361111082101,-0.270833333748257,-0.00694444498106275,0.0143553335219622,-0.0235183127224445,-0.0100792767480016
5,1.03472221632685,-0.279166685047782,-0.00277777787846293,0.0757472887635231,0.0164933614432812,-0.0311541277915239
5,1.01666671909226,-0.280555576931036,0.0152777788063885,0.128892570734024,0.0403171069920063,-0.0445931628346443
5,1.01805561097552,-0.279166685047782,0.0125000003581147,0.188451930880547,0.0613919571042061,-0.0479529201984406
5,1.01944450285877,-0.279166685047782,0.0138888899621255,0.170431405305862,0.0684169083833694,-0.015577063895762
5,1.01944450285877,-0.279166685047782,0.0138888899621255,0.13225232064724,0.0210748501121998,-0.0140499006956816
5,1.01388893532575,-0.294444447139719,0.0500000014324589,0.151494577527046,-0.0384845100343227,-0.0745255574584007
5,1.04861113515939,-0.265277790527169,0.0416666683668809,0.271224170923233,0.19578230381012,-0.0980438739061356
5,1.04861113515939,-0.265277790527169,0.0416666683668809,0.338113903999329,0.335975885391235,-0.0678060427308083
5,0.963888924776322,-0.18333333959868,0.0430555572111439,0.418748140335083,0.070249505341053,-0.00305432616733015
5,0.965277816659576,-0.168055565350778,0.0402777795226179,0.313373863697052,-0.0100792767480016,-0.0210748501121998
5,0.965277816659576,-0.168055565350778,0.0402777795226179,0.248316720128059,-0.0164933614432812,-0.0342084541916847
5,0.962500032893068,-0.152777778946911,0.0500000014324589,0.207388743758202,-0.0433714315295219,-0.00855211354792118
5,1.03194452980806,-0.166666673467524,0.0444444460554069,0.176234617829323,-0.0308486949652433,0.0149661982432008
5,1.03194452980806,-0.166666673467524,0.0444444460554069,0.129197999835014,-0.0222965814173222,0.0723875313997269
5,1.04722224327614,-0.193055558469529,0.0486111125881959,0.121256753802299,-0.027488935738802,0.0922406539320946
5,1.0125000434425,-0.25555557165632,0.0513888902767219,0.142026171088219,-0.0363464802503586,0.0897971913218498
5,1.0125000434425,-0.25555557165632,0.0513888902767219,0.189673662185669,-0.0314595587551594,0.0488692186772823
5,1.00000001649321,-0.265277790527169,0.0569444456537738,0.242513507604599,-0.0253509078174829,0.0259617734700441
5,0.980555627375371,-0.24583335278547,0.0513888902767219,0.247705861926079,-0.0412334054708481,0.0106901414692402
5,0.979166735492117,-0.236111109602691,0.0569444456537738,0.242818936705589,-0.0711658000946045,0.0177150927484035
5,0.98888888142718,-0.226388890731841,0.0625000010308258,0.240680903196335,-0.0794124826788902,0.0140499006956816
5,1.01388893532575,-0.226388890731841,0.0513888902767219,0.236710280179977,-0.0696386396884918,-0.000916297896765172
5,1.03750000009336,-0.206944452990142,0.0388888906783549,0.214108273386955,-0.0458148941397667,-0.00733038317412138
5,1.04305556762637,-0.195833342236038,0.0472222237439329,0.161573857069016,-0.0235183127224445,0.00549778714776039
5,1.0333333244436,-0.190277786858986,0.0402777795226179,0.127976268529892,-0.0134390350431204,-0.00702495034784079
5,1.02500007039179,-0.197222234119292,0.0458333348996699,0.102014496922493,-0.00519235478714108,-0.021685715764761
5,1.00555558402623,-0.212499996211229,0.0486111125881959,0.123089343309402,-0.0299323964864016,-0.037568211555481
5,0.997222232726705,-0.229166674498349,0.0583333375370279,0.151189148426056,-0.0650571510195732,-0.0421497002243996
5,1.00000001649321,-0.233333350148112,0.0500000014324589,0.169820532202721,-0.0769690200686455,-0.0427605658769607
5,1.00277780025972,-0.222222239394008,0.0430555572111439,0.192422553896904,-0.098960168659687,-0.0354301854968071
5,1.00972225967599,-0.211111128639904,0.0388888906783549,0.209526777267456,-0.102930791676045,-0.0372627787292004
5,1.01805561097552,-0.206944452990142,0.030555557612777,0.212581098079681,-0.0650571510195732,-0.0366519130766392
5,1.02777785415829,-0.202777789496344,0.0208333341834404,0.207388743758202,-0.0491746515035629,-0.0448985956609249
5,1.02916674604155,-0.197222234119292,0.00972222266958873,0.178372651338577,-0.0268780700862408,-0.0470366254448891
5,1.0333333244436,-0.190277786858986,0.0194444453391775,0.130114302039146,-0.00122173049021512,-0.0323758572340012
5,1.02638896227504,-0.181944447715425,0.0222222230277034,0.0858265683054924,0.0171042270958424,-0.0259617734700441
5,1.01944450285877,-0.184722231481934,0.0222222230277034,0.0482583530247212,0.01588249579072,-0.02382374368608
5,1.01666671909226,-0.200000005729836,0.0180555564949145,0.0415388382971287,0.0277943685650826,-0.0305432621389627
5,1.02361117850853,-0.216666671860991,0.0347222241455659,0.0604756586253643,0.0345138870179653,-0.0345138870179653
5,1.01666671909226,-0.2194444556275,0.030555557612777,0.0861319974064827,0.0293215326964855,-0.0262672062963247
5,1.00555558402623,-0.223611131277262,0.0472222237439329,0.123089343309402,0.0161879286170006,-0.0497855171561241
5,0.998611124609959,-0.223611131277262,0.0347222241455659,0.162184715270996,-0.00152716308366507,-0.0436768643558025
5,0.997222232726705,-0.2194444556275,0.0375000018340919,0.183565005660057,-0.0241291765123606,-0.0302378293126821
5,1.01527782720901,-0.212499996211229,0.0152777788063885,0.199142068624496,-0.0125227374956012,-0.0329867228865623
5,1.0125000434425,-0.208333344873396,0.0125000003581147,0.203723564743996,-0.0210748501121998,-0.0339030213654041
5,1.01527782720901,-0.212499996211229,0.00694444498106275,0.208610475063324,-0.0339030213654041,-0.0265726372599602
5,1.01944450285877,-0.20138889761309,0.00138888893923146,0.213191971182823,-0.0265726372599602,-0.00885754637420177
5,1.01805561097552,-0.193055558469529,-0.0138888899621255,0.207999616861343,0.0103847095742822,-0.0167987942695618
5,1.00694447590948,-0.188888894975731,-0.00555555575692586,0.176540061831474,0.0125227374956012,-0.0229074470698834
5,1.00555558402623,-0.18333333959868,-0.00555555575692586,0.143553331494331,-0.00488692196086049,-0.0189368221908808
5,1.00972225967599,-0.179166676104882,-0.00833333382532574,0.135001212358475,0.00610865233466029,-0.0143553335219622
5,1.01805561097552,-0.176388892338373,-0.00277777787846293,0.115148097276688,0.000916297896765172,-0.0131336031481624
5,1.01944450285877,-0.175000000455119,-0.00277777787846293,0.0870482996106148,0.0171042270958424,-0.000916297896765172
5,1.02222228662528,-0.176388892338373,-0.0152777788063885,0.0601702257990837,0.00610865233466029,0.0113010071218014
5,1.02361117850853,-0.180555567988136,-0.0111111115138517,0.058643065392971,0.0198531206697226,0.0201585534960032
5,1.00972225967599,-0.18333333959868,-0.0111111115138517,0.0345138870179653,0.0293215326964855,-0.0100792767480016
5,1.00138890837647,-0.19166667874224,0.0125000003581147,0.0323758572340012,0.00427605677396059,-0.00397062394768
5,1.00138890837647,-0.197222234119292,0.00694444498106275,0.037568211555481,-0.0378736443817616,-0.00794124789535999
5,1.00555558402623,-0.195833342236038,0.00694444498106275,0.0354301854968071,-0.0510072484612465,-0.00580321997404099
5,1.00972225967599,-0.205555561106887,0.00833333382532574,0.0583376325666905,-0.0577267669141293,-0.0262672062963247
5,1.0125000434425,-0.212499996211229,0.0208333341834404,0.05283984541893,-0.0390953756868839,-0.0442877300083637
5,1.01944450285877,-0.202777789496344,0.00833333382532574,0.0320704244077206,-0.00702495034784079,-0.0436768643558025
5,1.02083339474202,-0.176388892338373,-0.00972222266958873,0.081855945289135,0.0754418596625328,-0.00671951752156019
5,1.02222228662528,-0.188888894975731,-0.00972222266958873,0.0742201283574104,0.0583376325666905,0.0381790772080422
5,1.0305556379248,-0.197222234119292,-0.0166666676506515,0.0836885422468185,0.0485637858510017,0.0332921557128429
5,1.02500007039179,-0.195833342236038,-0.0222222230277034,0.0922406539320946,0.0284052342176437,0.0250454749912024
5,1.02638896227504,-0.195833342236038,-0.0208333341834404,0.0897971913218498,0.0421497002243996,0.0122173046693206
5,1.02500007039179,-0.200000005729836,-0.0194444453391775,0.0974330082535744,0.0678060427308083,-0.00671951752156019
5,1.02638896227504,-0.187500003092477,-0.0125000003581147,0.0861319974064827,0.0525344125926495,-0.0113010071218014
5,1.01527782720901,-0.170833336961321,-0.00972222266958873,0.0546724386513233,0.0268780700862408,-0.0122173046693206
5,1.02222228662528,-0.14722222356986,-0.0125000003581147,0.0290160998702049,0.017409659922123,-0.0140499006956816
5,1.02222228662528,-0.15555556271342,-0.0152777788063885,0.00916297826915979,0.0167987942695618,0.00946841109544039
5,1.02083339474202,-0.162500009973726,-0.00555555575692586,-0.00885754637420177,0.0247400421649218,0.0210748501121998
5,1.00972225967599,-0.188888894975731,0.00972222266958873,-0.00977384392172098,0.0122173046693206,0.0430659987032413
5,1.00555558402623,-0.194444450352783,0.00416666691266287,0.000916297896765172,0.0131336031481624,0.0638354197144508
5,1.01805561097552,-0.20972223675665,0.00694444498106275,0.0161879286170006,0.000305432622553781,0.0653625801205635
5,1.02777785415829,-0.234722242031366,0.00416666691266287,0.0726929605007172,0.0183259565383196,0.0424551330506802
5,1.02222228662528,-0.227777782615095,0.00555555575692586,0.117591559886932,0.0167987942695618,0.0241291765123606
5,1.01666671909226,-0.211111128639904,0.00416666691266287,0.124921940267086,0.013744467869401,0.01191187184304
5,1.0125000434425,-0.193055558469529,0.00694444498106275,0.0986547395586967,0.0106901414692402,-0.00580321997404099
5,1.0125000434425,-0.170833336961321,0.00277777787846293,0.0507018156349659,0.015577063895762,-0.00305432616733015
5,0.99583334084345,-0.136111112815755,0.0166666676506515,-0.00794124789535999,0.00305432616733015,0.0271835029125214
5,1.01944450285877,-0.140277788465518,-0.0111111115138517,-0.10598511993885,-0.0189368221908808,0.019547687843442
5,1.03750000009336,-0.161111118090472,-0.0194444453391775,-0.148745685815811,0.0177150927484035,0.0198531206697226
5,1.02500007039179,-0.190277786858986,-0.0166666676506515,-0.124311074614525,0.0397062413394451,0.0314595587551594
5,1.02222228662528,-0.215277779977737,-0.0166666676506515,-0.106901414692402,0.00488692196086049,0.0103847095742822
5,1.03888889197661,-0.220833347510754,0.00555555575692586,-0.0968221426010132,-0.0122173046693206,-0.0100792767480016
5,1.0361111082101,-0.212499996211229,0.00833333382532574,-0.0589484944939613,-0.00855211354792118,0.0256563406437635
5,1.0361111082101,-0.212499996211229,0.00833333382532574,-0.0696386396884918,-0.0198531206697226,0.0531452745199203
5,1.00972225967599,-0.216666671860991,0.0250000007162294,-0.0748309940099716,-0.019547687843442,0.0390953756868839
5,0.99583334084345,-0.213888888094483,0.0222222230277034,-0.0662788823246956,-0.0198531206697226,0.0100792767480016
5,0.99583334084345,-0.213888888094483,0.0222222230277034,-0.0516181141138077,-0.015577063895762,-0.0531452745199203
5,1.00277780025972,-0.220833347510754,0.0402777795226179,-0.0280998013913631,-0.0287106670439243,-0.0879645943641663
5,1.01944450285877,-0.206944452990142,0.027777779924251,-0.0253509078174829,-0.0390953756868839,-0.0824668109416962
5,1.01944450285877,-0.206944452990142,0.027777779924251,-0.0418442711234093,-0.0201585534960032,-0.0552833043038845
5,1.02083339474202,-0.223611131277262,0.0152777788063885,-0.0314595587551594,-0.0045814891345799,-0.0366519130766392
5,1.01666671909226,-0.238888893369199,0.0125000003581147,-0.0180205255746841,0.0125227374956012,-0.0311541277915239
5,1.01666671909226,-0.238888893369199,0.0125000003581147,0.00152716308366507,0.0122173046693206,-0.0332921557128429
5,1.00972225967599,-0.262500006760661,0.0222222230277034,0.0436768643558025,0.03176499158144,-0.0290160998702049
5,1.01388893532575,-0.265277790527169,0.03194444645704,0.101403631269932,0.0345138870179653,-0.0461203269660473
5,1.00555558402623,-0.238888893369199,0.033333335301303,0.119729585945606,0.0351247526705265,-0.0583376325666905
5,0.994444448960196,-0.212499996211229,0.0236111118719664,0.0827722400426865,-0.000610865245107561,-0.0458148941397667
5,1.00277780025972,-0.20972223675665,0.0222222230277034,0.0925460830330849,-0.0131336031481624,-0.0299323964864016
5,1.01666671909226,-0.216666671860991,0.00277777787846293,0.119118720293045,-0.000305432622553781,-0.0222965814173222
5,1.01666671909226,-0.211111128639904,0.0125000003581147,0.124616511166096,0.00855211354792118,-0.0134390350431204
5,1.00833336779274,-0.20972223675665,0.0138888899621255,0.120645888149738,-0.0033597587607801,-0.0045814891345799
5,1.00000001649321,-0.20138889761309,0.0194444453391775,0.12675453722477,-0.0103847095742822,-0.00641408516094089
5,1.00138890837647,-0.20138889761309,0.0208333341834404,0.108123145997524,0.00641408516094089,0.0192422550171614
5,1.00138890837647,-0.20138889761309,0.0208333341834404,0.0940732508897781,0.00427605677396059,0.0171042270958424
5,1.01805561097552,-0.202777789496344,0.0222222230277034,0.0778853222727776,-0.0464257597923279,0.0201585534960032
5,1.04027778385987,-0.211111128639904,0.0208333341834404,0.0784961804747581,0.0143553335219622,0.00397062394768
5,1.00000001649321,-0.216666671860991,0.0250000007162294,0.100181899964809,0.0250454749912024,0.0210748501121998
5,1.00000001649321,-0.216666671860991,0.0250000007162294,0.125532805919647,-0.0302378293126821,0.0323758572340012
5,1.00277780025972,-0.213888888094483,0.0222222230277034,0.134084925055504,-0.0314595587551594,0.0387899428606033
5,1.01527782720901,-0.208333344873396,0.0152777788063885,0.104763388633728,-0.0177150927484035,0.037568211555481
5,1.01527782720901,-0.208333344873396,0.0152777788063885,0.104457959532738,0.000305432622553781,0.0326812900602817
5,1.0125000434425,-0.202777789496344,0.0250000007162294,0.103541657328606,-0.0189368221908808,-0.0021380283869803
5,1.00000001649321,-0.180555567988136,0.0250000007162294,0.0815505087375641,-0.0345138870179653,0.0103847095742822
5,1.00277780025972,-0.181944447715425,0.029166668768514,0.0442877300083637,-0.0207694191485643,0.0580321997404099
5,1.02083339474202,-0.208333344873396,0.0152777788063885,0.0366519130766392,-0.0140499006956816,0.0772744566202164
5,1.02083339474202,-0.208333344873396,0.0152777788063885,0.0650571510195732,0.00244346098043024,0.0699440687894821
5,1.0125000434425,-0.202777789496344,0.0236111118719664,0.0681114718317986,-0.0210748501121998,0.0726929605007172
5,1.01527782720901,-0.193055558469529,0.026388891079988,0.0409279726445675,-0.0439822971820831,0.0592539273202419
5,1.02222228662528,-0.194444450352783,0.0250000007162294,0.0412334054708481,-0.0106901414692402,0.0726929605007172
5,1.00833336779274,-0.208333344873396,0.03194444645704,0.0629191175103188,-0.01191187184304,0.0888808965682983
5,1.00555558402623,-0.20972223675665,0.0222222230277034,0.0769690200686455,-0.0152716310694814,0.105374254286289
5,1.01388893532575,-0.206944452990142,0.0166666676506515,0.0543670058250427,-0.00641408516094089,0.087659165263176
5,1.01388893532575,-0.206944452990142,0.0166666676506515,0.0470366254448891,-0.0100792767480016,0.0332921557128429
5,1.0333333244436,-0.222222239394008,0.00972222266958873,0.0656680166721344,0.00244346098043024,0.037568211555481
5,1.00555558402623,-0.216666671860991,0.0180555564949145,0.0852157026529312,-0.0280998013913631,0.0387899428606033
5,1.01944450285877,-0.206944452990142,0.026388891079988,0.0561996027827263,-0.029626963660121,0.00519235478714108
5,1.01944450285877,-0.206944452990142,0.026388891079988,0.0284052342176437,0.0311541277915239,-0.00122173049021512
5,0.997222232726705,-0.18333333959868,0.0347222241455659,0.0681114718317986,0.0201585534960032,0.0390953756868839
5,0.99583334084345,-0.187500003092477,0.0347222241455659,0.0675006061792374,-0.00824668072164059,0.0229074470698834
5,1.04583335139288,-0.195833342236038,0.00833333382532574,0.0268780700862408,-0.0171042270958424,-0.0235183127224445
5,1.04583335139288,-0.195833342236038,0.00833333382532574,-0.00152716308366507,0.00916297826915979,-0.0345138870179653
5,1.03888889197661,-0.204166669223633,0.00833333382532574,0.0186313893646002,0.021685715764761,-0.0219911485910416
5,1.00694447590948,-0.218055563744246,0.0222222230277034,0.0369573459029198,0.027488935738802,-0.0134390350431204
5,1.00000001649321,-0.212499996211229,0.026388891079988,0.0415388382971287,-0.00183259579353034,-0.0134390350431204
5,1.00416669214298,-0.20972223675665,0.0416666683668809,0.037568211555481,-0.0192422550171614,-0.0213802829384804
5,1.01944450285877,-0.212499996211229,0.0236111118719664,0.015577063895762,-0.0204639863222837,-0.0131336031481624
5,1.02638896227504,-0.197222234119292,0.0138888899621255,0.0146607663482428,0.00183259579353034,-0.027488935738802
5,1.02638896227504,-0.197222234119292,0.0138888899621255,0.00183259579353034,0.0125227374956012,-0.0259617734700441
5,1.0125000434425,-0.180555567988136,0.0152777788063885,-0.0372627787292004,0.0189368221908808,-0.0354301854968071
5,1.00833336779274,-0.17361112072783,0.0347222241455659,-0.070249505341053,0.00794124789535999,-0.0177150927484035
5,1.01111115155925,-0.187500003092477,0.026388891079988,-0.0855211317539215,-0.00946841109544039,-0.00885754637420177
5,1.01805561097552,-0.194444450352783,0.0236111118719664,-0.0671951770782471,0.0146607663482428,-0.0125227374956012
5,1.01805561097552,-0.194444450352783,0.0236111118719664,-0.0684169083833694,0.0235183127224445,-0.0326812900602817
5,1.01666671909226,-0.208333344873396,0.0250000007162294,-0.0641408488154411,0.0201585534960032,-0.0400116741657257
5,1.01666671909226,-0.208333344873396,0.0250000007162294,-0.0717766657471657,0.011606439948082,-0.0494800843298435
5,1.00694447590948,-0.200000005729836,0.030555557612777,-0.0916297882795334,0.0149661982432008,-0.0522289797663689
5,1.00694447590948,-0.200000005729836,0.030555557612777,-0.106901414692402,0.00183259579353034,-0.0516181141138077
5,1.00694447590948,-0.223611131277262,0.029166668768514,-0.110566608607769,0.00824668072164059,-0.0653625801205635
5,1.00694447590948,-0.231944458264858,0.026388891079988,-0.0913243517279625,0.00702495034784079,-0.0656680166721344
5,1.00277780025972,-0.231944458264858,0.0250000007162294,-0.0778853222727776,-0.00733038317412138,-0.0833831056952477
5,1.00277780025972,-0.223611131277262,0.0194444453391775,-0.0687223374843597,-0.0329867228865623,-0.0748309940099716
5,1.0125000434425,-0.215277779977737,0.0236111118719664,-0.0855211317539215,-0.0335975885391235,-0.0613919571042061
5,1.02222228662528,-0.202777789496344,0.00833333382532574,-0.0769690200686455,-0.0232128798961639,-0.0503963828086853
5,1.01944450285877,-0.204166669223633,0.0152777788063885,-0.0708603709936142,-0.0235183127224445,-0.0552833043038845
5,1.01527782720901,-0.200000005729836,0.0208333341834404,-0.0690277740359306,-0.0250454749912024,-0.0439822971820831
5,1.01805561097552,-0.193055558469529,0.00972222266958873,-0.0720821022987366,-0.0201585534960032,-0.0323758572340012
5,1.01805561097552,-0.197222234119292,0.0152777788063885,-0.0583376325666905,-0.0201585534960032,-0.0222965814173222
5,1.02500007039179,-0.202777789496344,0.0194444453391775,-0.0415388382971287,-0.0204639863222837,-0.00794124789535999
5,1.01944450285877,-0.211111128639904,0.0194444453391775,-0.019547687843442,-0.015577063895762,-0.00305432616733015
5,1.02222228662528,-0.222222239394008,0.0194444453391775,0.0146607663482428,-0.021685715764761,-0.00763581553474069
5,1.0125000434425,-0.20138889761309,0.0152777788063885,0.0329867228865623,-0.0387899428606033,-0.00702495034784079
5,1.01388893532575,-0.200000005729836,0.0194444453391775,0.01588249579072,-0.0583376325666905,-0.00305432616733015
5,1.01388893532575,-0.197222234119292,0.0111111115138517,0.000305432622553781,-0.0589484944939613,-0.0027488935738802
5,1.0125000434425,-0.197222234119292,0.0194444453391775,0.00152716308366507,-0.0671951770782471,0.00152716308366507
5,1.01527782720901,-0.200000005729836,0.0152777788063885,0.00427605677396059,-0.0629191175103188,0.00610865233466029
5,1.01111115155925,-0.19166667874224,0.0208333341834404,0.013744467869401,-0.0519235469400883,0.000305432622553781
5,1.01944450285877,-0.18333333959868,0.0111111115138517,0.00855211354792118,-0.0268780700862408,0.00244346098043024
5,1.02777785415829,-0.170833336961321,0.0208333341834404,0.00305432616733015,-0.00305432616733015,-0.000305432622553781
5,1.02500007039179,-0.169444445078067,0.0125000003581147,-0.0268780700862408,0.0219911485910416,0.0241291765123606
5,1.02361117850853,-0.17361112072783,0.0152777788063885,-0.0482583530247212,0.0479529201984406,0.0488692186772823
5,1.01388893532575,-0.18333333959868,0.00555555575692586,-0.0729983970522881,0.0519235469400883,0.0497855171561241
5,1.0125000434425,-0.190277786858986,0.0125000003581147,-0.0833831056952477,0.0659734457731247,0.0442877300083637
5,1.01805561097552,-0.190277786858986,0.0111111115138517,-0.0842994004487991,0.0830776765942574,0.0549778714776039
5,1.01527782720901,-0.208333344873396,0.0180555564949145,-0.10048733651638,0.0879645943641663,0.0656680166721344
5,1.01388893532575,-0.211111128639904,0.0222222230277034,-0.116675265133381,0.0754418596625328,0.0775798857212067
5,1.01111115155925,-0.229166674498349,0.0361111129898289,-0.138971850275993,0.0342084541916847,0.0775798857212067
5,1.01388893532575,-0.233333350148112,0.033333335301303,-0.156381502747536,-0.000610865245107561,0.0598647929728031
5,1.01388893532575,-0.233333350148112,0.033333335301303,-0.154548913240433,-0.013744467869401,0.0464257597923279
5,1.00972225967599,-0.243055569018962,0.0125000003581147,-0.108428582549095,-0.0131336031481624,0.0247400421649218
5,1.00833336779274,-0.223611131277262,0.0194444453391775,-0.0726929605007172,-0.0189368221908808,0.00977384392172098
5,1.00972225967599,-0.202777789496344,0.00694444498106275,-0.0455094613134861,-0.00794124789535999,-0.00641408516094089
5,1.00972225967599,-0.194444450352783,0.00277777787846293,-0.0415388382971287,-0.017409659922123,-0.00427605677396059
5,1.01527782720901,-0.181944447715425,0.00277777787846293,-0.0293215326964855,-0.0345138870179653,-0.00824668072164059
5,1.01944450285877,-0.179166676104882,0.00277777787846293,-0.0247400421649218,-0.0268780700862408,-0.00366519158706069
5,1.02500007039179,-0.181944447715425,0.00277777787846293,-0.0247400421649218,-0.0033597587607801,0.00946841109544039
5,1.01944450285877,-0.190277786858986,0.00416666691266287,-0.0357356183230877,-0.000916297896765172,0.00366519158706069
5,1.01527782720901,-0.19166667874224,0.00555555575692586,-0.0339030213654041,-0.00549778714776039,0.00427605677396059
5,1.01666671909226,-0.190277786858986,0.0194444453391775,-0.0400116741657257,-0.00916297826915979,0.0106901414692402
5,1.01666671909226,-0.190277786858986,0.0194444453391775,-0.0427605658769607,-0.019547687843442,0.0180205255746841
5,1.01805561097552,-0.195833342236038,0.00416666691266287,-0.0436768643558025,-0.017409659922123,0.0256563406437635
5,1.01944450285877,-0.193055558469529,0.0194444453391775,-0.0479529201984406,-0.0109955742955208,0.0308486949652433
5,1.01944450285877,-0.193055558469529,0.0194444453391775,-0.0491746515035629,-0.0146607663482428,0.01588249579072
5,1.01666671909226,-0.194444450352783,0.00555555575692586,-0.0507018156349659,-0.00885754637420177,0.0152716310694814
5,1.01527782720901,-0.198611113846581,-0.00277777787846293,-0.0433714315295219,-0.011606439948082,0.021685715764761
5,1.01527782720901,-0.198611113846581,-0.00277777787846293,-0.0229074470698834,-0.0177150927484035,0.0134390350431204
5,1.01527782720901,-0.212499996211229,-0.00277777787846293,0.00244346098043024,-0.0253509078174829,-0.000916297896765172
5,1.00833336779274,-0.212499996211229,-0.00555555575692586,0.00885754637420177,-0.0186313893646002,-0.0140499006956816
5,1.00833336779274,-0.212499996211229,-0.00555555575692586,0.0146607663482428,-0.0201585534960032,-0.0122173046693206
5,1.01527782720901,-0.216666671860991,0.00277777787846293,0.0277943685650826,-0.0299323964864016,-0.00183259579353034
5,1.01388893532575,-0.216666671860991,0.00277777787846293,0.0342084541916847,-0.0232128798961639,-0.00305432616733015
5,1.0125000434425,-0.206944452990142,0.00555555575692586,0.021685715764761,-0.027488935738802,-0.000305432622553781
5,1.01527782720901,-0.195833342236038,0.0111111115138517,0.013744467869401,-0.0280998013913631,0.00366519158706069
5,1.01805561097552,-0.193055558469529,-0.00555555575692586,0.0268780700862408,-0.0146607663482428,0.0177150927484035
5,1.01805561097552,-0.194444450352783,0.00416666691266287,0.0250454749912024,-0.00702495034784079,0.015577063895762
5,1.01666671909226,-0.205555561106887,0.0111111115138517,0.0339030213654041,-0.00733038317412138,0.0143553335219622
5,1.01666671909226,-0.202777789496344,0.00138888893923146,0.0403171069920063,-0.0021380283869803,-0.00824668072164059
5,1.01111115155925,-0.202777789496344,0.00972222266958873,0.0479529201984406,-0.00702495034784079,-0.00702495034784079
5,1.01388893532575,-0.20138889761309,0.0111111115138517,0.0473420582711697,-0.0021380283869803,-0.0259617734700441
5,1.01388893532575,-0.20138889761309,0.0111111115138517,0.0473420582711697,-0.0021380283869803,-0.0259617734700441
5,1.01388893532575,-0.212499996211229,0.00972222266958873,0.0604756586253643,-0.0045814891345799,-0.0204639863222837
5,1.01527782720901,-0.20972223675665,0.00694444498106275,0.0616973899304867,-0.00305432616733015,-0.0226020142436027
5,1.01666671909226,-0.205555561106887,0.00694444498106275,0.0656680166721344,-0.00397062394768,-0.0207694191485643
5,1.01944450285877,-0.20972223675665,0.00555555575692586,0.0671951770782471,-0.00733038317412138,-0.0125227374956012
5,1.01944450285877,-0.202777789496344,0.0194444453391775,0.0687223374843597,-0.00152716308366507,-0.0033597587607801
5,1.01944450285877,-0.204166669223633,0.0125000003581147,0.0537561401724815,0.0122173046693206,0.00519235478714108
5,1.01666671909226,-0.195833342236038,0.0125000003581147,0.0482583530247212,0.00794124789535999,0.0167987942695618
5,1.01805561097552,-0.188888894975731,0.0194444453391775,0.0320704244077206,0.00244346098043024,0.0259617734700441
5,1.01805561097552,-0.194444450352783,0.0125000003581147,0.0332921557128429,-0.000610865245107561,0.0293215326964855
5,1.01527782720901,-0.188888894975731,0.00833333382532574,0.0277943685650826,0.0143553335219622,0.03176499158144
5,1.01527782720901,-0.19166667874224,0.0236111118719664,0.0280998013913631,0.0152716310694814,0.029626963660121
5,1.01527782720901,-0.195833342236038,0.0125000003581147,0.0213802829384804,0.00946841109544039,0.0311541277915239
5,1.01527782720901,-0.20972223675665,0.0125000003581147,0.0149661982432008,0.00580321997404099,0.0146607663482428
5,1.01527782720901,-0.20972223675665,0.00833333382532574,0.00610865233466029,0.00641408516094089,0.00397062394768
5,1.01666671909226,-0.20972223675665,0.00555555575692586,0.00519235478714108,0.00702495034784079,-0.00183259579353034
5,1.01666671909226,-0.20972223675665,0.00416666691266287,-0.00610865233466029,0.00702495034784079,-0.00671951752156019
5,1.01944450285877,-0.20972223675665,0.00555555575692586,-0.00519235478714108,0.0021380283869803,-0.00946841109544039
5,1.01944450285877,-0.204166669223633,0.00555555575692586,-0.000610865245107561,0.00122173049021512,-0.0140499006956816
5,1.0125000434425,-0.200000005729836,0.00416666691266287,0.0131336031481624,-0.00305432616733015,-0.00305432616733015
5,1.00972225967599,-0.198611113846581,-0.00555555575692586,0.00610865233466029,-0.00671951752156019,-0.00641408516094089
5,1.0125000434425,-0.197222234119292,0.0111111115138517,0.00641408516094089,-0.0027488935738802,-0.011606439948082
5,1.01527782720901,-0.193055558469529,0.00277777787846293,-0.0033597587607801,-0.0021380283869803,0.00152716308366507
5,1.0125000434425,-0.195833342236038,0.00416666691266287,0.00244346098043024,-0.00305432616733015,-0.00916297826915979
5,1.01805561097552,-0.200000005729836,0.00277777787846293,-0.0027488935738802,-0.0027488935738802,-0.000305432622553781
5,1.01805561097552,-0.20138889761309,0.00277777787846293,-0.00702495034784079,-0.00794124789535999,0.000610865245107561
5,1.0125000434425,-0.202777789496344,0.00555555575692586,0.000305432622553781,-0.0021380283869803,-0.00366519158706069
5,1.01527782720901,-0.206944452990142,0.0125000003581147,-0.0103847095742822,-0.00244346098043024,-0.00824668072164059
5,1.01527782720901,-0.206944452990142,0.0125000003581147,-0.0164933614432812,-0.00366519158706069,-0.00916297826915979
5,1.01388893532575,-0.206944452990142,0.00138888893923146,-0.0235183127224445,-0.00305432616733015,-0.00488692196086049
5,1.01388893532575,-0.206944452990142,0.00138888893923146,-0.02382374368608,0.00641408516094089,-0.00519235478714108
5,1.01527782720901,-0.213888888094483,0.00277777787846293,-0.0323758572340012,-0.00183259579353034,-0.0164933614432812
5,1.01944450285877,-0.206944452990142,0.00277777787846293,-0.0232128798961639,-0.00610865233466029,-0.011606439948082
5,1.01527782720901,-0.206944452990142,0.00138888893923146,-0.0357356183230877,0.00122173049021512,-0.00641408516094089
5,1.01527782720901,-0.20972223675665,0.00972222266958873,-0.0259617734700441,-0.0027488935738802,-0.0103847095742822
5,1.0125000434425,-0.202777789496344,0.00555555575692586,-0.0262672062963247,-0.0027488935738802,-0.013744467869401
5,1.0125000434425,-0.202777789496344,0.00277777787846293,-0.0277943685650826,-0.00946841109544039,-0.00641408516094089
5,1.01388893532575,-0.208333344873396,0.00833333382532574,-0.0280998013913631,-0.0192422550171614,-0.0122173046693206
5,1.01527782720901,-0.206944452990142,0.00972222266958873,-0.0400116741657257,-0.0189368221908808,-0.0201585534960032
5,1.01527782720901,-0.206944452990142,0.00972222266958873,-0.0280998013913631,-0.00855211354792118,-0.0128281703218818
5,1.01527782720901,-0.208333344873396,0.00972222266958873,-0.011606439948082,-0.00641408516094089,-0.0161879286170006
5,1.01527782720901,-0.204166669223633,0.00972222266958873,-0.0149661982432008,0.000305432622553781,-0.0109955742955208
5,1.01527782720901,-0.204166669223633,0.00972222266958873,-0.0210748501121998,-0.0021380283869803,-0.0152716310694814
5,1.01527782720901,-0.205555561106887,0.00138888893923146,-0.0109955742955208,0.0021380283869803,-0.0131336031481624
5,1.01388893532575,-0.205555561106887,0.00972222266958873,-0.00671951752156019,0.000610865245107561,-0.021685715764761
5,1.01388893532575,-0.205555561106887,0.00972222266958873,-0.00427605677396059,-0.00244346098043024,-0.0244346093386412
5,1.01944450285877,-0.20972223675665,0.00972222266958873,-0.000916297896765172,0.00366519158706069,-0.0293215326964855
5,1.0125000434425,-0.208333344873396,0.00972222266958873,0.000916297896765172,-0.00397062394768,-0.0320704244077206
5,1.01805561097552,-0.208333344873396,0.00694444498106275,0.0146607663482428,-0.00397062394768,-0.0335975885391235
5,1.01527782720901,-0.205555561106887,-0.00555555575692586,0.0320704244077206,0.00397062394768,-0.0326812900602817
5,1.01666671909226,-0.205555561106887,-0.00555555575692586,0.0320704244077206,0.00366519158706069,-0.0192422550171614
5,1.02083339474202,-0.20138889761309,-0.00138888893923146,0.0363464802503586,0.00366519158706069,-0.0259617734700441
5,1.01944450285877,-0.193055558469529,-0.00694444498106275,0.0390953756868839,-0.00519235478714108,-0.0100792767480016
5,1.01388893532575,-0.193055558469529,0.00277777787846293,0.0378736443817616,0.00855211354792118,-0.0140499006956816
5,1.01527782720901,-0.198611113846581,-0.00555555575692586,0.0201585534960032,0.00488692196086049,-0.01588249579072
5,1.01527782720901,-0.197222234119292,0.00277777787846293,0.0192422550171614,0.00733038317412138,-0.00885754637420177
5,1.01805561097552,-0.190277786858986,0.00138888893923146,0.0100792767480016,0.00519235478714108,-0.011606439948082
5,1.01527782720901,-0.200000005729836,0.00416666691266287,0.0152716310694814,0.00519235478714108,-0.0109955742955208
5,1.01666671909226,-0.200000005729836,-0.00138888893923146,0.0204639863222837,-0.00427605677396059,-0.0189368221908808
5,1.01527782720901,-0.202777789496344,0.00833333382532574,0.0189368221908808,-0.00702495034784079,-0.00885754637420177
5,1.01805561097552,-0.200000005729836,0.00555555575692586,0.0152716310694814,0.00152716308366507,-0.00641408516094089
5,1.02083339474202,-0.193055558469529,0.0111111115138517,0.0143553335219622,-0.00305432616733015,-0.00824668072164059
5,1.01527782720901,-0.200000005729836,0.00833333382532574,0.0128281703218818,0.00641408516094089,-0.0103847095742822
5,1.01527782720901,-0.200000005729836,0.00277777787846293,0.017409659922123,0.0125227374956012,-0.0128281703218818
5,1.01527782720901,-0.200000005729836,0.00416666691266287,0.0106901414692402,0.01588249579072,-0.00794124789535999
5,1.01388893532575,-0.20138889761309,0.00416666691266287,0.00641408516094089,0.00244346098043024,-0.00824668072164059
5,1.01388893532575,-0.193055558469529,-0.00277777787846293,0.00763581553474069,-0.0045814891345799,0.00519235478714108
5,1.01805561097552,-0.197222234119292,-0.00277777787846293,0.000610865245107561,-0.00366519158706069,-0.0045814891345799
5,1.01944450285877,-0.198611113846581,-0.00277777787846293,-0.00122173049021512,-0.00580321997404099,0.00763581553474069
5,1.0125000434425,-0.20138889761309,0.0125000003581147,-0.00580321997404099,-0.00946841109544039,-0.00519235478714108
5,1.01527782720901,-0.20138889761309,0.00555555575692586,0.00702495034784079,-0.00763581553474069,0.00916297826915979
5,1.01666671909226,-0.197222234119292,0.00555555575692586,0.00244346098043024,-0.00122173049021512,0.0204639863222837
5,1.01805561097552,-0.195833342236038,0.00277777787846293,0.0027488935738802,-0.0146607663482428,0.0122173046693206
5,1.01527782720901,-0.195833342236038,0.00555555575692586,-0.000305432622553781,-0.00183259579353034,0.017409659922123
5,1.01388893532575,-0.200000005729836,0.00277777787846293,0.00824668072164059,-0.00122173049021512,0.0109955742955208
5,1.01666671909226,-0.198611113846581,-0.00138888893923146,0.0103847095742822,-0.000610865245107561,0.00427605677396059
5,1.0125000434425,-0.194444450352783,-0.00138888893923146,0.00641408516094089,0.000610865245107561,0.015577063895762
5,1.01944450285877,-0.19166667874224,-0.00138888893923146,0.000610865245107561,0.0027488935738802,0.0021380283869803
5,1.01944450285877,-0.197222234119292,0.00972222266958873,-0.000610865245107561,0.00183259579353034,0.0045814891345799
5,1.01666671909226,-0.202777789496344,0.00972222266958873,0.0021380283869803,0.000916297896765172,0.01191187184304
5,1.01666671909226,-0.195833342236038,0.00416666691266287,-0.011606439948082,-0.000610865245107561,0.00183259579353034
5,1.01805561097552,-0.194444450352783,0.00694444498106275,-0.00549778714776039,0.00488692196086049,0.00702495034784079
5,1.01944450285877,-0.200000005729836,0.00277777787846293,-0.0027488935738802,0.00519235478714108,0.00580321997404099
5,1.02222228662528,-0.195833342236038,0.00694444498106275,-0.00152716308366507,-0.00580321997404099,0.00794124789535999
5,1.01527782720901,-0.193055558469529,-0.00555555575692586,-0.000305432622553781,0.00519235478714108,0.0027488935738802
5,1.01527782720901,-0.188888894975731,0.00277777787846293,-0.00549778714776039,0.0021380283869803,-0.00183259579353034
5,1.01944450285877,-0.19166667874224,0.00694444498106275,-0.00366519158706069,0.00244346098043024,0.0045814891345799
5,1.01527782720901,-0.197222234119292,0.00138888893923146,-0.000610865245107561,0.0204639863222837,-0.00519235478714108
5,1.0125000434425,-0.197222234119292,0.00555555575692586,0.017409659922123,0.00671951752156019,0.0027488935738802
5,1.01527782720901,-0.198611113846581,0.00138888893923146,0.0232128798961639,0.00702495034784079,-0.000305432622553781
5,1.01527782720901,-0.198611113846581,0.00138888893923146,0.0140499006956816,0.00152716308366507,0.0027488935738802
5,1.0125000434425,-0.190277786858986,0.00277777787846293,0.00549778714776039,0.0109955742955208,0.00488692196086049
5,1.0125000434425,-0.190277786858986,0.00694444498106275,0.0131336031481624,0.00305432616733015,0.00641408516094089
5,1.00972225967599,-0.200000005729836,0.00277777787846293,0.0161879286170006,-0.00427605677396059,-0.000305432622553781
5,1.00972225967599,-0.195833342236038,-0.00277777787846293,0.015577063895762,-0.000610865245107561,-0.00152716308366507
5,1.02083339474202,-0.190277786858986,-0.0152777788063885,0.0134390350431204,0.000610865245107561,-0.0021380283869803
5,1.02222228662528,-0.19166667874224,-0.00277777787846293,0.0125227374956012,-0.0100792767480016,-0.00122173049021512
5,1.02500007039179,-0.190277786858986,0.00833333382532574,-0.00549778714776039,-0.00733038317412138,0.00519235478714108
5,1.01527782720901,-0.186111123365188,0.00833333382532574,-0.0250454749912024,0.00397062394768,0.00794124789535999
5,1.01527782720901,-0.190277786858986,-0.00138888893923146,-0.027488935738802,0.00244346098043024,0.00824668072164059
5,1.0125000434425,-0.197222234119292,0.00555555575692586,-0.0290160998702049,-0.0021380283869803,0.0146607663482428
5,1.01527782720901,-0.197222234119292,0.00138888893923146,-0.0293215326964855,-0.00733038317412138,0.00397062394768
5,1.01527782720901,-0.197222234119292,0.00138888893923146,-0.021685715764761,-0.000916297896765172,0.00152716308366507
5,1.01944450285877,-0.20138889761309,0.00277777787846293,-0.0287106670439243,0.00305432616733015,-0.00244346098043024
5,1.01666671909226,-0.202777789496344,0.00277777787846293,-0.0244346093386412,-0.00366519158706069,-0.000610865245107561
5,1.01805561097552,-0.204166669223633,0.00277777787846293,-0.0164933614432812,-0.00122173049021512,-0.00855211354792118
5,1.00694447590948,-0.202777789496344,0.00555555575692586,-0.0122173046693206,0.000305432622553781,-0.00488692196086049
5,1.0125000434425,-0.206944452990142,-0.00833333382532574,-0.0027488935738802,-0.0021380283869803,-0.00152716308366507
5,1.01111115155925,-0.200000005729836,0.00277777787846293,-0.0103847095742822,0.0021380283869803,0.0109955742955208
5,1.0125000434425,-0.206944452990142,0.00416666691266287,-0.0113010071218014,-0.0265726372599602,0.0161879286170006
5,1.01666671909226,-0.20972223675665,0.00555555575692586,-0.0113010071218014,-0.0140499006956816,0.0253509078174829
5,1.01666671909226,-0.204166669223633,0.00555555575692586,-0.015577063895762,-0.00152716308366507,0.027488935738802
5,1.01944450285877,-0.200000005729836,-0.0125000003581147,-0.0128281703218818,-0.0100792767480016,0.0326812900602817
5,1.02500007039179,-0.202777789496344,-0.00972222266958873,-0.0167987942695618,0.000305432622553781,0.0445931628346443
5,1.01944450285877,-0.202777789496344,-0.00277777787846293,-0.0189368221908808,0.0128281703218818,0.0448985956609249
5,1.01388893532575,-0.202777789496344,-0.00555555575692586,-0.03176499158144,0.00702495034784079,0.0418442711234093
5,1.01527782720901,-0.205555561106887,-0.00555555575692586,-0.0235183127224445,0.00824668072164059,0.0345138870179653
5,1.01666671909226,-0.206944452990142,0.00277777787846293,-0.02382374368608,0.00549778714776039,0.0433714315295219
5,1.01527782720901,-0.208333344873396,0.00277777787846293,-0.0253509078174829,0.0222965814173222,0.0332921557128429
5,1.02083339474202,-0.20972223675665,0.00277777787846293,-0.0247400421649218,0.0280998013913631,0.0332921557128429
5,1.01388893532575,-0.206944452990142,-0.00972222266958873,-0.01588249579072,0.0244346093386412,0.0329867228865623
5,1.0125000434425,-0.204166669223633,-0.00555555575692586,-0.0152716310694814,0.0177150927484035,0.0284052342176437
5,1.01666671909226,-0.206944452990142,0.0138888899621255,-0.00610865233466029,0.0164933614432812,0.0250454749912024
5,1.01388893532575,-0.206944452990142,0.00972222266958873,-0.0109955742955208,0.0134390350431204,0.0323758572340012
5,1.01944450285877,-0.200000005729836,0.00972222266958873,-0.0100792767480016,0.00183259579353034,0.0351247526705265
5,1.01944450285877,-0.202777789496344,-0.00416666691266287,-0.0134390350431204,0.0140499006956816,0.0369573459029198
5,1.01944450285877,-0.20138889761309,-0.00416666691266287,-0.00794124789535999,0.00549778714776039,0.0436768643558025
5,1.01527782720901,-0.194444450352783,-0.00972222266958873,-0.00824668072164059,0.00763581553474069,0.0436768643558025
5,1.01527782720901,-0.200000005729836,-0.00277777787846293,-0.00702495034784079,0.00366519158706069,0.0250454749912024
5,1.0125000434425,-0.20138889761309,-0.00277777787846293,-0.00824668072164059,0.00488692196086049,0.0262672062963247
5,1.01805561097552,-0.20972223675665,0.00833333382532574,-0.0177150927484035,0.00549778714776039,0.021685715764761
5,1.02083339474202,-0.202777789496344,-0.00277777787846293,-0.0180205255746841,0.00641408516094089,0.0250454749912024
5,1.01944450285877,-0.212499996211229,0.00833333382532574,-0.0198531206697226,0.00794124789535999,0.0213802829384804
5,1.0125000434425,-0.20138889761309,0.00694444498106275,-0.0192422550171614,0.00397062394768,0.019547687843442
5,1.00972225967599,-0.205555561106887,0.00277777787846293,-0.0232128798961639,0.00397062394768,0.0131336031481624
5,1.0125000434425,-0.204166669223633,0.00138888893923146,-0.0207694191485643,-0.00244346098043024,0.0180205255746841
5,1.00972225967599,-0.205555561106887,0.00277777787846293,-0.0171042270958424,-0.000916297896765172,0.0033597587607801
5,1.01527782720901,-0.208333344873396,0.00277777787846293,-0.0232128798961639,-0.00244346098043024,0.00366519158706069
5,1.01527782720901,-0.213888888094483,-0.00416666691266287,-0.0262672062963247,-0.000916297896765172,-0.00122173049021512
5,1.00972225967599,-0.212499996211229,-0.00555555575692586,-0.0204639863222837,-0.0033597587607801,-0.0106901414692402
5,1.01666671909226,-0.212499996211229,-0.00138888893923146,-0.0106901414692402,-0.011606439948082,-0.0125227374956012
5,1.01388893532575,-0.211111128639904,-0.00555555575692586,-0.00641408516094089,0.00305432616733015,-0.0106901414692402
5,1.01527782720901,-0.216666671860991,-0.00833333382532574,-0.0201585534960032,0.000610865245107561,0.00519235478714108
5,1.01527782720901,-0.213888888094483,-0.00833333382532574,-0.0219911485910416,-0.00671951752156019,0.0021380283869803
5,1.01527782720901,-0.20972223675665,-0.00416666691266287,-0.0280998013913631,-0.00794124789535999,-0.00488692196086049
5,1.00972225967599,-0.202777789496344,-0.00277777787846293,-0.0290160998702049,-0.017409659922123,0.0033597587607801
5,1.01666671909226,-0.198611113846581,-0.0125000003581147,-0.0348193198442459,-0.0164933614432812,0.0122173046693206
5,1.0125000434425,-0.202777789496344,-0.0138888899621255,-0.0351247526705265,-0.0106901414692402,0.000305432622553781
5,1.01805561097552,-0.206944452990142,-0.00277777787846293,-0.03176499158144,-0.00305432616733015,0.00397062394768
5,1.02083339474202,-0.205555561106887,-0.00555555575692586,-0.0445931628346443,-0.00244346098043024,0.00244346098043024
5,1.02083339474202,-0.205555561106887,-0.00555555575692586,-0.0421497002243996,0.0143553335219622,0.00397062394768
5,1.01527782720901,-0.208333344873396,-0.00555555575692586,-0.0436768643558025,0.00519235478714108,0.0103847095742822
5,1.01388893532575,-0.20972223675665,-0.00277777787846293,-0.0464257597923279,0.00488692196086049,-0.000916297896765172
5,1.01388893532575,-0.212499996211229,-0.00555555575692586,-0.0430659987032413,0.00855211354792118,0.00549778714776039
5,1.00972225967599,-0.213888888094483,-0.00277777787846293,-0.0378736443817616,0.0140499006956816,0.00916297826915979
5,1.01388893532575,-0.211111128639904,-0.00277777787846293,-0.0207694191485643,-0.0021380283869803,0.0122173046693206
5,1.01388893532575,-0.215277779977737,-0.00416666691266287,-0.02382374368608,-0.0021380283869803,0.0146607663482428
5,1.0125000434425,-0.215277779977737,-0.00277777787846293,-0.0189368221908808,0.00580321997404099,0.00916297826915979
5,1.01666671909226,-0.211111128639904,0.00555555575692586,-0.00977384392172098,0.0027488935738802,0.0250454749912024
5,1.01527782720901,-0.212499996211229,0.00277777787846293,-0.0122173046693206,-0.00152716308366507,0.015577063895762
5,1.01527782720901,-0.212499996211229,-0.00277777787846293,-0.015577063895762,0.00183259579353034,0.01588249579072
5,1.0125000434425,-0.213888888094483,-0.00555555575692586,-0.0198531206697226,0.00427605677396059,0.0180205255746841
5,1.0125000434425,-0.212499996211229,-0.00277777787846293,-0.0103847095742822,0.0103847095742822,0.0146607663482428
5,1.00833336779274,-0.215277779977737,-0.00277777787846293,-0.00794124789535999,0.0106901414692402,0.0122173046693206
5,1.01388893532575,-0.211111128639904,-0.00972222266958873,-0.00427605677396059,0.0122173046693206,0.0149661982432008
5,1.01527782720901,-0.216666671860991,0.00277777787846293,-0.000610865245107561,-0.0027488935738802,0.021685715764761
5,1.01111115155925,-0.212499996211229,-0.00972222266958873,0.0045814891345799,-0.00152716308366507,0.0219911485910416
5,1.01527782720901,-0.215277779977737,-0.00277777787846293,-0.00244346098043024,0.00366519158706069,0.0219911485910416
5,1.0125000434425,-0.216666671860991,0.00138888893923146,-0.000916297896765172,0.00733038317412138,0.0152716310694814
5,1.0125000434425,-0.2194444556275,-0.0125000003581147,0.0149661982432008,-0.0021380283869803,0.0167987942695618
5,1.0125000434425,-0.2194444556275,-0.0125000003581147,0.01588249579072,0.00244346098043024,0.0106901414692402
5,1.0125000434425,-0.2194444556275,-0.0125000003581147,0.0177150927484035,0.00305432616733015,0.017409659922123
5,1.0125000434425,-0.2194444556275,-0.00277777787846293,0.027488935738802,0.00702495034784079,0.00977384392172098
5,1.0125000434425,-0.2194444556275,-0.00277777787846293,0.0290160998702049,-0.00763581553474069,0.00916297826915979
5,1.01527782720901,-0.2194444556275,0.0125000003581147,0.0369573459029198,-0.00305432616733015,0.0201585534960032
5,1.01527782720901,-0.224999998848587,0.00416666691266287,0.0421497002243996,-0.0045814891345799,0.0229074470698834
5,1.01527782720901,-0.224999998848587,0.00416666691266287,0.0458148941397667,-0.0045814891345799,0.0106901414692402
5,1.01527782720901,-0.226388890731841,0.00277777787846293,0.0522289797663689,-0.00610865233466029,0.00305432616733015
5,1.01388893532575,-0.224999998848587,0.00277777787846293,0.058643065392971,-0.0106901414692402,0.00794124789535999
5,1.01388893532575,-0.224999998848587,0.00277777787846293,0.0497855171561241,-0.00671951752156019,0.00519235478714108
5,1.0125000434425,-0.218055563744246,0.00277777787846293,0.0516181141138077,-0.00305432616733015,0.00488692196086049
5,1.01388893532575,-0.223611131277262,-0.00277777787846293,0.0534507073462009,-0.00855211354792118,0.0122173046693206
5,1.01388893532575,-0.223611131277262,-0.00277777787846293,0.0623082555830479,-0.00671951752156019,0.0021380283869803
5,1.00972225967599,-0.224999998848587,0.00833333382532574,0.0598647929728031,-0.0161879286170006,-0.00122173049021512
5,1.0125000434425,-0.223611131277262,0.00555555575692586,0.0555887371301651,-0.0143553335219622,-0.00305432616733015
5,1.01805561097552,-0.222222239394008,-0.00138888893923146,0.0598647929728031,-0.00977384392172098,0.0033597587607801
5,1.01805561097552,-0.222222239394008,-0.00138888893923146,0.0534507073462009,-0.01191187184304,-0.00488692196086049
5,1.00972225967599,-0.216666671860991,-0.00277777787846293,0.0552833043038845,-0.00397062394768,-0.00671951752156019
5,1.00972225967599,-0.218055563744246,-0.00277777787846293,0.0507018156349659,-0.00916297826915979,-0.0106901414692402
5,1.01388893532575,-0.222222239394008,-0.00277777787846293,0.0555887371301651,-0.0146607663482428,-0.015577063895762
5,1.0125000434425,-0.223611131277262,-0.00277777787846293,0.0558941699564457,-0.0125227374956012,-0.00794124789535999
5,1.0125000434425,-0.220833347510754,-0.00277777787846293,0.0479529201984406,-0.0027488935738802,-0.00885754637420177
5,1.01944450285877,-0.224999998848587,0.00277777787846293,0.0436768643558025,0.00671951752156019,-0.00885754637420177
5,1.01527782720901,-0.226388890731841,0.00277777787846293,0.0464257597923279,-0.0149661982432008,-0.0027488935738802
5,1.01666671909226,-0.2194444556275,-0.00277777787846293,0.0418442711234093,-0.00122173049021512,-0.0106901414692402
5,1.01805561097552,-0.215277779977737,-0.00555555575692586,0.0445931628346443,0.00610865233466029,-0.0131336031481624
5,1.01527782720901,-0.215277779977737,-0.00416666691266287,0.0302378293126821,0.00152716308366507,-0.00946841109544039
5,1.01527782720901,-0.212499996211229,0.00555555575692586,0.0241291765123606,-0.000916297896765172,-0.00763581553474069
5,1.0125000434425,-0.20972223675665,0.00694444498106275,0.00824668072164059,0.00305432616733015,-0.00610865233466029
5,1.0125000434425,-0.204166669223633,0.00416666691266287,0.00397062394768,0.00122173049021512,-0.00855211354792118
5,1.00972225967599,-0.2194444556275,0.00555555575692586,-0.00702495034784079,-0.0027488935738802,0.00305432616733015
5,1.00833336779274,-0.2194444556275,0.00277777787846293,-0.0106901414692402,-0.00549778714776039,0.00152716308366507
5,1.0125000434425,-0.218055563744246,0.00277777787846293,-0.00427605677396059,-0.00366519158706069,0.0033597587607801
5,1.01388893532575,-0.222222239394008,-0.00277777787846293,-0.00549778714776039,-0.0100792767480016,0.015577063895762
5,1.01805561097552,-0.230555566381603,-0.0111111115138517,-0.00244346098043024,0.000916297896765172,0.00977384392172098
5,1.01944450285877,-0.229166674498349,-0.00694444498106275,0.00366519158706069,-0.0027488935738802,0.00305432616733015
5,1.01666671909226,-0.226388890731841,-0.00416666691266287,-0.000916297896765172,0.00152716308366507,0.000916297896765172
5,1.01805561097552,-0.224999998848587,-0.00416666691266287,0.00244346098043024,0.00641408516094089,0.00122173049021512
5,1.0125000434425,-0.223611131277262,-0.00138888893923146,-0.00763581553474069,0.0109955742955208,0.00427605677396059
5,1.00972225967599,-0.227777782615095,-0.00277777787846293,-0.0021380283869803,0.00519235478714108,-0.00580321997404099
5,1.01388893532575,-0.220833347510754,-0.00277777787846293,-0.00366519158706069,0.0021380283869803,-0.00152716308366507
5,1.01527782720901,-0.218055563744246,-0.00555555575692586,-0.00519235478714108,0.0100792767480016,-0.00824668072164059
5,1.0125000434425,-0.216666671860991,0.00277777787846293,-0.0103847095742822,0.00427605677396059,-0.000610865245107561
5,1.01666671909226,-0.220833347510754,0.00277777787846293,-0.00916297826915979,0.00519235478714108,-0.00916297826915979
5,1.0125000434425,-0.2194444556275,0.00972222266958873,-0.00885754637420177,0.00488692196086049,-0.0106901414692402
5,1.0125000434425,-0.216666671860991,0.00277777787846293,-0.00122173049021512,0.00305432616733015,-0.0103847095742822
5,1.0125000434425,-0.2194444556275,0.00277777787846293,0.00366519158706069,0.00549778714776039,-0.00641408516094089
5,1.01111115155925,-0.211111128639904,-0.00833333382532574,-0.0045814891345799,0.00733038317412138,-0.0122173046693206
5,1.01111115155925,-0.215277779977737,-0.00833333382532574,-0.00488692196086049,0.0100792767480016,-0.0128281703218818
5,1.01111115155925,-0.212499996211229,-0.00555555575692586,-0.000305432622553781,0.00488692196086049,-0.0125227374956012
5,1.00694447590948,-0.223611131277262,0.00138888893923146,0.00946841109544039,0.00305432616733015,-0.017409659922123
5,1.0125000434425,-0.216666671860991,0.00416666691266287,-0.00794124789535999,0.00580321997404099,-0.0131336031481624
5,1.0125000434425,-0.215277779977737,-0.00277777787846293,-0.00519235478714108,0.0122173046693206,-0.0167987942695618
5,1.01527782720901,-0.212499996211229,-0.00555555575692586,-0.0100792767480016,0.0106901414692402,-0.00763581553474069
5,1.01388893532575,-0.213888888094483,-0.00833333382532574,-0.00122173049021512,0.0103847095742822,-0.0180205255746841
5,1.0125000434425,-0.213888888094483,-0.00694444498106275,-0.000305432622553781,0.00794124789535999,-0.0204639863222837
5,1.01527782720901,-0.213888888094483,-0.00555555575692586,-0.000610865245107561,0.0033597587607801,-0.011606439948082
5,1.0125000434425,-0.2194444556275,-0.00277777787846293,0.00488692196086049,0.00549778714776039,-0.0146607663482428
5,1.01388893532575,-0.216666671860991,-0.00277777787846293,-0.00641408516094089,0.0045814891345799,-0.0128281703218818
5,1.0125000434425,-0.213888888094483,-0.00277777787846293,-0.00427605677396059,0.00641408516094089,-0.0140499006956816
5,1.0125000434425,-0.215277779977737,0.00138888893923146,-0.00671951752156019,0.00641408516094089,-0.00946841109544039
5,1.00972225967599,-0.20972223675665,0.00138888893923146,-0.0143553335219622,0.00549778714776039,-0.00763581553474069
5,1.0125000434425,-0.213888888094483,0.00555555575692586,-0.00366519158706069,0.011606439948082,-0.0045814891345799
5,1.00972225967599,-0.216666671860991,0.00694444498106275,-0.00794124789535999,0.0033597587607801,-0.0045814891345799
5,1.0125000434425,-0.213888888094483,0.00277777787846293,0.00152716308366507,0.00946841109544039,-0.00824668072164059
5,1.01111115155925,-0.215277779977737,-0.00694444498106275,-0.0128281703218818,0.00763581553474069,-0.00977384392172098
5,1.01388893532575,-0.208333344873396,-0.00277777787846293,-0.00671951752156019,0.00244346098043024,-0.00702495034784079
5,1.01388893532575,-0.208333344873396,-0.00277777787846293,-0.00549778714776039,0.00794124789535999,-0.0103847095742822
5,1.0125000434425,-0.212499996211229,-0.00972222266958873,-0.0106901414692402,0.000610865245107561,-0.00855211354792118
5,1.0125000434425,-0.213888888094483,-0.00277777787846293,-0.000610865245107561,0.00610865233466029,-0.00671951752156019
5,1.01388893532575,-0.213888888094483,-0.00277777787846293,-0.00855211354792118,0.00824668072164059,0.00794124789535999
5,1.01527782720901,-0.212499996211229,0.00138888893923146,-0.00488692196086049,0.00671951752156019,0.00549778714776039
5,1.01666671909226,-0.208333344873396,-0.00138888893923146,-0.00824668072164059,0.00580321997404099,-0.00641408516094089
5,1.01666671909226,-0.20972223675665,0.00138888893923146,-0.0027488935738802,0.0113010071218014,-0.000610865245107561
5,1.0125000434425,-0.215277779977737,0.00277777787846293,-0.00305432616733015,0.01191187184304,-0.00519235478714108
5,1.0125000434425,-0.208333344873396,-0.00138888893923146,-0.0027488935738802,0.0021380283869803,-0.000916297896765172
5,1.01944450285877,-0.206944452990142,-0.00277777787846293,0.00397062394768,0.00488692196086049,-0.0045814891345799
5,1.01944450285877,-0.202777789496344,-0.00277777787846293,-0.00183259579353034,0.00397062394768,-0.0021380283869803
5,1.01944450285877,-0.205555561106887,-0.0111111115138517,-0.00488692196086049,-0.000610865245107561,-0.0033597587607801
5,1.01527782720901,-0.212499996211229,-0.0111111115138517,0.00641408516094089,0.00152716308366507,-0.0021380283869803
5,1.0125000434425,-0.204166669223633,-0.00972222266958873,0.00946841109544039,0.00397062394768,-0.00305432616733015
5,1.01527782720901,-0.202777789496344,-0.00694444498106275,0.00977384392172098,-0.0027488935738802,-0.00244346098043024
5,1.02083339474202,-0.202777789496344,-0.00138888893923146,0.00397062394768,0.00580321997404099,0.00305432616733015
5,1.02083339474202,-0.202777789496344,-0.00138888893923146,0.0106901414692402,0.0021380283869803,-0.00488692196086049
5,1.01388893532575,-0.206944452990142,-0.00277777787846293,0.0100792767480016,0.00427605677396059,-0.00397062394768
5,1.01527782720901,-0.212499996211229,-0.00277777787846293,0.0100792767480016,-0.00122173049021512,-0.00305432616733015
5,1.0125000434425,-0.20972223675665,0.00277777787846293,0.00580321997404099,0.00366519158706069,0.0033597587607801
5,1.01666671909226,-0.208333344873396,0.00138888893923146,0.0226020142436027,0.000916297896765172,-0.00183259579353034
5,1.01527782720901,-0.212499996211229,0.00277777787846293,0.021685715764761,0.00152716308366507,0.00244346098043024
5,1.0125000434425,-0.212499996211229,0.00277777787846293,0.0250454749912024,0.013744467869401,0.00488692196086049
5,1.0125000434425,-0.213888888094483,-0.00277777787846293,0.0226020142436027,-0.00305432616733015,0.0045814891345799
5,1.0125000434425,-0.213888888094483,-0.00277777787846293,0.0201585534960032,0.00122173049021512,-0.00671951752156019
5,1.01944450285877,-0.206944452990142,-0.00555555575692586,0.0207694191485643,-0.000305432622553781,-0.0027488935738802
5,1.01805561097552,-0.20972223675665,0.0152777788063885,0.0262672062963247,0.0021380283869803,0.0103847095742822
5,1.01805561097552,-0.20972223675665,0.0152777788063885,0.0180205255746841,-0.00122173049021512,-0.000610865245107561
5,1.00972225967599,-0.213888888094483,-0.00694444498106275,0.0134390350431204,0.00671951752156019,0.00366519158706069
5,1.00972225967599,-0.213888888094483,-0.00694444498106275,0.0167987942695618,-0.00244346098043024,0.0134390350431204
5,1.00972225967599,-0.20972223675665,-0.00694444498106275,0.0171042270958424,0.0021380283869803,0.00977384392172098
5,1.01527782720901,-0.20972223675665,0.00138888893923146,0.0167987942695618,0.00641408516094089,0.01191187184304
5,1.0125000434425,-0.212499996211229,-0.00972222266958873,0.0122173046693206,0.00488692196086049,0.00763581553474069
5,1.01666671909226,-0.212499996211229,-0.00416666691266287,0.0161879286170006,0.000916297896765172,0.00977384392172098
5,1.01666671909226,-0.205555561106887,-0.00416666691266287,0.0229074470698834,-0.00122173049021512,0.0100792767480016
5,1.01527782720901,-0.20972223675665,0.00138888893923146,0.013744467869401,-0.00305432616733015,0.0161879286170006
5,1.01111115155925,-0.205555561106887,0.00972222266958873,0.00763581553474069,-0.0021380283869803,0.00549778714776039
5,1.00972225967599,-0.211111128639904,0.00555555575692586,0.00885754637420177,0.000916297896765172,0.0131336031481624
5,1.01388893532575,-0.212499996211229,0.00555555575692586,0.0045814891345799,0.00183259579353034,0.00366519158706069
5,1.01111115155925,-0.211111128639904,-0.00277777787846293,0.01191187184304,0.00183259579353034,0.0106901414692402
5,1.0125000434425,-0.20972223675665,-0.00277777787846293,0.0113010071218014,-0.00733038317412138,0.00977384392172098
5,1.01527782720901,-0.212499996211229,-0.00277777787846293,0.00763581553474069,-0.00946841109544039,0.00855211354792118
5,1.01527782720901,-0.205555561106887,0.00138888893923146,0.00549778714776039,0.00183259579353034,0.0125227374956012
5,1.01388893532575,-0.208333344873396,-0.00277777787846293,0.00885754637420177,-0.0033597587607801,-0.00183259579353034
5,1.01527782720901,-0.212499996211229,0.00416666691266287,0.00519235478714108,0.0021380283869803,0.00427605677396059
5,1.01388893532575,-0.211111128639904,-0.00138888893923146,0.0021380283869803,-0.00427605677396059,-0.000610865245107561
5,1.0125000434425,-0.218055563744246,0.00416666691266287,0.00366519158706069,-0.0021380283869803,0.00397062394768
5,1.0125000434425,-0.211111128639904,0.00416666691266287,0.0021380283869803,-0.00244346098043024,0.00305432616733015
