Activity,acc_x,acc_y,acc_z,gyro_x,gyro_y,gyro_z
0,0.188888894975731,-0.0166666676506515,1.01944450285877,0.172874867916107,-0.213191971182823,-0.267558991909027
0,0.188888894975731,-0.0166666676506515,1.01944450285877,0.116980694234371,-0.168293371796608,-0.193033412098885
0,0.229166674498349,-0.0222222230277034,1.03194452980806,0.0363464802503586,0.118813291192055,-0.0479529201984406
0,0.238888893369199,-0.027777779924251,1.01388893532575,-0.0616973899304867,0.334448724985123,0.0268780700862408
0,0.2194444556275,-0.0152777788063885,0.972222276075846,-0.15332718193531,0.30757063627243,0.0381790772080422
0,0.190277786858986,-0.00833333382532574,0.926388941176177,-0.109650313854218,0.142942473292351,-0.0256563406437635
0,0.177777784221628,-0.00694444498106275,0.904166671044111,0.133474051952362,-0.0470366254448891,-0.127976268529892
0,0.193055558469529,-0.0166666676506515,0.912500022343635,0.256868839263916,-0.130114302039146,-0.120645888149738
0,0.224999998848587,-0.0222222230277034,0.95000000594378,0.25961771607399,-0.118202425539494,-0.0421497002243996
0,0.215277779977737,-0.0125000003581147,0.977777843608863,0.231517925858498,-0.113315500319004,0.0497855171561241
0,0.197222234119292,0.0138888899621255,0.991666665193688,0.185703039169311,-0.081855945289135,0.0613919571042061
0,0.190277786858986,0.029166668768514,1.00277780025972,0.148440256714821,0.00794124789535999,0.0290160998702049
0,0.180555567988136,0.033333335301303,1.01111115155925,0.122173048555851,0.0546724386513233,-0.0262672062963247
0,0.170833336961321,0.0361111129898289,1.02777785415829,0.0855211317539215,0.0464257597923279,-0.0565050356090069
0,0.170833336961321,0.0222222230277034,1.00138890837647,0.0406225398182869,0.0507018156349659,-0.0671951770782471
0,0.170833336961321,0.0194444453391775,1.00555558402623,-0.0122173046693206,0.0351247526705265,-0.0561996027827263
0,0.179166676104882,0.0222222230277034,0.98888888142718,-0.0690277740359306,0.0937678143382072,-0.0671951770782471
0,0.176388892338373,0.029166668768514,0.980555627375371,-0.112704634666443,0.159130394458771,-0.10048733651638
0,0.180555567988136,0.0194444453391775,0.963888924776322,-0.127670839428902,0.149051114916802,-0.127670839428902
0,0.187500003092477,0.00833333382532574,0.94305554652751,-0.0589484944939613,0.165544480085373,-0.110261179506779
0,0.188888894975731,-0.00416666691266287,0.94305554652751,0.0027488935738802,0.0745255574584007,-0.0687223374843597
0,0.179166676104882,-0.00416666691266287,0.956944465360051,0.0659734457731247,-0.0464257597923279,-0.00183259579353034
0,0.17361112072783,-0.00416666691266287,0.975000059842355,0.148745685815811,-0.01191187184304,-0.00794124789535999
0,0.166666673467524,0.00972222266958873,0.990277773310434,0.137750118970871,0.0232128798961639,-0.0329867228865623
0,0.163888889701015,0.0236111118719664,1.01388893532575,0.0901026204228401,-0.0167987942695618,-0.0537561401724815
0,0.17361112072783,0.026388891079988,1.02222228662528,0.0482583530247212,-0.0100792767480016,-0.0803287774324417
0,0.176388892338373,0.03194444645704,1.00694447590948,0.021685715764761,0.0326812900602817,-0.104152522981167
0,0.170833336961321,0.0250000007162294,1.00277780025972,0.027488935738802,0.0934623852372169,-0.126143679022789
0,0.163888889701015,0.0222222230277034,1.00694447590948,0.0189368221908808,-0.0131336031481624,-0.132557764649391
0,0.170833336961321,0.026388891079988,1.00555558402623,-0.0626136884093285,-0.222965821623802,-0.167987942695618
0,0.188888894975731,0.0194444453391775,1.00972225967599,-0.0442877300083637,-0.239459171891212,-0.159435823559761
0,0.188888894975731,0.0194444453391775,1.00972225967599,-0.0400116741657257,-0.197614908218384,-0.120340451598167
0,0.216666671860991,0.0125000003581147,0.981944519258625,-0.0907134860754013,-0.167071640491486,-0.0604756586253643
0,0.229166674498349,-0.00138888893923146,0.983333411141879,-0.0775798857212067,-0.118507854640484,0.0033597587607801
0,0.229166674498349,-0.00138888893923146,0.983333411141879,-0.16401731967926,-0.0882700309157372,0.103847093880177
0,0.224999998848587,-0.00277777787846293,0.99583334084345,-0.386677712202072,-0.435546934604645,0.168293371796608
0,0.233333350148112,-0.0208333341834404,1.00277780025972,-0.769079327583313,-0.688750565052032,0.345444291830063
0,0.24583335278547,-0.0416666683668809,0.976388951725609,-0.885449171066284,-0.846048355102539,0.614225029945374
0,0.259722222994153,-0.0486111125881959,0.952777789710289,-0.639575898647308,-0.765108704566956,0.601396858692169
0,0.252777787889811,-0.0194444453391775,0.93750007624221,-0.462730437517166,-0.7889324426651,0.409585148096085
0,0.238888893369199,-0.0847222225390337,0.913888914226889,-0.301767438650131,-1.03144598007202,0.515875697135925
0,0.272222225631511,-0.15555556271342,0.92083337364316,0.0152716310694814,-1.09711396694183,0.674395203590393
0,0.275000009398019,-0.136111112815755,0.870833363093728,-0.149051114916802,-1.38758039474487,0.802676916122437
0,0.300000014672736,-0.112499999424294,0.833333379493583,-0.532979905605316,-1.86955308914185,0.602007687091827
0,0.316666668647927,-0.105555564319952,0.816666676894533,-0.753196835517883,-2.50851821899414,0.271529614925385
0,0.279166685047782,-0.143055560076062,0.843055622676362,-0.802676916122437,-2.39214825630188,-0.0836885422468185
0,0.315277801076602,-0.140277788465518,0.959722249126559,-0.70371675491333,-1.6523904800415,-0.438906669616699
0,0.412500014097029,-0.14722222356986,0.929166724942685,-0.543670058250427,-0.821919202804565,-0.677449584007263
0,0.468055592179478,-0.212499996211229,0.872222254976982,-0.408668845891953,-0.424551337957382,-0.655763864517212
0,0.479166678621653,-0.24583335278547,0.800000022919342,-0.331088960170746,-0.385150551795959,-0.53328537940979
0,0.462500024646461,-0.277777793164528,0.745833336720147,-0.377820163965225,-0.716239511966705,-0.286190360784531
0,0.443055586904762,-0.238888893369199,0.755555579902926,-0.729983985424042,-1.73943877220154,-0.250149309635162
0,0.522222229754814,-0.193055558469529,0.77638890952788,-1.1966849565506,-2.05098009109497,-0.603229403495789
0,0.587500002396184,-0.187500003092477,0.804166698569104,-1.15056467056274,-1.36742186546326,-0.868955790996552
0,0.608333332021137,-0.172222228844576,0.779166693294388,-0.770301103591919,-1.03052961826325,-1.0934487581253
0,0.656944450687316,-0.29166668768514,0.709722245003256,-0.670119166374207,-1.44194746017456,-0.810007333755493
0,0.709722245003256,-0.295833339022973,0.673611153286365,-0.807563841342926,-1.17194497585297,-0.551000475883484
0,0.751388904253164,-0.262500006760661,0.691666699144811,-0.53481251001358,-1.05374252796173,-0.392786353826523
0,0.755555579902926,-0.265277790527169,0.706944461236748,-0.120035022497177,-0.562912344932556,-0.361021369695664
0,0.761111147435943,-0.24583335278547,0.761111147435943,0.296880513429642,0.187230199575424,-0.532674491405487
0,0.808333374218867,-0.254166679773066,0.775000017644626,0.329867243766785,0.373238652944565,-0.897971928119659
0,0.813888941751883,-0.218055563744246,0.743055601577497,-0.150883719325066,-0.122783914208412,-0.972497463226318
0,0.794444455386325,-0.134722233088466,0.708333353120002,-0.431270867586136,-0.915687024593353,-0.654542088508606
0,0.77638890952788,-0.0805555590452358,0.702777785586986,-0.634078145027161,-1.73821699619293,-0.387899428606033
0,0.755555579902926,-0.0666666706026059,0.676388937052873,-0.842077732086182,-1.63253736495972,-0.367435455322266
0,0.765277823085705,-0.0944444474878658,0.697222266677827,-0.436463207006455,-0.35430184006691,-0.215635433793068
0,0.844444514559616,-0.140277788465518,0.706944461236748,-0.0491746515035629,0.663705110549927,-0.171653136610985
0,0.82916670384382,-0.134722233088466,0.726388898978447,-0.602007687091827,0.450207680463791,-0.239764615893364
0,0.82916670384382,-0.134722233088466,0.726388898978447,-1.21012401580811,-0.603840291500092,-0.720515549182892
0,0.773611125761372,-0.13750000469901,0.680555564078778,-1.04641211032867,-1.20615339279175,-0.599869668483734
0,0.773611125761372,-0.13750000469901,0.680555564078778,-0.733649134635925,-1.02258837223053,-0.456316351890564
0,0.765277823085705,-0.138888896582264,0.630555602153203,-0.616668462753296,-0.288633823394775,-0.334448724985123
0,0.763888931202451,-0.17361112072783,0.554166694445801,-0.551000475883484,0.714406907558441,-0.551305890083313
0,0.775000017644626,-0.162500009973726,0.561111153862072,-0.59650993347168,1.12551915645599,-0.763581573963165
0,0.733333358394718,-0.112499999424294,0.625000034620187,-0.739146947860718,1.27029430866241,-0.913548946380615
0,0.769444450111609,-0.100000002864918,0.680555564078778,-0.862847149372101,1.10200095176697,-1.05099368095398
0,0.73055557462821,-0.14583334384257,0.770833341994863,-0.906218588352203,-0.147523954510689,-0.846353769302368
0,0.784722260827405,-0.154166670830166,0.738888925927735,-0.813977956771851,-0.0494800843298435,-0.846048355102539
0,0.805555590452358,-0.130555557438704,0.743055601577497,-0.614225029945374,0.819781184196472,-0.689972281455994
0,0.800000022919342,-0.111111119697004,0.759722255552688,-0.617279350757599,1.50242304801941,-0.451123982667923
0,0.762500039319197,-0.0847222225390337,0.763888931202451,-0.78740531206131,1.53082835674286,-0.479529231786728
0,0.709722245003256,-0.108333335930496,0.733333358394718,-0.803898692131042,0.883311152458191,-0.455705463886261
0,0.700000001820477,-0.118055554801345,0.698611158561081,-0.649044334888458,-0.0311541277915239,-0.521984338760376
0,0.683333347845286,-0.105555564319952,0.691666699144811,-0.345138877630234,0.345444291830063,-0.75594574213028
0,0.690277807261557,-0.0708333340964038,0.719444488186035,-0.0684169083833694,1.07695543766022,-0.885754585266113
0,0.672222261403111,-0.116666675074056,0.752777796136418,0.120035022497177,0.856127619743347,-0.811839938163757
0,0.680555564078778,-0.18333333959868,0.713888920653019,0.0253509078174829,0.319787949323654,-0.563828647136688
0,0.673611153286365,-0.152777778946911,0.743055601577497,-0.186008468270302,0.560774266719818,-0.306348919868469
0,0.652777823661411,-0.0944444474878658,0.825000028194058,-0.24862214922905,1.44133651256561,-0.489303052425385
0,0.644444472361887,-0.0611111152255539,0.837500055143345,-0.173791155219078,1.75990271568298,-0.729373097419739
0,0.613888899554154,-0.111111119697004,0.779166693294388,-0.16951510310173,1.23669672012329,-0.886670887470245
0,0.608333332021137,-0.152777778946911,0.697222266677827,-0.379652738571167,0.19578230381012,-0.611476123332977
0,0.626388926503441,-0.176388892338373,0.677777780312269,-0.521068036556244,-0.720210134983063,-0.280692577362061
0,0.643055580478633,-0.141666668192807,0.723611115211939,-0.242818936705589,-0.7889324426651,-0.150578290224075
0,0.647222256128395,-0.0847222225390337,0.787500044593913,-0.011606439948082,0.118507854640484,-0.319482535123825
0,0.636111121062362,-0.0597222233422998,0.800000022919342,-0.193949714303017,0.455705463886261,-0.434325188398361
0,0.640277796712124,-0.0819444448505077,0.797222239152834,-0.163406446576118,0.678060412406921,-0.491135656833649
0,0.654166666920807,-0.140277788465518,0.716666704419527,-0.0589484944939613,0.320704251527786,-0.198531210422516
0,0.666666693870094,-0.150000007336368,0.680555564078778,-0.090408056974411,-0.6139195561409,0.078801617026329
0,0.669444477636603,-0.1194444466846,0.719444488186035,0.140499010682106,-0.919657647609711,0.11606439948082
0,0.661111126337078,-0.0750000036681839,0.769444450111609,0.443793594837189,-0.748004496097565,-0.011606439948082
0,0.644444472361887,-0.0486111125881959,0.798611131036088,0.366519153118133,-0.201585531234741,-0.26908615231514
0,0.640277796712124,-0.0402777795226179,0.834722271376837,-0.011606439948082,0.186924770474434,-0.363464832305908
0,0.647222256128395,-0.0597222233422998,0.838888947026599,-0.181426972150803,0.701884150505066,-0.383317947387695
0,0.663888910103586,-0.101388894748172,0.791666671619817,-0.176234617829323,0.415693789720535,-0.148440256714821
0,0.683333347845286,-0.0986111170596459,0.737500034044481,-0.139582708477974,-0.329256355762482,-0.0937678143382072
0,0.673611153286365,-0.0763888894734557,0.73055557462821,0.0479529201984406,-0.727235078811646,-0.194255143404007
0,0.668055585753349,-0.0625000010308258,0.737500034044481,0.268169850111008,-0.453262001276016,-0.234266817569733
0,0.693055591028065,-0.0638888929140799,0.720833380069289,0.333532422780991,-0.637743294239044,-0.151494577527046
0,0.736111142161226,-0.0791666671619817,0.726388898978447,0.319787949323654,-0.987463653087616,-0.0250454749912024
0,0.743055601577497,-0.0680555564078778,0.740277817810989,0.304516315460205,-0.767857611179352,0.00671951752156019
0,0.754166688019672,-0.0472222237439329,0.754166688019672,0.164322748780251,-0.13744467496872,-0.37079519033432
0,0.655555558804062,-0.00833333382532574,0.727777790861702,-0.161879286170006,-0.0852157026529312,-0.0384845100343227
0,0.706944461236748,-0.0361111129898289,0.736111142161226,-0.204945296049118,-0.0668897479772568,-0.0494800843298435
0,0.706944461236748,-0.0638888929140799,0.729166682744956,-0.0931569486856461,-0.240986332297325,-0.0180205255746841
0,0.726388898978447,-0.0666666706026059,0.718055596302781,-0.0424551330506802,-0.582459986209869,-0.000610865245107561
0,0.709722245003256,-0.0416666683668809,0.741666709694243,0.0109955742955208,-0.427300244569778,-0.0418442711234093
0,0.693055591028065,-0.0138888899621255,0.736111142161226,-0.0021380283869803,0.08460483700037,-0.15332718193531
0,0.666666693870094,0.00555555575692586,0.719444488186035,-0.218689754605293,0.299323976039886,-0.0894917547702789
0,0.725000007095193,-0.0416666683668809,0.700000001820477,-0.253814518451691,0.26419922709465,0.149356558918953
0,0.745833336720147,-0.0388888906783549,0.70416667747024,-0.0687223374843597,0.0772744566202164,0.368351757526398
0,0.745833336720147,-0.0763888894734557,0.659722234453824,0.1795943826437,-0.00733038317412138,0.340557366609573
0,0.709722245003256,-0.0388888906783549,0.681944455962032,0.273667633533478,-0.63896507024765,0.308181524276733
0,0.709722245003256,-0.0388888906783549,0.681944455962032,0.0977384373545647,-0.516791999340057,0.188451930880547
0,0.697222266677827,-0.0694444482911319,0.759722255552688,0.306348919868469,-0.273056775331497,-0.0507018156349659
0,0.804166698569104,0.0222222230277034,0.70416667747024,0.268169850111008,0.112704634666443,0.0335975885391235
0,0.804166698569104,0.0222222230277034,0.70416667747024,0.370184332132339,0.175318330526352,0.38576140999794
0,0.748611120486655,-0.0791666671619817,0.662500018220332,0.372627794742584,0.327729195356369,-0.292909890413284
0,0.748611120486655,0.0416666683668809,0.690277807261557,0.220522359013557,-0.106901414692402,0.11636982858181
0,0.748611120486655,0.0416666683668809,0.690277807261557,0.0931569486856461,-0.320093393325806,-0.02382374368608
0,0.676388937052873,-0.0194444453391775,0.773611125761372,0.03176499158144,0.0867428630590439,-0.0204639863222837
0,0.716666704419527,-0.0680555564078778,0.731944466511464,0.0467311926186085,0.290771842002869,0.106901414692402
0,0.716666704419527,-0.0680555564078778,0.731944466511464,0.108428582549095,0.428216546773911,0.206777885556221
0,0.729166682744956,-0.0486111125881959,0.666666693870094,0.0326812900602817,0.480750948190689,0.122173048555851
0,0.716666704419527,-0.0138888899621255,0.690277807261557,0.0109955742955208,0.399200439453125,0.242818936705589
0,0.716666704419527,-0.0138888899621255,0.690277807261557,-0.0513126812875271,0.0684169083833694,0.140499010682106
0,0.701388893703731,0.00833333382532574,0.688888915378302,-0.223576679825783,0.2165517359972,-0.00488692196086049
0,0.70416667747024,-0.00277777787846293,0.687500023495048,-0.215024560689926,0.145691365003586,-0.0134390350431204
0,0.712500028769764,-0.0583333375370279,0.712500028769764,-0.107206851243973,0.101709060370922,0.0470366254448891
0,0.712500028769764,-0.0861111144222878,0.733333358394718,-0.0421497002243996,0.0791070461273193,0.0430659987032413
0,0.713888920653019,-0.0763888894734557,0.748611120486655,-0.0421497002243996,0.0675006061792374,-0.02382374368608
0,0.719444488186035,-0.0708333340964038,0.715277812536273,-0.0348193198442459,-0.00641408516094089,-0.0653625801205635
0,0.700000001820477,-0.0708333340964038,0.719444488186035,0.0201585534960032,-0.154548913240433,-0.0354301854968071
0,0.670833369519857,-0.0583333375370279,0.752777796136418,-0.0427605658769607,-0.078801617026329,-0.0595593601465225
0,0.690277807261557,-0.0736111117849297,0.726388898978447,-0.019547687843442,-0.08460483700037,-0.0369573459029198
0,0.708333353120002,-0.0819444448505077,0.722222271952543,-0.00244346098043024,-0.0693332031369209,-0.0540615729987621
0,0.737500034044481,-0.0750000036681839,0.701388893703731,-0.113926365971565,0.287412106990814,-0.0684169083833694
0,0.745833336720147,-0.0819444448505077,0.695833374794573,-0.106901414692402,0.171958565711975,-0.119729585945606
0,0.745833336720147,-0.0944444474878658,0.709722245003256,-0.0959058403968811,0.0763581544160843,-0.130725160241127
0,0.73055557462821,-0.0763888894734557,0.715277812536273,-0.13225232064724,0.145080491900444,-0.144164204597473
0,0.706944461236748,-0.0583333375370279,0.708333353120002,-0.219911485910416,0.271224170923233,-0.161573857069016
0,0.672222261403111,-0.030555557612777,0.745833336720147,-0.223271250724793,0.0354301854968071,-0.0772744566202164
0,0.622222250853679,-0.0777777813567098,0.720833380069289,-0.161879286170006,-0.364991992712021,0.0965167060494423
0,0.691666699144811,-0.130555557438704,0.723611115211939,-0.165239050984383,-0.096211276948452,-0.0537561401724815
0,0.694444482911319,-0.0986111170596459,0.765277823085705,-0.0583376325666905,-0.00488692196086049,0.0568104684352875
0,0.683333347845286,-0.0819444448505077,0.759722255552688,-0.0662788823246956,0.117591559886932,0.0226020142436027
0,0.700000001820477,-0.0652777787193518,0.745833336720147,-0.0775798857212067,0.147523954510689,0.0565050356090069
0,0.701388893703731,-0.055555559848502,0.733333358394718,-0.119729585945606,0.181732416152954,0.0485637858510017
0,0.700000001820477,-0.0486111125881959,0.741666709694243,-0.110566608607769,0.197004035115242,-0.0198531206697226
0,0.706944461236748,-0.0625000010308258,0.731944466511464,-0.116675265133381,0.157908663153648,-0.0403171069920063
0,0.702777785586986,-0.0972222251763917,0.720833380069289,-0.0678060427308083,-0.0397062413394451,-0.00671951752156019
0,0.697222266677827,-0.106944444047242,0.736111142161226,-0.058643065392971,-0.070249505341053,-0.0128281703218818
0,0.690277807261557,-0.0930555616825939,0.747222228603401,-0.0656680166721344,-0.0607810914516449,-0.0262672062963247
0,0.68472223972854,-0.0861111144222878,0.734722250277972,-0.0430659987032413,-0.156992360949516,-0.0045814891345799
0,0.708333353120002,-0.0777777813567098,0.737500034044481,0.00366519158706069,-0.204028993844986,-0.0219911485910416
0,0.722222271952543,-0.0875000002275597,0.738888925927735,0.00122173049021512,-0.070249505341053,-0.0198531206697226
0,0.690277807261557,-0.0819444448505077,0.743055601577497,0.0219911485910416,0.0351247526705265,0.0537561401724815
0,0.673611153286365,-0.0777777813567098,0.729166682744956,0.000610865245107561,0.0668897479772568,0.0445931628346443
0,0.694444482911319,-0.0847222225390337,0.70416667747024,-0.0427605658769607,0.0271835029125214,0.00916297826915979
0,0.722222271952543,-0.104166672436698,0.702777785586986,-0.0326812900602817,-0.0687223374843597,-0.0122173046693206
0,0.706944461236748,-0.101388894748172,0.716666704419527,-0.0143553335219622,-0.163406446576118,0.0455094613134861
0,0.672222261403111,-0.0916666697993398,0.738888925927735,-0.029626963660121,-0.076052725315094,0.0726929605007172
0,0.672222261403111,-0.0819444448505077,0.719444488186035,-0.0815505087375641,-0.015577063895762,0.0797179117798805
0,0.698611158561081,-0.0916666697993398,0.723611115211939,-0.0891863256692886,-0.0348193198442459,0.0861319974064827
0,0.712500028769764,-0.101388894748172,0.737500034044481,-0.0748309940099716,0.0687223374843597,0.0678060427308083
0,0.694444482911319,-0.108333335930496,0.740277817810989,-0.04764748737216,0.0488692186772823,0.0803287774324417
0,0.694444482911319,-0.108333335930496,0.740277817810989,-0.013744467869401,-0.201890960335732,0.134390354156494
0,0.683333347845286,-0.0777777813567098,0.726388898978447,-0.0690277740359306,0.0027488935738802,0.117286130785942
0,0.683333347845286,-0.0777777813567098,0.726388898978447,-0.150578290224075,0.213497400283814,0.104457959532738
0,0.683333347845286,-0.0777777813567098,0.726388898978447,-0.150578290224075,0.213497400283814,0.104457959532738
0,0.690277807261557,-0.1194444466846,0.740277817810989,-0.0919352173805237,-0.0607810914516449,0.241597205400467
0,0.706944461236748,-0.14722222356986,0.729166682744956,-0.0919352173805237,0.0910189226269722,0.267558991909027
0,0.706944461236748,-0.158333334323963,0.708333353120002,-0.0180205255746841,-0.196393176913261,0.341168224811554
0,0.700000001820477,-0.144444451959316,0.690277807261557,0.04764748737216,-0.328034639358521,0.215330004692078
0,0.786111152710659,-0.161111118090472,0.712500028769764,0.0177150927484035,-0.213497400283814,0.0592539273202419
0,0.779166693294388,-0.18333333959868,0.743055601577497,0.0956004112958908,-0.276111096143722,-0.0772744566202164
0,0.784722260827405,-0.172222228844576,0.75000001236991,0.142637029290199,-0.267558991909027,-0.193338856101036
0,0.781944477060896,-0.113888891307548,0.734722250277972,0.0778853222727776,0.300545692443848,-0.278249114751816
0,0.73055557462821,-0.0833333367337618,0.733333358394718,0.0387899428606033,0.616668462753296,-0.328034639358521
0,0.676388937052873,-0.0986111170596459,0.706944461236748,0.214413702487946,0.00397062394768,-0.327729195356369
0,0.645833364245141,-0.0722222259796579,0.700000001820477,0.244956970214844,-0.23243422806263,-0.282219737768173
0,0.625000034620187,-0.0416666683668809,0.697222266677827,0.0134390350431204,0.484721571207047,0.0226020142436027
0,0.700000001820477,-0.140277788465518,0.795833347269579,0.235793977975845,-0.127670839428902,-0.423329621553421
0,0.700000001820477,-0.140277788465518,0.795833347269579,0.090408056974411,0.241291776299477,-0.202196389436722
0,0.719444488186035,-0.122222230451108,0.733333358394718,0.139888137578964,0.429743707180023,-0.199447497725487
0,0.670833369519857,-0.0791666671619817,0.708333353120002,0.221133217215538,0.125532805919647,-0.170736834406853
0,0.705555569353494,-0.0791666671619817,0.712500028769764,0.303294599056244,-0.30146199464798,-0.129503428936005
0,0.720833380069289,-0.0402777795226179,0.713888920653019,0.26908615231514,-0.281914323568344,-0.145996794104576
0,0.697222266677827,-0.0388888906783549,0.73055557462821,0.173791155219078,-0.0733038261532784,-0.101709060370922
0,0.708333353120002,-0.0361111129898289,0.698611158561081,-0.0678060427308083,0.479834645986557,-0.10598511993885
0,0.708333353120002,-0.0361111129898289,0.698611158561081,-0.283441483974457,0.900720775127411,-0.105374254286289
0,0.663888910103586,-0.0375000018340919,0.740277817810989,0.0308486949652433,0.634078145027161,0.0647517144680023
0,0.706944461236748,-0.0611111152255539,0.766666714968959,0.18020524084568,0.019547687843442,-0.0870482996106148
0,0.719444488186035,-0.052777782159976,0.718055596302781,-0.273056775331497,0.401033043861389,-0.529009282588959
0,0.765277823085705,-0.0902777839940679,0.56666667277123,-0.620944499969482,0.329256355762482,-0.411112308502197
0,0.431944451838729,0.0194444453391775,0.818055568777787,-0.264810085296631,0.699746131896973,0.246789559721947
0,0.512500035195893,0.0250000007162294,0.82222224442755,-0.184786736965179,1.03114056587219,0.301767438650131
0,0.627777818386695,-0.105555564319952,0.931944508709193,0.160657554864883,0.0354301854968071,0.271224170923233
0,0.656944450687316,-0.12777778582816,0.861111119910949,0.0222965814173222,-0.665232241153717,0.184786736965179
0,0.577777807837263,-0.0986111170596459,0.761111147435943,-0.0198531206697226,-0.778547763824463,0.205861583352089
0,0.600000029345471,-0.0625000010308258,0.718055596302781,0.260534018278122,-1.34268176555634,0.302683740854263
0,0.625000034620187,-0.0986111170596459,0.825000028194058,0.32742378115654,-1.98592293262482,0.412944912910461
0,0.647222256128395,-0.16527778158427,0.763888931202451,0.00885754637420177,-0.932791233062744,0.147218525409698
0,0.680555564078778,-0.170833336961321,0.773611125761372,-0.182037845253944,-0.0577267669141293,-0.154243469238281
0,0.702777785586986,-0.150000007336368,0.786111152710659,-0.419053554534912,-0.261450320482254,-0.308486938476563
0,0.680555564078778,-0.190277786858986,0.78333336894415,-0.337503045797348,-0.295353353023529,-0.569326400756836
0,0.727777790861702,-0.162500009973726,0.688888915378302,0.677754998207092,-0.329867243766785,-0.668897449970245
0,0.770833341994863,-0.108333335930496,0.531944472937593,0.591012120246887,-0.0516181141138077,-0.652098655700684
0,0.733333358394718,-0.0388888906783549,0.713888920653019,0.214719131588936,-0.396451532840729,-0.613308727741241
0,0.741666709694243,0.0486111125881959,0.723611115211939,-0.167377084493637,-0.258090555667877,-0.689361453056335
0,0.800000022919342,0.00972222266958873,0.668055585753349,-0.747393608093262,-0.739452362060547,-0.409890592098236
0,0.686111131611794,-0.144444451959316,0.558333370095563,-1.29869949817657,-2.56319046020508,0.491746515035629
0,0.515277818962402,-0.252777787889811,0.273611117514765,-2.68872332572937,-6.39270496368408,1.21501100063324
0,0.775000017644626,-0.136111112815755,0.798611131036088,-1.22600650787353,-2.88969802856445,0.74464476108551
0,0.819444460661041,-0.0611111152255539,0.620833358970425,-1.23516952991486,-2.70368957519531,0.608421802520752
0,1.15000004814151,-0.0986111170596459,0.676388937052873,-0.228463605046272,-0.142637029290199,0.0986547395586967
0,1.04583335139288,-0.180555567988136,0.391666684472075,-0.344833433628082,-1.20829141139984,0.017409659922123
0,0.991666665193688,-0.224999998848587,0.2194444556275,-1.03999805450439,-3.77728533744812,-0.475253164768219
0,1.11805563207438,-0.172222228844576,0.188888894975731,-1.67651963233948,-5.20365571975708,-0.907440304756165
0,1.18333335609189,-0.202777789496344,0.0902777839940679,-2.14902400970459,-6.2659502029419,-1.04183065891266
0,1.12777777800944,-0.216666671860991,-0.0180555564949145,-2.06716799736023,-6.05062007904053,-0.948062837123871
0,1.20694451810721,-0.206944452990142,-0.0944444474878658,-1.56534218788147,-4.31484651565552,-0.935845553874969
0,1.0902777944093,-0.227777782615095,-0.204166669223633,-1.16339290142059,-1.94224607944489,-0.912632703781128
0,1.01388893532575,-0.115277783190802,-0.236111109602691,-1.11635625362396,-1.04091441631317,-0.54916787147522
0,1.1708333291426,0.00833333382532574,-0.0986111170596459,-0.999680995941162,-0.655152976512909,-0.490830212831497
0,1.03194452980806,-0.00833333382532574,-0.172222228844576,-1.08886730670929,-1.51891648769379,-0.192727982997894
0,0.956944465360051,-0.0347222241455659,-0.141666668192807,-0.87262099981308,-2.20278000831604,0.0885754600167274
0,0.798611131036088,-0.13750000469901,-0.148611115453114,-0.491746515035629,-2.59678816795349,0.531758189201355
0,0.798611131036088,-0.125000002061652,-0.166666673467524,-0.296269655227661,-0.853684186935425,1.14995384216309
0,0.893055633225794,-0.0250000007162294,-0.055555559848502,0.00824668072164059,1.1566733121872,1.23730754852295
0,0.926388941176177,0.0375000018340919,-0.1194444466846,-0.297185927629471,1.01678514480591,1.21134579181671
0,0.952777789710289,-0.148611115453114,-0.108333335930496,-0.284052342176437,0.571464419364929,0.934929251670837
0,0.82916670384382,-0.163888889701015,-0.12916666555545,-0.552222192287445,-0.359494209289551,1.0134254693985
0,0.848611190209378,-0.0986111170596459,-0.136111112815755,-0.791681349277496,-0.531147301197052,0.689055979251862
0,0.975000059842355,-0.202777789496344,-0.101388894748172,-0.498466044664383,0.263893783092499,0.427911102771759
0,0.780555585177642,-0.308333341660331,-0.258333331110899,-0.524122357368469,-0.919046759605408,0.889114379882813
0,1.06250005399193,-0.308333341660331,-0.230555566381603,-0.112704634666443,0.0470366254448891,0.590095818042755
0,1.10972228077486,-0.251388896006557,-0.275000009398019,-0.0552833043038845,0.277332812547684,0.509156167507172
0,0.883333390043015,-0.281944444502361,-0.236111109602691,-0.0885754600167274,-0.299934834241867,0.656680166721344
0,0.916666697993398,-0.361111135976272,-0.288888903918631,-0.0897971913218498,-0.465173870325089,0.4331034719944
0,1.03750000009336,-0.300000014672736,-0.308333341660331,-0.315206468105316,-1.08611845970154,0.171347707509995
0,1.09444447005906,-0.325000019947452,-0.365277787314105,-0.161573857069016,-0.444404453039169,0.16401731967926
0,1.04861113515939,-0.327777779402031,-0.33750002258481,-0.0335975885391235,0.35979962348938,-0.120951317250729
0,0.965277816659576,-0.198611113846581,-0.361111135976272,-0.275194793939591,0.937372744083405,0.0418442711234093
0,0.827777811960566,-0.254166679773066,-0.372222246730376,-0.433408886194229,2.15177273750305,-0.027488935738802
0,0.826388920077312,-0.265277790527169,-0.195833342236038,-0.228769034147263,0.568410098552704,-0.300545692443848
0,1.09166668629255,-0.125000002061652,-0.288888903918631,-0.412028610706329,1.13743114471436,-0.867123186588287
0,1.11805563207438,-0.108333335930496,-0.17361112072783,-0.334143280982971,0.467006474733353,-0.937983572483063
0,1.01666671909226,-0.108333335930496,-0.123611110178398,-0.204028993844986,-0.471893399953842,-0.447764217853546
0,0.75694447178618,-0.0916666697993398,-0.213888888094483,-0.138666406273842,-0.600175082683563,0.189062789082527
0,1.04861113515939,-0.101388894748172,-0.148611115453114,0.0213802829384804,-0.717766642570496,0.923628270626068
0,1.04861113515939,-0.150000007336368,-0.256944463539574,0.197614908218384,-0.284357786178589,1.1301007270813
0,1.09722225382557,-0.218055563744246,-0.323611128064198,0.290771842002869,0.101403631269932,0.936761856079102
0,1.04305556762637,-0.252777787889811,-0.354166676560001,0.146302223205566,0.0867428630590439,0.847575545310974
0,1.0125000434425,-0.272222225631511,-0.323611128064198,0.25961771607399,0.260228604078293,0.818559408187866
0,0.940277860008718,-0.259722222994153,-0.25555557165632,0.353996396064758,0.346971452236175,0.95783668756485
0,1.04583335139288,-0.340277782039389,-0.283333336385615,0.229685336351395,0.164933621883392,0.811839938163757
0,1.02916674604155,-0.370833354847121,-0.269444466176932,0.215330004692078,0.0675006061792374,0.731511116027832
0,0.923611157409668,-0.275000009398019,-0.212499996211229,-0.019547687843442,0.0974330082535744,0.770606517791748
0,0.904166671044111,-0.238888893369199,-0.193055558469529,-0.198225766420364,0.00763581553474069,0.870177567005157
0,0.89166674134254,-0.344444457689151,-0.2194444556275,-0.150272846221924,0.0363464802503586,0.868039488792419
0,0.973611167959101,-0.411111122213775,-0.229166674498349,-0.124921940267086,0.00549778714776039,0.716544926166534
0,1.02222228662528,-0.437500019371745,-0.262500006760661,-0.017409659922123,0.117286130785942,0.503047525882721
0,0.911111130460381,-0.411111122213775,-0.236111109602691,0.0125227374956012,0.0769690200686455,0.53328537940979
0,0.936111184358955,-0.395833335809908,-0.227777782615095,-0.0134390350431204,0.00305432616733015,0.422107875347138
0,0.986111194908388,-0.411111122213775,-0.215277779977737,-0.150883719325066,-0.0503963828086853,0.206472456455231
0,1.10138892947533,-0.44861110581392,-0.272222225631511,-0.0671951770782471,0.0513126812875271,-0.0809396430850029
0,0.997222232726705,-0.408333338447267,-0.226388890731841,-0.000305432622553781,0.0302378293126821,-0.108734011650086
0,0.919444481759906,-0.368055571080613,-0.206944452990142,-0.0339030213654041,0.0943786799907684,-0.287717521190643
0,1.04027778385987,-0.323611128064198,-0.213888888094483,-0.172569438815117,0.0503963828086853,-0.559552550315857
0,1.01388893532575,-0.318055560531181,-0.281944444502361,-0.239764615893364,-0.27458393573761,-1.0012081861496
0,0.89722221162784,-0.390277792588821,-0.202777789496344,-0.16890424489975,0.00824668072164059,-1.26968336105347
0,0.82222224442755,-0.344444457689151,-0.295833339022973,0.132863193750381,0.0125227374956012,-1.38880217075348
0,0.754166688019672,-0.377777789951463,-0.226388890731841,0.117591559886932,-0.136222943663597,-1.29320168495178
0,0.841666730793107,-0.383333357484479,-0.229166674498349,0.0803287774324417,-0.182954147458077,-0.804509520530701
0,1.00694447590948,-0.305555557893823,-0.265277790527169,-0.130419731140137,-0.184786736965179,-0.463952153921127
0,1.04305556762637,-0.305555557893823,-0.276388901281273,-0.288022965192795,-0.0668897479772568,-0.178983509540558
0,0.944444438410764,-0.340277782039389,-0.259722222994153,-0.117591559886932,0.0616973899304867,-0.371406078338623
0,0.930555616825939,-0.250000004123303,-0.269444466176932,0.0479529201984406,-0.157297804951668,-0.44898596405983
0,0.993055557076942,-0.295833339022973,-0.229166674498349,-0.0613919571042061,-0.0943786799907684,-0.723569869995117
0,1.02222228662528,-0.231944458264858,-0.268055574293678,-0.00549778714776039,-0.0671951770782471,-0.578489363193512
0,1.10555560512509,-0.236111109602691,-0.275000009398019,0.0400116741657257,0.0696386396884918,-0.167682513594627
0,1.04166667574312,-0.241666677135707,-0.273611117514765,0.0540615729987621,0.186313897371292,-0.0458148941397667
0,0.912500022343635,-0.218055563744246,-0.236111109602691,0.0253509078174829,0.276111096143722,-0.220522359013557
0,0.947222222177272,-0.190277786858986,-0.238888893369199,-0.113926365971565,-0.00305432616733015,-0.0226020142436027
0,0.95000000594378,-0.206944452990142,-0.226388890731841,-0.0479529201984406,-0.113315500319004,0.0995710343122482
0,0.96666670854283,-0.24583335278547,-0.280555576931036,0.344222575426102,0.143247902393341,0.26419922709465
0,0.994444448960196,-0.247222220356795,-0.288888903918631,0.712879717350006,0.582765460014343,0.283441483974457
0,0.890277849459286,-0.204166669223633,-0.251388896006557,0.435852348804474,0.60903263092041,-0.00946841109544039
0,0.890277849459286,-0.204166669223633,-0.251388896006557,-0.325896620750427,-0.173180297017098,0.0894917547702789
0,1.00972225967599,-0.170833336961321,-0.200000005729836,-0.658512711524963,-0.559247136116028,0.246789559721947
0,1.03472221632685,-0.250000004123303,-0.229166674498349,-0.142331600189209,-0.507323563098907,0.319482535123825
0,1.03472221632685,-0.250000004123303,-0.229166674498349,0.0751364231109619,-0.117286130785942,0.26908615231514
0,1.01805561097552,-0.287500012035377,-0.256944463539574,0.109650313854218,-0.0235183127224445,0.103236228227615
0,0.975000059842355,-0.269444466176932,-0.259722222994153,0.104763388633728,0.0326812900602817,-0.01191187184304
0,0.975000059842355,-0.269444466176932,-0.259722222994153,0.0390953756868839,0.193338856101036,0.0265726372599602
0,0.997222232726705,-0.252777787889811,-0.237500001485945,-0.0861319974064827,0.0812450796365738,-0.0186313893646002
0,0.99583334084345,-0.269444466176932,-0.284722228268869,0.0271835029125214,0.210443079471588,-0.00244346098043024
0,0.99583334084345,-0.269444466176932,-0.284722228268869,0.0342084541916847,0.144164204597473,-0.0433714315295219
0,0.976388951725609,-0.248611112240049,-0.236111109602691,0.184175878763199,0.161268427968025,0.0696386396884918
0,0.930555616825939,-0.250000004123303,-0.240277785252453,0.00946841109544039,-0.00885754637420177,0.0797179117798805
0,0.930555616825939,-0.250000004123303,-0.240277785252453,0.0360410511493683,0.123089343309402,-0.0021380283869803
0,0.936111184358955,-0.261111114877407,-0.233333350148112,0.0198531206697226,-0.01191187184304,0.128281697630882
0,0.986111194908388,-0.275000009398019,-0.224999998848587,0.013744467869401,-0.0959058403968811,0.0699440687894821
0,1.00555558402623,-0.251388896006557,-0.229166674498349,-0.0479529201984406,-0.102625362575054,0.0830776765942574
0,0.948611114060526,-0.25555557165632,-0.234722242031366,-0.00671951752156019,-0.198531210422516,0.280387133359909
0,0.894444525109048,-0.24583335278547,-0.212499996211229,0.0448985956609249,-0.231517925858498,0.358883321285248
0,0.899999995394348,-0.265277790527169,-0.236111109602691,0.152105450630188,-0.0650571510195732,0.22785273194313
0,0.865277795560711,-0.305555557893823,-0.236111109602691,0.35491269826889,0.0329867228865623,0.0516181141138077
0,0.870833363093728,-0.341666673922643,-0.275000009398019,0.271835029125214,0.0833831056952477,-0.778853178024292
0,0.887500065692777,-0.33750002258481,-0.297222230906227,0.129197999835014,-0.149356558918953,-0.583681762218475
0,0.98888888142718,-0.237500001485945,-0.279166685047782,-0.0250454749912024,0.05283984541893,-0.920879364013672
0,0.972222276075846,-0.19166667874224,-0.265277790527169,0.0418442711234093,0.262061178684235,-0.347582310438156
0,1.01111115155925,-0.18333333959868,-0.265277790527169,0.123394779860973,0.142026171088219,-0.305127203464508
0,0.923611157409668,-0.233333350148112,-0.236111109602691,0.0632245540618896,0.0693332031369209,-0.370184332132339
0,0.887500065692777,-0.25555557165632,-0.229166674498349,-0.107817716896534,-0.0565050356090069,-0.459370672702789
0,1.18333335609189,-0.2194444556275,-0.277777793164528,-0.229074463248253,0.160962998867035,-0.552222192287445
0,1.12499999424293,-0.177777784221628,-0.25555557165632,-0.149051114916802,0.452040284872055,-0.327118337154388
0,1.06805562152495,-0.168055565350778,-0.25555557165632,0.0103847095742822,0.553749322891235,-0.107206851243973
0,1.0305556379248,-0.190277786858986,-0.215277779977737,0.136222943663597,0.396451532840729,-0.0287106670439243
0,0.986111194908388,-0.211111128639904,-0.186111123365188,-0.0439822971820831,0.107817716896534,-0.10567969083786
0,1.00833336779274,-0.202777789496344,-0.194444450352783,-0.0357356183230877,0.110566608607769,-0.112704634666443
0,0.981944519258625,-0.190277786858986,-0.195833342236038,-0.00580321997404099,0.215330004692078,-0.0546724386513233
0,1.00972225967599,-0.187500003092477,-0.194444450352783,0.12156218290329,0.838717997074127,0.0464257597923279
0,0.986111194908388,-0.180555567988136,-0.172222228844576,0.170736834406853,0.756862044334412,-0.0366519130766392
0,0.962500032893068,-0.181944447715425,-0.190277786858986,0.0974330082535744,0.36987891793251,-0.0894917547702789
0,0.979166735492117,-0.176388892338373,-0.202777789496344,0.0244346093386412,0.197920337319374,0.00305432616733015
0,1.02777785415829,-0.197222234119292,-0.177777784221628,-0.0858265683054924,0.170736834406853,-0.0623082555830479
0,1.01944450285877,-0.200000005729836,-0.170833336961321,-0.177150920033455,0.101098194718361,-0.0519235469400883
0,1.00833336779274,-0.200000005729836,-0.166666673467524,-0.251065611839294,-0.0226020142436027,-0.0131336031481624
0,1.00138890837647,-0.186111123365188,-0.120833338567854,-0.193338856101036,-0.132557764649391,-0.011606439948082
0,0.993055557076942,-0.18333333959868,-0.0916666697993398,-0.194866016507149,-0.241291776299477,-0.0390953756868839
0,1.01527782720901,-0.187500003092477,-0.116666675074056,-0.188451930880547,-0.377209275960922,-0.0952949747443199
0,1.03750000009336,-0.200000005729836,-0.134722233088466,-0.136528387665749,-0.46059238910675,-0.0833831056952477
0,1.04305556762637,-0.2194444556275,-0.16527778158427,-0.112093769013882,-0.595593631267548,-0.114842668175697
0,1.0125000434425,-0.220833347510754,-0.168055565350778,-0.0665843114256859,-0.713796019554138,-0.108734011650086
0,1.03472221632685,-0.17361112072783,-0.166666673467524,-0.142331600189209,-0.8472700715065,-0.0888808965682983
0,0.930555616825939,-0.0958333393711199,-0.318055560531181,0.399505883455276,-0.91996306180954,-0.114537231624126
0,0.976388951725609,-0.111111119697004,-0.287500012035377,0.0769690200686455,0.00916297826915979,0.143247902393341
0,1.01527782720901,-0.18333333959868,-0.150000007336368,0.25870144367218,0.59650993347168,0.124616511166096
0,0.952777789710289,-0.166666673467524,-0.0833333367337618,0.131030589342117,-0.173485726118088,-0.00519235478714108
0,0.970833384192592,-0.190277786858986,-0.14722222356986,0.232128798961639,-0.148745685815811,-0.0342084541916847
0,1.00277780025972,-0.17361112072783,-0.261111114877407,0.0540615729987621,0.0574213340878487,-0.0372627787292004
0,0.991666665193688,-0.179166676104882,-0.262500006760661,-0.114842668175697,0.135917514562607,0.00702495034784079
0,0.979166735492117,-0.176388892338373,-0.198611113846581,-0.0681114718317986,-0.10567969083786,-0.0268780700862408
0,0.969444492309338,-0.18333333959868,-0.186111123365188,-0.0781907513737679,-0.204028993844986,-0.000916297896765172
0,1.0125000434425,-0.198611113846581,-0.220833347510754,0.0723875313997269,0.0763581544160843,0.0241291765123606
0,0.997222232726705,-0.202777789496344,-0.215277779977737,0.0128281703218818,-0.0583376325666905,0.00152716308366507
0,0.987499989543926,-0.184722231481934,-0.2194444556275,0.00641408516094089,-0.0613919571042061,-0.00763581553474069
0,0.994444448960196,-0.176388892338373,-0.220833347510754,-0.0277943685650826,-0.145996794104576,-0.00763581553474069
0,1.00138890837647,-0.17361112072783,-0.231944458264858,0.0332921557128429,-0.0510072484612465,-0.00671951752156019
0,1.01527782720901,-0.148611115453114,-0.306944449777077,-0.0531452745199203,-0.00183259579353034,0.0045814891345799
0,1.00000001649321,-0.16527778158427,-0.237500001485945,-0.00794124789535999,0.0497855171561241,0.0106901414692402
0,0.99583334084345,-0.168055565350778,-0.220833347510754,0.00397062394768,0.0452040284872055,0.0033597587607801
0,1.00555558402623,-0.18333333959868,-0.238888893369199,0.0757472887635231,0.162795588374138,-0.0232128798961639
0,0.909722238577127,-0.12916666555545,-0.2194444556275,-0.114537231624126,-0.237015709280968,0.00885754637420177
0,0.972222276075846,-0.16527778158427,-0.226388890731841,-0.0723875313997269,-0.234877690672875,0.0513126812875271
0,1.03194452980806,-0.187500003092477,-0.263888898643915,-0.0610865242779255,-0.0507018156349659,-0.00794124789535999
0,1.00000001649321,-0.176388892338373,-0.223611131277262,-0.104152522981167,-0.159130394458771,0.013744467869401
0,0.991666665193688,-0.190277786858986,-0.231944458264858,-0.021685715764761,-0.0244346093386412,-0.0287106670439243
0,1.00694447590948,-0.18333333959868,-0.224999998848587,-0.0974330082535744,-0.0045814891345799,-0.0247400421649218
0,0.983333411141879,-0.17361112072783,-0.265277790527169,-0.0378736443817616,0.00152716308366507,0.0332921557128429
0,0.954166681593543,-0.169444445078067,-0.237500001485945,0.0125227374956012,-0.0442877300083637,0.0342084541916847
0,0.969444492309338,-0.187500003092477,-0.2194444556275,0.122173048555851,0.0549778714776039,0.0161879286170006
0,0.959722249126559,-0.180555567988136,-0.226388890731841,-0.0397062413394451,-0.171347707509995,0.0387899428606033
0,1.00000001649321,-0.177777784221628,-0.276388901281273,0.0571159012615681,0.0894917547702789,0.0503963828086853
0,0.998611124609959,-0.169444445078067,-0.25555557165632,-0.17440202832222,0.0757472887635231,0.0143553335219622
0,0.986111194908388,-0.187500003092477,-0.208333344873396,-0.136833816766739,-0.138971850275993,0.00610865233466029
0,0.968055600426084,-0.18333333959868,-0.230555566381603,-0.0772744566202164,-0.266337245702743,-0.0277943685650826
0,0.991666665193688,-0.170833336961321,-0.318055560531181,-0.16951510310173,-0.0604756586253643,0.00885754637420177
0,1.01527782720901,-0.175000000455119,-0.277777793164528,-0.0690277740359306,0.157297804951668,0.0302378293126821
0,1.02222228662528,-0.175000000455119,-0.259722222994153,0.00305432616733015,0.245873257517815,0.019547687843442
0,0.986111194908388,-0.204166669223633,-0.233333350148112,0.037568211555481,0.191200822591782,-0.0335975885391235
0,0.972222276075846,-0.187500003092477,-0.212499996211229,-0.0397062413394451,0.0277943685650826,-0.0235183127224445
0,0.952777789710289,-0.16527778158427,-0.222222239394008,-0.104763388633728,-0.133168622851372,0.0326812900602817
0,0.986111194908388,-0.17361112072783,-0.238888893369199,0.0479529201984406,-0.0128281703218818,0.00885754637420177
0,1.00277780025972,-0.177777784221628,-0.24583335278547,-0.0103847095742822,-0.0204639863222837,-0.00488692196086049
0,0.983333411141879,-0.166666673467524,-0.248611112240049,-0.0207694191485643,-0.128892570734024,0.0021380283869803
0,0.959722249126559,-0.175000000455119,-0.229166674498349,0.0320704244077206,-0.165849909186363,0.0326812900602817
0,0.986111194908388,-0.193055558469529,-0.238888893369199,0.00152716308366507,-0.200974673032761,0.0308486949652433
0,1.06805562152495,-0.19166667874224,-0.237500001485945,0.334754168987274,0.285884946584701,-0.0503963828086853
0,0.961111141009813,-0.163888889701015,-0.276388901281273,0.08460483700037,0.143858760595322,-0.0342084541916847
0,0.951388897827035,-0.166666673467524,-0.259722222994153,-0.0302378293126821,-0.0748309940099716,0.0027488935738802
0,0.96666670854283,-0.179166676104882,-0.25555557165632,0.019547687843442,0.00824668072164059,-0.00671951752156019
0,0.991666665193688,-0.186111123365188,-0.258333331110899,0.0277943685650826,-0.0149661982432008,0.0134390350431204
0,1.00000001649321,-0.190277786858986,-0.25555557165632,0.0140499006956816,0.00610865233466029,0.015577063895762
0,0.998611124609959,-0.18333333959868,-0.252777787889811,0.0436768643558025,0.0329867228865623,0.000916297896765172
5,0.980555627375371,-0.180555567988136,-0.259722222994153,0.0332921557128429,0.0403171069920063,-0.0164933614432812
5,0.984722303025134,-0.180555567988136,-0.25555557165632,0.015577063895762,0.0140499006956816,-0.00244346098043024
5,0.973611167959101,-0.166666673467524,-0.251388896006557,0.0311541277915239,0.0284052342176437,0.00580321997404099
5,0.973611167959101,-0.166666673467524,-0.251388896006557,-0.0103847095742822,-0.0858265683054924,0.0277943685650826
5,1.0125000434425,-0.176388892338373,-0.281944444502361,-0.0797179117798805,-0.0623082555830479,0.0125227374956012
5,1.00277780025972,-0.18333333959868,-0.252777787889811,-0.02382374368608,0.102014496922493,-0.0302378293126821
5,1.00277780025972,-0.18333333959868,-0.252777787889811,-0.0748309940099716,0.00305432616733015,-0.0122173046693206
5,0.965277816659576,-0.170833336961321,-0.236111109602691,-0.106290549039841,-0.202196389436722,0.00733038317412138
5,0.986111194908388,-0.159722226207217,-0.252777787889811,-0.163406446576118,-0.299629390239716,0.0714712366461754
5,0.986111194908388,-0.159722226207217,-0.252777787889811,-0.0561996027827263,-0.201280102133751,-0.0616973899304867
5,1.00555558402623,-0.16527778158427,-0.259722222994153,-0.161573857069016,-0.22693644464016,-0.0152716310694814
5,0.993055557076942,-0.175000000455119,-0.270833333748257,0.134084925055504,-0.253203630447388,-0.0164933614432812
5,0.993055557076942,-0.175000000455119,-0.270833333748257,-0.0427605658769607,-0.236404851078987,-0.0180205255746841
5,1.00000001649321,-0.163888889701015,-0.283333336385615,-0.127976268529892,-0.248927593231201,-0.0109955742955208
5,1.00555558402623,-0.162500009973726,-0.295833339022973,-0.181121543049812,-0.228158175945282,0.0152716310694814
5,0.993055557076942,-0.170833336961321,-0.293055555256465,-0.141415297985077,-0.158824965357781,0.0027488935738802
5,0.987499989543926,-0.190277786858986,-0.294444447139719,0.00855211354792118,0.0821613743901253,-0.0241291765123606
5,1.00000001649321,-0.193055558469529,-0.286111120152123,0.0558941699564457,-0.021685715764761,-0.0464257597923279
5,0.986111194908388,-0.176388892338373,-0.272222225631511,-0.0021380283869803,-0.0293215326964855,-0.011606439948082
5,0.981944519258625,-0.166666673467524,-0.316666668647927,-0.117591559886932,-0.0473420582711697,-0.0131336031481624
5,0.976388951725609,-0.17361112072783,-0.302777798439244,0.0033597587607801,0.0470366254448891,-0.0461203269660473
5,0.96666670854283,-0.177777784221628,-0.275000009398019,0.189062789082527,0.0971275717020035,-0.0445931628346443
5,0.991666665193688,-0.180555567988136,-0.252777787889811,0.308181524276733,0.0635299831628799,-0.0455094613134861
5,0.993055557076942,-0.175000000455119,-0.284722228268869,0.114231802523136,0.0754418596625328,-0.0229074470698834
5,0.981944519258625,-0.180555567988136,-0.300000014672736,0.0226020142436027,0.0723875313997269,-0.0204639863222837
5,0.959722249126559,-0.194444450352783,-0.269444466176932,0.0384845100343227,0.00702495034784079,-0.0409279726445675
5,0.956944465360051,-0.18333333959868,-0.273611117514765,0.110261179506779,-0.0171042270958424,-0.0558941699564457
5,0.984722303025134,-0.187500003092477,-0.259722222994153,0.157908663153648,-0.015577063895762,-0.0769690200686455
5,0.979166735492117,-0.161111118090472,-0.281944444502361,0.0928515195846558,-0.0867428630590439,-0.0574213340878487
5,1.00138890837647,-0.170833336961321,-0.295833339022973,0.133474051952362,-0.0213802829384804,-0.0665843114256859
5,0.983333411141879,-0.17361112072783,-0.29166668768514,0.116980694234371,0.0442877300083637,-0.0714712366461754
5,0.98888888142718,-0.166666673467524,-0.276388901281273,0.0803287774324417,0.0632245540618896,-0.0815505087375641
5,0.976388951725609,-0.169444445078067,-0.259722222994153,0.0421497002243996,0.04764748737216,-0.0815505087375641
5,0.969444492309338,-0.176388892338373,-0.29166668768514,0.0937678143382072,0.0943786799907684,-0.0751364231109619
5,0.977777843608863,-0.172222228844576,-0.281944444502361,0.130419731140137,0.130725160241127,-0.0397062413394451
5,0.983333411141879,-0.166666673467524,-0.259722222994153,0.154243469238281,0.134084925055504,-0.0146607663482428
5,0.979166735492117,-0.150000007336368,-0.256944463539574,0.0916297882795334,0.106901414692402,-0.0387899428606033
5,0.976388951725609,-0.163888889701015,-0.262500006760661,0.0360410511493683,-0.0201585534960032,-0.0943786799907684
5,0.987499989543926,-0.172222228844576,-0.272222225631511,0.0452040284872055,-0.149356558918953,-0.118813291192055
5,0.962500032893068,-0.13750000469901,-0.283333336385615,0.0027488935738802,-0.226631000638008,-0.029626963660121
5,0.954166681593543,-0.14722222356986,-0.238888893369199,0.0549778714776039,-0.235793977975845,0.00855211354792118
5,0.983333411141879,-0.169444445078067,-0.272222225631511,0.158214092254639,-0.180510684847832,-0.0226020142436027
5,0.990277773310434,-0.158333334323963,-0.306944449777077,0.0424551330506802,-0.142942473292351,-0.0540615729987621
5,0.984722303025134,-0.158333334323963,-0.297222230906227,-0.0311541277915239,-0.131946891546249,-0.0369573459029198
5,0.99583334084345,-0.154166670830166,-0.280555576931036,-0.00549778714776039,-0.120340451598167,-0.0329867228865623
5,0.986111194908388,-0.162500009973726,-0.301388906555989,-0.0824668109416962,-0.00519235478714108,0.011606439948082
5,0.94305554652751,-0.151388899219622,-0.308333341660331,-0.109344877302647,0.0455094613134861,0.0632245540618896
5,0.979166735492117,-0.163888889701015,-0.284722228268869,-0.0711658000946045,0.109955742955208,0.111482910811901
5,0.998611124609959,-0.163888889701015,-0.295833339022973,0.0183259565383196,0.23273965716362,0.127365410327911
5,1.00555558402623,-0.158333334323963,-0.308333341660331,-0.0308486949652433,0.328950941562653,0.111482910811901
5,0.986111194908388,-0.163888889701015,-0.266666682410424,-0.112704634666443,0.33292156457901,0.04764748737216
5,0.936111184358955,-0.187500003092477,-0.206944452990142,0.0134390350431204,0.240070044994354,0.0406225398182869
5,0.987499989543926,-0.161111118090472,-0.234722242031366,0.0507018156349659,0.250760197639465,0.140804439783096
5,1.01111115155925,-0.161111118090472,-0.248611112240049,0.0445931628346443,0.222660377621651,0.144164204597473
5,1.01388893532575,-0.159722226207217,-0.265277790527169,0.01588249579072,0.134695783257484,0.109955742955208
5,1.00277780025972,-0.159722226207217,-0.273611117514765,-0.0647517144680023,0.0934623852372169,0.0235183127224445
5,0.980555627375371,-0.17361112072783,-0.25555557165632,-0.0033597587607801,-0.0222965814173222,-0.0461203269660473
5,0.976388951725609,-0.190277786858986,-0.261111114877407,-0.013744467869401,-0.0626136884093285,-0.0125227374956012
5,0.997222232726705,-0.175000000455119,-0.24583335278547,0.019547687843442,0.0103847095742822,0.0207694191485643
5,1.00694447590948,-0.170833336961321,-0.25555557165632,-0.0482583530247212,-0.000916297896765172,0.0986547395586967
5,1.00555558402623,-0.187500003092477,-0.24583335278547,0.0589484944939613,0.135001212358475,0.0928515195846558
5,0.955555573476797,-0.17361112072783,-0.227777782615095,0.368657171726227,0.117286130785942,-0.0473420582711697
5,0.963888924776322,-0.141666668192807,-0.195833342236038,-0.0418442711234093,-0.10598511993885,0.0387899428606033
5,0.975000059842355,-0.175000000455119,-0.223611131277262,0.0699440687894821,-0.0809396430850029,-0.00946841109544039
5,0.987499989543926,-0.204166669223633,-0.248611112240049,-0.0113010071218014,-0.0870482996106148,0.0204639863222837
5,1.01111115155925,-0.193055558469529,-0.25555557165632,0.0256563406437635,0.0653625801205635,-0.0027488935738802
5,0.99583334084345,-0.179166676104882,-0.243055569018962,-0.00763581553474069,0.0387899428606033,-0.00519235478714108
5,0.986111194908388,-0.176388892338373,-0.247222220356795,-0.00580321997404099,0.0363464802503586,-0.00733038317412138
5,0.981944519258625,-0.180555567988136,-0.24583335278547,-0.00610865233466029,0.0198531206697226,0.00122173049021512
5,0.983333411141879,-0.176388892338373,-0.250000004123303,-0.0106901414692402,-0.00641408516094089,0.0140499006956816
5,0.983333411141879,-0.184722231481934,-0.250000004123303,0.000916297896765172,0.0113010071218014,0.00824668072164059
5,0.980555627375371,-0.187500003092477,-0.25555557165632,-0.00855211354792118,0.00977384392172098,0.000610865245107561
5,0.983333411141879,-0.181944447715425,-0.250000004123303,-0.00305432616733015,0.0140499006956816,-0.00702495034784079
5,0.981944519258625,-0.175000000455119,-0.252777787889811,-0.00977384392172098,0.000916297896765172,-0.000610865245107561
5,0.981944519258625,-0.175000000455119,-0.252777787889811,-0.013744467869401,-0.0134390350431204,0.00427605677396059
5,0.98888888142718,-0.180555567988136,-0.248611112240049,-0.0103847095742822,-0.0143553335219622,0.00824668072164059
5,0.986111194908388,-0.177777784221628,-0.25555557165632,-0.0106901414692402,-0.00885754637420177,0.0171042270958424
5,0.983333411141879,-0.18333333959868,-0.24583335278547,-0.0103847095742822,-0.00702495034784079,0.011606439948082
5,0.983333411141879,-0.18333333959868,-0.24583335278547,-0.0109955742955208,-0.0103847095742822,0.0100792767480016
5,0.981944519258625,-0.187500003092477,-0.24583335278547,-0.0146607663482428,-0.0149661982432008,0.00946841109544039
5,0.987499989543926,-0.18333333959868,-0.251388896006557,-0.00946841109544039,-0.0122173046693206,0.0113010071218014
5,0.983333411141879,-0.186111123365188,-0.259722222994153,0.000305432622553781,-0.0226020142436027,0.00946841109544039
5,0.984722303025134,-0.184722231481934,-0.256944463539574,0.00183259579353034,-0.0222965814173222,0.00855211354792118
5,0.984722303025134,-0.184722231481934,-0.256944463539574,-0.000916297896765172,-0.0241291765123606,0.00763581553474069
5,0.984722303025134,-0.18333333959868,-0.25555557165632,0.0109955742955208,-0.0305432621389627,0.00733038317412138
5,0.986111194908388,-0.180555567988136,-0.250000004123303,0.0186313893646002,-0.0329867228865623,0.00946841109544039
5,0.986111194908388,-0.180555567988136,-0.250000004123303,0.0103847095742822,-0.0360410511493683,0.0128281703218818
5,0.990277773310434,-0.180555567988136,-0.247222220356795,0.0113010071218014,-0.0323758572340012,0.00916297826915979
5,0.98888888142718,-0.180555567988136,-0.243055569018962,0.0122173046693206,-0.0400116741657257,0.0192422550171614
5,0.987499989543926,-0.177777784221628,-0.24583335278547,0.0134390350431204,-0.0342084541916847,0.0186313893646002
5,0.986111194908388,-0.176388892338373,-0.243055569018962,0.00916297826915979,-0.0363464802503586,0.01191187184304
5,0.984722303025134,-0.176388892338373,-0.25555557165632,0.0152716310694814,-0.0369573459029198,0.00671951752156019
5,0.987499989543926,-0.176388892338373,-0.261111114877407,0.00946841109544039,-0.0323758572340012,0.013744467869401
5,0.987499989543926,-0.175000000455119,-0.250000004123303,0.00977384392172098,-0.0180205255746841,0.0122173046693206
5,0.986111194908388,-0.180555567988136,-0.25555557165632,0.00855211354792118,-0.0103847095742822,0.00702495034784079
5,0.987499989543926,-0.18333333959868,-0.241666677135707,0.00763581553474069,-0.0125227374956012,0.00610865233466029
5,0.986111194908388,-0.176388892338373,-0.259722222994153,0.0122173046693206,-0.00671951752156019,0.00152716308366507
5,0.98888888142718,-0.176388892338373,-0.268055574293678,-0.0027488935738802,0.00122173049021512,0.0125227374956012
5,0.98888888142718,-0.180555567988136,-0.265277790527169,-0.00244346098043024,-0.000305432622553781,0.00488692196086049
5,0.980555627375371,-0.184722231481934,-0.265277790527169,-0.00488692196086049,-0.011606439948082,0.0103847095742822
5,0.983333411141879,-0.187500003092477,-0.256944463539574,-0.0027488935738802,-0.0103847095742822,0.0045814891345799
5,0.98888888142718,-0.190277786858986,-0.259722222994153,0.00671951752156019,-0.0027488935738802,0.0113010071218014
5,0.983333411141879,-0.184722231481934,-0.263888898643915,0.00549778714776039,-0.000305432622553781,0.0045814891345799
5,0.984722303025134,-0.187500003092477,-0.258333331110899,0.00580321997404099,0.00122173049021512,0.0033597587607801
5,0.981944519258625,-0.181944447715425,-0.256944463539574,0.00427605677396059,-0.000916297896765172,-0.00152716308366507
5,0.980555627375371,-0.187500003092477,-0.263888898643915,0.000916297896765172,-0.000916297896765172,0.00305432616733015
5,0.981944519258625,-0.187500003092477,-0.262500006760661,-0.00244346098043024,-0.00733038317412138,0.00671951752156019
5,0.981944519258625,-0.18333333959868,-0.262500006760661,0.000916297896765172,-0.000610865245107561,0.00244346098043024
5,0.981944519258625,-0.181944447715425,-0.276388901281273,-0.000610865245107561,-0.00885754637420177,-0.0033597587607801
5,0.979166735492117,-0.18333333959868,-0.269444466176932,0.000305432622553781,-0.00671951752156019,-0.00152716308366507
5,0.977777843608863,-0.184722231481934,-0.265277790527169,-0.00366519158706069,-0.00397062394768,0.000916297896765172
5,0.99583334084345,-0.180555567988136,-0.25555557165632,-0.0027488935738802,-0.00641408516094089,-0.000610865245107561
5,0.981944519258625,-0.18333333959868,-0.261111114877407,-0.0106901414692402,-0.00733038317412138,0.00488692196086049
5,0.986111194908388,-0.179166676104882,-0.277777793164528,-0.0100792767480016,-0.00977384392172098,0.00855211354792118
5,0.981944519258625,-0.18333333959868,-0.268055574293678,-0.00183259579353034,-0.0207694191485643,-0.00366519158706069
5,0.980555627375371,-0.184722231481934,-0.261111114877407,-0.00305432616733015,-0.0149661982432008,0.000610865245107561
5,0.980555627375371,-0.187500003092477,-0.266666682410424,0.00427605677396059,-0.015577063895762,-0.0021380283869803
5,0.981944519258625,-0.184722231481934,-0.265277790527169,0.000305432622553781,-0.00977384392172098,-0.000610865245107561
5,0.980555627375371,-0.187500003092477,-0.261111114877407,0.00244346098043024,-0.0100792767480016,0.0027488935738802
5,0.981944519258625,-0.187500003092477,-0.269444466176932,-0.000305432622553781,-0.0201585534960032,0.0033597587607801
5,0.983333411141879,-0.187500003092477,-0.263888898643915,0.00610865233466029,-0.0219911485910416,0.00488692196086049
5,0.981944519258625,-0.18333333959868,-0.270833333748257,0.00122173049021512,-0.0235183127224445,-0.00244346098043024
5,0.980555627375371,-0.18333333959868,-0.272222225631511,0.000610865245107561,-0.02382374368608,0.00733038317412138
5,0.981944519258625,-0.190277786858986,-0.269444466176932,0.00488692196086049,-0.027488935738802,0.0134390350431204
5,0.983333411141879,-0.187500003092477,-0.263888898643915,0.000305432622553781,-0.0241291765123606,0.00885754637420177
5,0.980555627375371,-0.18333333959868,-0.262500006760661,-0.000610865245107561,-0.019547687843442,0.0109955742955208
5,0.979166735492117,-0.186111123365188,-0.269444466176932,-0.000305432622553781,-0.0113010071218014,0.00977384392172098
5,0.977777843608863,-0.180555567988136,-0.265277790527169,-0.00488692196086049,-0.01191187184304,0.0100792767480016
5,0.981944519258625,-0.180555567988136,-0.256944463539574,-0.000916297896765172,-0.0226020142436027,0.00946841109544039
5,0.980555627375371,-0.18333333959868,-0.272222225631511,0.00671951752156019,-0.0305432621389627,0.0152716310694814
5,0.977777843608863,-0.18333333959868,-0.276388901281273,0.0033597587607801,-0.0222965814173222,0.0164933614432812
5,0.977777843608863,-0.18333333959868,-0.272222225631511,0.00305432616733015,-0.0186313893646002,0.0219911485910416
5,0.979166735492117,-0.18333333959868,-0.275000009398019,-0.0033597587607801,-0.0192422550171614,0.0149661982432008
5,0.983333411141879,-0.186111123365188,-0.269444466176932,-0.00580321997404099,-0.0311541277915239,0.0226020142436027
5,0.973611167959101,-0.186111123365188,-0.269444466176932,-0.00122173049021512,-0.0290160998702049,0.0198531206697226
5,0.979166735492117,-0.19166667874224,-0.259722222994153,-0.000305432622553781,-0.0305432621389627,0.019547687843442
5,0.980555627375371,-0.194444450352783,-0.272222225631511,-0.0109955742955208,-0.0189368221908808,0.027488935738802
5,0.983333411141879,-0.188888894975731,-0.270833333748257,-0.0113010071218014,-0.0164933614432812,0.0268780700862408
5,0.976388951725609,-0.19166667874224,-0.279166685047782,-0.0149661982432008,-0.0183259565383196,0.0226020142436027
5,0.975000059842355,-0.194444450352783,-0.275000009398019,-0.0131336031481624,-0.0125227374956012,0.0189368221908808
5,0.973611167959101,-0.188888894975731,-0.275000009398019,-0.0033597587607801,-0.0033597587607801,0.019547687843442
5,0.979166735492117,-0.187500003092477,-0.275000009398019,-0.00488692196086049,0.00183259579353034,0.0222965814173222
5,0.979166735492117,-0.194444450352783,-0.277777793164528,-0.00916297826915979,-0.00397062394768,0.00794124789535999
5,0.981944519258625,-0.186111123365188,-0.262500006760661,-0.000305432622553781,0.00244346098043024,0.0106901414692402
5,0.979166735492117,-0.193055558469529,-0.272222225631511,-0.00549778714776039,0.0027488935738802,0.00733038317412138
5,0.980555627375371,-0.194444450352783,-0.272222225631511,-0.00488692196086049,-0.0027488935738802,0.0045814891345799
5,0.980555627375371,-0.188888894975731,-0.273611117514765,-0.00610865233466029,0.00702495034784079,0.0122173046693206
5,0.979166735492117,-0.195833342236038,-0.275000009398019,-0.00702495034784079,0.00946841109544039,0.00733038317412138
5,0.981944519258625,-0.197222234119292,-0.276388901281273,-0.00488692196086049,0.00794124789535999,0.000916297896765172
5,0.976388951725609,-0.198611113846581,-0.272222225631511,-0.00122173049021512,0.0100792767480016,-0.00397062394768
5,0.973611167959101,-0.194444450352783,-0.265277790527169,0.00244346098043024,0.00610865233466029,-0.0033597587607801
5,0.973611167959101,-0.197222234119292,-0.262500006760661,0.00427605677396059,-0.0045814891345799,-0.00610865233466029
5,0.980555627375371,-0.200000005729836,-0.272222225631511,0.00733038317412138,0.00763581553474069,-0.00733038317412138
5,0.976388951725609,-0.195833342236038,-0.277777793164528,0.0146607663482428,-0.0033597587607801,-0.0100792767480016
5,0.975000059842355,-0.198611113846581,-0.279166685047782,0.0201585534960032,0.000610865245107561,-0.00427605677396059
5,0.975000059842355,-0.198611113846581,-0.268055574293678,0.017409659922123,0.000305432622553781,-0.00702495034784079
5,0.973611167959101,-0.190277786858986,-0.279166685047782,0.029626963660121,-0.00152716308366507,-0.00366519158706069
5,0.969444492309338,-0.19166667874224,-0.275000009398019,0.0293215326964855,-0.0152716310694814,-0.0033597587607801
5,0.977777843608863,-0.197222234119292,-0.269444466176932,0.0277943685650826,-0.0259617734700441,0.00580321997404099
5,0.973611167959101,-0.194444450352783,-0.269444466176932,0.0323758572340012,-0.0268780700862408,0.0131336031481624
5,0.969444492309338,-0.187500003092477,-0.269444466176932,0.0198531206697226,-0.0436768643558025,0.0134390350431204
5,0.96666670854283,-0.184722231481934,-0.281944444502361,0.013744467869401,-0.0513126812875271,0.021685715764761
5,0.970833384192592,-0.18333333959868,-0.275000009398019,0.0152716310694814,-0.0507018156349659,0.0339030213654041
5,0.973611167959101,-0.18333333959868,-0.280555576931036,0.00733038317412138,-0.0629191175103188,0.0369573459029198
5,0.976388951725609,-0.19166667874224,-0.286111120152123,-0.00305432616733015,-0.0473420582711697,0.0424551330506802
5,0.977777843608863,-0.188888894975731,-0.29166668768514,-0.00122173049021512,-0.0433714315295219,0.0485637858510017
5,0.979166735492117,-0.193055558469529,-0.290277795801886,0.0045814891345799,-0.037568211555481,0.0455094613134861
5,0.983333411141879,-0.190277786858986,-0.288888903918631,-0.000916297896765172,-0.0412334054708481,0.0455094613134861
5,0.987499989543926,-0.186111123365188,-0.276388901281273,-0.00427605677396059,-0.0335975885391235,0.0339030213654041
5,0.986111194908388,-0.190277786858986,-0.283333336385615,0.0021380283869803,-0.0201585534960032,0.0314595587551594
5,0.977777843608863,-0.190277786858986,-0.281944444502361,-0.00794124789535999,-0.00183259579353034,0.0290160998702049
5,0.979166735492117,-0.187500003092477,-0.284722228268869,-0.00855211354792118,-0.00885754637420177,0.0143553335219622
5,0.979166735492117,-0.186111123365188,-0.275000009398019,-0.015577063895762,-0.00702495034784079,0.0122173046693206
5,0.981944519258625,-0.188888894975731,-0.283333336385615,-0.019547687843442,0.00305432616733015,0.0125227374956012
5,0.981944519258625,-0.184722231481934,-0.283333336385615,-0.0409279726445675,0.0109955742955208,0.0045814891345799
5,0.977777843608863,-0.186111123365188,-0.275000009398019,-0.0507018156349659,0.0204639863222837,0.0152716310694814
5,0.977777843608863,-0.186111123365188,-0.275000009398019,-0.0522289797663689,0.0164933614432812,0.011606439948082
5,0.975000059842355,-0.190277786858986,-0.273611117514765,-0.0601702257990837,0.00671951752156019,0.00549778714776039
5,0.977777843608863,-0.194444450352783,-0.276388901281273,-0.0452040284872055,0.0164933614432812,-0.00152716308366507
5,0.977777843608863,-0.194444450352783,-0.276388901281273,-0.0335975885391235,0.0277943685650826,-0.0027488935738802
5,0.975000059842355,-0.200000005729836,-0.265277790527169,-0.0348193198442459,0.0250454749912024,-0.00671951752156019
5,0.970833384192592,-0.197222234119292,-0.277777793164528,-0.0351247526705265,0.0241291765123606,-0.00397062394768
5,0.970833384192592,-0.197222234119292,-0.277777793164528,-0.0394008085131645,0.0348193198442459,-0.00519235478714108
5,0.979166735492117,-0.200000005729836,-0.269444466176932,-0.0348193198442459,0.0277943685650826,-0.00244346098043024
5,0.976388951725609,-0.197222234119292,-0.275000009398019,-0.0442877300083637,0.0207694191485643,0.0021380283869803
5,0.976388951725609,-0.197222234119292,-0.275000009398019,-0.0378736443817616,0.019547687843442,0.000610865245107561
5,0.972222276075846,-0.197222234119292,-0.281944444502361,-0.0387899428606033,0.0149661982432008,-0.0027488935738802
5,0.973611167959101,-0.20138889761309,-0.288888903918631,-0.0412334054708481,0.019547687843442,0.000916297896765172
5,0.973611167959101,-0.20138889761309,-0.288888903918631,-0.0308486949652433,0.00733038317412138,-0.0021380283869803
5,0.976388951725609,-0.197222234119292,-0.281944444502361,-0.0314595587551594,-0.0131336031481624,-0.0183259565383196
5,0.969444492309338,-0.20138889761309,-0.265277790527169,-0.0226020142436027,-0.0164933614432812,-0.0280998013913631
5,0.968055600426084,-0.194444450352783,-0.269444466176932,-0.013744467869401,-0.0268780700862408,-0.0204639863222837
5,0.968055600426084,-0.197222234119292,-0.272222225631511,-0.00366519158706069,-0.0485637858510017,-0.0247400421649218
5,0.972222276075846,-0.193055558469529,-0.268055574293678,-0.00397062394768,-0.0488692186772823,-0.0152716310694814
5,0.970833384192592,-0.193055558469529,-0.275000009398019,-0.0045814891345799,-0.0491746515035629,-0.0171042270958424
5,0.973611167959101,-0.195833342236038,-0.287500012035377,0.00122173049021512,-0.0485637858510017,-0.011606439948082
5,0.976388951725609,-0.202777789496344,-0.29166668768514,0.00610865233466029,-0.0378736443817616,-0.0109955742955208
5,0.976388951725609,-0.205555561106887,-0.286111120152123,0.0226020142436027,-0.0329867228865623,-0.00885754637420177
5,0.975000059842355,-0.202777789496344,-0.287500012035377,0.0204639863222837,-0.0345138870179653,-0.0131336031481624
5,0.977777843608863,-0.200000005729836,-0.280555576931036,0.029626963660121,-0.017409659922123,-0.00549778714776039
5,0.981944519258625,-0.205555561106887,-0.287500012035377,0.0387899428606033,0.00946841109544039,-0.0183259565383196
5,0.986111194908388,-0.200000005729836,-0.287500012035377,0.0326812900602817,0.0226020142436027,-0.0164933614432812
5,0.983333411141879,-0.188888894975731,-0.275000009398019,0.0348193198442459,0.0265726372599602,-0.0299323964864016
5,0.977777843608863,-0.187500003092477,-0.281944444502361,0.0262672062963247,0.0192422550171614,-0.0262672062963247
5,0.973611167959101,-0.187500003092477,-0.281944444502361,0.0201585534960032,0.0207694191485643,-0.0192422550171614
5,0.975000059842355,-0.18333333959868,-0.281944444502361,0.0232128798961639,0.0131336031481624,-0.0219911485910416
5,0.977777843608863,-0.181944447715425,-0.281944444502361,0.0323758572340012,0.00519235478714108,-0.019547687843442
5,0.979166735492117,-0.186111123365188,-0.277777793164528,0.0378736443817616,0.0106901414692402,-0.0253509078174829
5,0.976388951725609,-0.187500003092477,-0.276388901281273,0.0320704244077206,0.0122173046693206,-0.0161879286170006
5,0.976388951725609,-0.18333333959868,-0.279166685047782,0.0335975885391235,0.00794124789535999,-0.0247400421649218
5,0.973611167959101,-0.188888894975731,-0.275000009398019,0.0329867228865623,0.00152716308366507,-0.0149661982432008
5,0.973611167959101,-0.184722231481934,-0.280555576931036,0.017409659922123,0.00427605677396059,-0.011606439948082
5,0.973611167959101,-0.188888894975731,-0.281944444502361,0.00488692196086049,0.00488692196086049,-0.0113010071218014
5,0.972222276075846,-0.181944447715425,-0.281944444502361,0.0033597587607801,0.00366519158706069,-0.00671951752156019
5,0.976388951725609,-0.18333333959868,-0.29166668768514,-0.00244346098043024,0.00794124789535999,-0.00244346098043024
5,0.979166735492117,-0.18333333959868,-0.287500012035377,-0.000610865245107561,0.00519235478714108,-0.00946841109544039
5,0.972222276075846,-0.186111123365188,-0.280555576931036,-0.00519235478714108,-0.00397062394768,-0.00977384392172098
5,0.975000059842355,-0.18333333959868,-0.286111120152123,0.00763581553474069,-0.00427605677396059,-0.00733038317412138
5,0.977777843608863,-0.187500003092477,-0.286111120152123,-0.00152716308366507,-0.00610865233466029,-0.0106901414692402
5,0.979166735492117,-0.18333333959868,-0.286111120152123,-0.00702495034784079,-0.00702495034784079,-0.000305432622553781
5,0.980555627375371,-0.186111123365188,-0.284722228268869,-0.0146607663482428,-0.0103847095742822,0.0027488935738802
5,0.976388951725609,-0.181944447715425,-0.286111120152123,-0.0177150927484035,-0.0149661982432008,0.00488692196086049
5,0.973611167959101,-0.181944447715425,-0.284722228268869,-0.0140499006956816,-0.0256563406437635,0.011606439948082
5,0.975000059842355,-0.176388892338373,-0.287500012035377,-0.0183259565383196,-0.0302378293126821,0.0143553335219622
5,0.973611167959101,-0.179166676104882,-0.287500012035377,-0.00824668072164059,-0.0277943685650826,0.0146607663482428
5,0.977777843608863,-0.180555567988136,-0.283333336385615,-0.0103847095742822,-0.021685715764761,0.0113010071218014
5,0.980555627375371,-0.180555567988136,-0.280555576931036,-0.00580321997404099,-0.0262672062963247,0.0235183127224445
5,0.983333411141879,-0.181944447715425,-0.277777793164528,-0.0106901414692402,-0.013744467869401,0.000610865245107561
5,0.983333411141879,-0.180555567988136,-0.281944444502361,-0.01588249579072,-0.00152716308366507,-0.000305432622553781
5,0.983333411141879,-0.18333333959868,-0.276388901281273,-0.00855211354792118,0.00549778714776039,-0.00977384392172098
5,0.979166735492117,-0.181944447715425,-0.275000009398019,-0.0189368221908808,0.00855211354792118,-0.0131336031481624
5,0.979166735492117,-0.18333333959868,-0.277777793164528,-0.021685715764761,0.0192422550171614,-0.0262672062963247
5,0.979166735492117,-0.186111123365188,-0.286111120152123,-0.0280998013913631,0.0259617734700441,-0.0213802829384804
5,0.979166735492117,-0.181944447715425,-0.280555576931036,-0.019547687843442,0.0222965814173222,-0.0229074470698834
5,0.976388951725609,-0.18333333959868,-0.281944444502361,-0.01588249579072,0.027488935738802,-0.0320704244077206
5,0.973611167959101,-0.184722231481934,-0.281944444502361,-0.00916297826915979,0.0210748501121998,-0.0253509078174829
5,0.976388951725609,-0.18333333959868,-0.281944444502361,-0.0109955742955208,0.0222965814173222,-0.0335975885391235
5,0.973611167959101,-0.188888894975731,-0.29166668768514,-0.0152716310694814,0.0253509078174829,-0.0302378293126821
5,0.976388951725609,-0.190277786858986,-0.288888903918631,-0.0183259565383196,0.0287106670439243,-0.0302378293126821
5,0.973611167959101,-0.19166667874224,-0.29166668768514,-0.0247400421649218,0.021685715764761,-0.0320704244077206
5,0.975000059842355,-0.184722231481934,-0.281944444502361,-0.0235183127224445,0.0342084541916847,-0.0207694191485643
5,0.975000059842355,-0.187500003092477,-0.286111120152123,-0.00977384392172098,0.02382374368608,-0.0161879286170006
5,0.970833384192592,-0.181944447715425,-0.281944444502361,-0.0128281703218818,0.0302378293126821,-0.0161879286170006
5,0.973611167959101,-0.177777784221628,-0.284722228268869,-0.0021380283869803,0.015577063895762,-0.0106901414692402
5,0.975000059842355,-0.18333333959868,-0.281944444502361,0.00427605677396059,0.00366519158706069,-0.00641408516094089
5,0.979166735492117,-0.186111123365188,-0.272222225631511,0.00885754637420177,0.00641408516094089,-0.00733038317412138
5,0.976388951725609,-0.184722231481934,-0.272222225631511,0.00549778714776039,-0.000916297896765172,-0.00427605677396059
5,0.976388951725609,-0.18333333959868,-0.277777793164528,0.000305432622553781,-0.00641408516094089,-0.00366519158706069
5,0.979166735492117,-0.177777784221628,-0.286111120152123,0.00916297826915979,0.00397062394768,-0.00305432616733015
5,0.979166735492117,-0.175000000455119,-0.293055555256465,0.0033597587607801,0.00549778714776039,-0.00152716308366507
5,0.977777843608863,-0.180555567988136,-0.288888903918631,-0.00641408516094089,0.0140499006956816,-0.00733038317412138
5,0.977777843608863,-0.176388892338373,-0.290277795801886,-0.00549778714776039,0.0167987942695618,-0.00519235478714108
5,0.980555627375371,-0.180555567988136,-0.273611117514765,-0.00702495034784079,0.0122173046693206,0.0021380283869803
5,0.983333411141879,-0.180555567988136,-0.280555576931036,-0.0100792767480016,0.0122173046693206,-0.000610865245107561
5,0.976388951725609,-0.179166676104882,-0.275000009398019,-0.00519235478714108,0.0241291765123606,0.00152716308366507
5,0.979166735492117,-0.180555567988136,-0.287500012035377,0.00183259579353034,0.0308486949652433,-0.000916297896765172
5,0.980555627375371,-0.180555567988136,-0.281944444502361,-0.00610865233466029,0.0265726372599602,-0.00152716308366507
5,0.981944519258625,-0.180555567988136,-0.288888903918631,-0.00397062394768,0.03176499158144,0.00122173049021512
5,0.977777843608863,-0.180555567988136,-0.275000009398019,-0.00488692196086049,0.0308486949652433,-0.00671951752156019
5,0.979166735492117,-0.17361112072783,-0.280555576931036,-0.0134390350431204,0.0167987942695618,-0.00671951752156019
5,0.976388951725609,-0.172222228844576,-0.280555576931036,-0.01588249579072,0.0299323964864016,-0.0113010071218014
5,0.979166735492117,-0.170833336961321,-0.280555576931036,-0.0244346093386412,0.0311541277915239,-0.0201585534960032
5,0.979166735492117,-0.172222228844576,-0.288888903918631,-0.0143553335219622,0.0403171069920063,-0.0103847095742822
5,0.976388951725609,-0.17361112072783,-0.280555576931036,-0.01191187184304,0.0610865242779255,-0.0167987942695618
5,0.976388951725609,-0.180555567988136,-0.286111120152123,-0.0177150927484035,0.0522289797663689,-0.0210748501121998
5,0.977777843608863,-0.179166676104882,-0.283333336385615,-0.0103847095742822,0.0464257597923279,-0.0171042270958424
5,0.977777843608863,-0.179166676104882,-0.283333336385615,-0.0122173046693206,0.0448985956609249,-0.0204639863222837
5,0.976388951725609,-0.170833336961321,-0.273611117514765,-0.0198531206697226,0.0467311926186085,-0.0140499006956816
5,0.976388951725609,-0.176388892338373,-0.275000009398019,-0.00122173049021512,0.0384845100343227,-0.0149661982432008
5,0.980555627375371,-0.177777784221628,-0.281944444502361,-0.00244346098043024,0.0335975885391235,-0.0122173046693206
5,0.975000059842355,-0.176388892338373,-0.287500012035377,0.00733038317412138,0.0299323964864016,-0.0143553335219622
5,0.977777843608863,-0.175000000455119,-0.281944444502361,-0.0033597587607801,0.0314595587551594,-0.00488692196086049
5,0.973611167959101,-0.17361112072783,-0.269444466176932,-0.0134390350431204,0.0186313893646002,-0.00122173049021512
5,0.973611167959101,-0.17361112072783,-0.269444466176932,-0.00885754637420177,0.00885754637420177,-0.00122173049021512
5,0.980555627375371,-0.17361112072783,-0.269444466176932,-0.00610865233466029,-0.00122173049021512,0.0128281703218818
5,0.980555627375371,-0.168055565350778,-0.265277790527169,-0.00733038317412138,0.00305432616733015,0.0045814891345799
5,0.981944519258625,-0.17361112072783,-0.269444466176932,-0.00671951752156019,-0.00366519158706069,0.0027488935738802
5,0.98888888142718,-0.170833336961321,-0.276388901281273,0.00122173049021512,0.00122173049021512,-0.00152716308366507
5,0.986111194908388,-0.170833336961321,-0.281944444502361,0.00885754637420177,0.00916297826915979,-0.00305432616733015
5,0.98888888142718,-0.175000000455119,-0.276388901281273,0.00702495034784079,0.0180205255746841,-0.0192422550171614
5,0.98888888142718,-0.176388892338373,-0.268055574293678,0.0213802829384804,0.01588249579072,-0.021685715764761
5,0.986111194908388,-0.176388892338373,-0.269444466176932,0.0149661982432008,0.0207694191485643,-0.0259617734700441
5,0.983333411141879,-0.17361112072783,-0.270833333748257,0.0131336031481624,0.0189368221908808,-0.0244346093386412
5,0.983333411141879,-0.16527778158427,-0.275000009398019,0.0201585534960032,0.00549778714776039,-0.0253509078174829
5,0.981944519258625,-0.163888889701015,-0.270833333748257,0.00641408516094089,0.0045814891345799,-0.0204639863222837
5,0.973611167959101,-0.166666673467524,-0.272222225631511,-0.00183259579353034,0.0100792767480016,-0.0180205255746841
5,0.979166735492117,-0.170833336961321,-0.275000009398019,-0.0021380283869803,0.0027488935738802,0.000610865245107561
5,0.979166735492117,-0.169444445078067,-0.273611117514765,-0.00519235478714108,-0.01588249579072,0.000305432622553781
5,0.979166735492117,-0.169444445078067,-0.270833333748257,0.00152716308366507,-0.0207694191485643,0.00122173049021512
5,0.980555627375371,-0.170833336961321,-0.261111114877407,-0.0045814891345799,-0.011606439948082,-0.0027488935738802
5,0.979166735492117,-0.166666673467524,-0.269444466176932,-0.00885754637420177,-0.0143553335219622,0.0045814891345799
5,0.986111194908388,-0.166666673467524,-0.261111114877407,-0.00946841109544039,-0.0152716310694814,-0.00152716308366507
5,0.983333411141879,-0.166666673467524,-0.269444466176932,-0.0109955742955208,-0.0201585534960032,0.011606439948082
5,0.987499989543926,-0.170833336961321,-0.279166685047782,-0.011606439948082,-0.00702495034784079,-0.00183259579353034
5,0.986111194908388,-0.166666673467524,-0.273611117514765,-0.0103847095742822,-0.00763581553474069,0.00794124789535999
5,0.986111194908388,-0.161111118090472,-0.270833333748257,-0.0113010071218014,0.00763581553474069,-0.00244346098043024
5,0.986111194908388,-0.162500009973726,-0.280555576931036,-0.0192422550171614,0.0122173046693206,-0.000305432622553781
5,0.980555627375371,-0.166666673467524,-0.273611117514765,-0.0189368221908808,0.00397062394768,0.00244346098043024
5,0.980555627375371,-0.162500009973726,-0.268055574293678,-0.0161879286170006,-0.00397062394768,0.00855211354792118
5,0.984722303025134,-0.161111118090472,-0.268055574293678,-0.0204639863222837,-0.00763581553474069,0.00549778714776039
5,0.980555627375371,-0.161111118090472,-0.269444466176932,-0.0210748501121998,-0.01191187184304,0.00122173049021512
5,0.979166735492117,-0.162500009973726,-0.265277790527169,-0.0244346093386412,-0.0250454749912024,0.0177150927484035
5,0.979166735492117,-0.163888889701015,-0.263888898643915,-0.0235183127224445,-0.0244346093386412,0.02382374368608
5,0.972222276075846,-0.161111118090472,-0.263888898643915,-0.0262672062963247,-0.0384845100343227,0.0299323964864016
5,0.979166735492117,-0.163888889701015,-0.263888898643915,-0.0244346093386412,-0.0390953756868839,0.03176499158144
5,0.980555627375371,-0.163888889701015,-0.269444466176932,-0.0339030213654041,-0.0507018156349659,0.0302378293126821
5,0.984722303025134,-0.166666673467524,-0.265277790527169,-0.0265726372599602,-0.0329867228865623,0.02382374368608
5,0.980555627375371,-0.170833336961321,-0.275000009398019,-0.0323758572340012,-0.0342084541916847,0.0241291765123606
5,0.986111194908388,-0.163888889701015,-0.276388901281273,-0.0427605658769607,-0.0226020142436027,0.0143553335219622
5,0.979166735492117,-0.17361112072783,-0.276388901281273,-0.0433714315295219,-0.0247400421649218,0.0232128798961639
5,0.987499989543926,-0.177777784221628,-0.272222225631511,-0.0442877300083637,-0.0113010071218014,0.00946841109544039
5,0.991666665193688,-0.180555567988136,-0.286111120152123,-0.0427605658769607,0.0021380283869803,-0.0021380283869803
5,0.986111194908388,-0.177777784221628,-0.286111120152123,-0.0326812900602817,0.0204639863222837,-0.0045814891345799
5,0.986111194908388,-0.176388892338373,-0.281944444502361,-0.0198531206697226,0.0335975885391235,-0.0183259565383196
5,0.976388951725609,-0.17361112072783,-0.281944444502361,-0.0149661982432008,0.0406225398182869,-0.00641408516094089
5,0.975000059842355,-0.17361112072783,-0.275000009398019,-0.0177150927484035,0.0284052342176437,-0.00916297826915979
5,0.981944519258625,-0.166666673467524,-0.279166685047782,-0.0167987942695618,0.0305432621389627,-0.00702495034784079
5,0.976388951725609,-0.170833336961321,-0.275000009398019,-0.0180205255746841,0.0448985956609249,-0.017409659922123
5,0.979166735492117,-0.17361112072783,-0.273611117514765,-0.0171042270958424,0.03176499158144,-0.00946841109544039
5,0.976388951725609,-0.166666673467524,-0.281944444502361,-0.019547687843442,0.0189368221908808,-0.0113010071218014
5,0.976388951725609,-0.169444445078067,-0.288888903918631,-0.0201585534960032,0.0259617734700441,0.00122173049021512
5,0.979166735492117,-0.169444445078067,-0.286111120152123,-0.0177150927484035,0.0280998013913631,-0.000916297896765172
5,0.981944519258625,-0.176388892338373,-0.281944444502361,-0.0128281703218818,0.0372627787292004,-0.000305432622553781
5,0.979166735492117,-0.17361112072783,-0.276388901281273,-0.0033597587607801,0.029626963660121,-0.00366519158706069
5,0.976388951725609,-0.169444445078067,-0.281944444502361,-0.00641408516094089,0.027488935738802,-0.00641408516094089
5,0.979166735492117,-0.170833336961321,-0.276388901281273,-0.0143553335219622,0.0213802829384804,-0.00549778714776039
5,0.977777843608863,-0.17361112072783,-0.261111114877407,0.0045814891345799,0.013744467869401,0.00122173049021512
5,0.979166735492117,-0.170833336961321,-0.273611117514765,0.00946841109544039,0.0149661982432008,-0.00397062394768
5,0.983333411141879,-0.170833336961321,-0.268055574293678,0.00794124789535999,0.0100792767480016,-0.00549778714776039
5,0.980555627375371,-0.170833336961321,-0.273611117514765,0.00397062394768,0.0164933614432812,-0.00397062394768
5,0.976388951725609,-0.16527778158427,-0.262500006760661,0.00885754637420177,0.0128281703218818,0.00122173049021512
5,0.976388951725609,-0.16527778158427,-0.262500006760661,-0.00152716308366507,0.00885754637420177,0.00763581553474069
5,0.986111194908388,-0.169444445078067,-0.270833333748257,0.00977384392172098,0.0180205255746841,0.0106901414692402
5,0.987499989543926,-0.170833336961321,-0.263888898643915,0.0180205255746841,0.0219911485910416,0.00549778714776039
5,0.983333411141879,-0.170833336961321,-0.266666682410424,0.0146607663482428,0.0164933614432812,-0.00183259579353034
5,0.983333411141879,-0.166666673467524,-0.275000009398019,0.0186313893646002,0.0192422550171614,0.0045814891345799
5,0.980555627375371,-0.163888889701015,-0.269444466176932,0.0259617734700441,0.0183259565383196,0.00427605677396059
5,0.979166735492117,-0.168055565350778,-0.272222225631511,0.0314595587551594,0.0149661982432008,-0.000916297896765172
5,0.983333411141879,-0.163888889701015,-0.270833333748257,0.0284052342176437,-0.00244346098043024,-0.00366519158706069
5,0.981944519258625,-0.163888889701015,-0.262500006760661,0.0198531206697226,-0.00488692196086049,-0.00244346098043024
5,0.983333411141879,-0.162500009973726,-0.265277790527169,0.0280998013913631,-0.00488692196086049,-0.00610865233466029
5,0.983333411141879,-0.16527778158427,-0.276388901281273,0.0222965814173222,-0.0021380283869803,0.0021380283869803
5,0.983333411141879,-0.162500009973726,-0.273611117514765,0.0262672062963247,0.000916297896765172,0.00244346098043024
5,0.980555627375371,-0.169444445078067,-0.272222225631511,0.0161879286170006,0.000916297896765172,0.00366519158706069
5,0.979166735492117,-0.162500009973726,-0.273611117514765,0.0140499006956816,-0.00610865233466029,0.0033597587607801
5,0.983333411141879,-0.166666673467524,-0.270833333748257,0.019547687843442,-0.0122173046693206,0.00183259579353034
5,0.981944519258625,-0.163888889701015,-0.270833333748257,0.0204639863222837,-0.0131336031481624,0.0033597587607801
5,0.986111194908388,-0.16527778158427,-0.268055574293678,0.0171042270958424,-0.0143553335219622,0.00641408516094089
5,0.983333411141879,-0.16527778158427,-0.265277790527169,0.0177150927484035,-0.0192422550171614,0.00977384392172098
5,0.979166735492117,-0.170833336961321,-0.269444466176932,0.0183259565383196,-0.0140499006956816,0.00794124789535999
5,0.983333411141879,-0.163888889701015,-0.269444466176932,0.0180205255746841,-0.017409659922123,0.00946841109544039
5,0.991666665193688,-0.170833336961321,-0.277777793164528,0.0152716310694814,-0.0045814891345799,0.00549778714776039
5,0.990277773310434,-0.169444445078067,-0.263888898643915,0.0149661982432008,-0.0045814891345799,0.00122173049021512
5,0.983333411141879,-0.170833336961321,-0.270833333748257,0.0021380283869803,-0.00916297826915979,-0.000610865245107561
5,0.976388951725609,-0.159722226207217,-0.275000009398019,0.00549778714776039,-0.0106901414692402,0.00794124789535999
5,0.976388951725609,-0.166666673467524,-0.273611117514765,0.00794124789535999,-0.00946841109544039,0.0109955742955208
5,0.979166735492117,-0.166666673467524,-0.276388901281273,0.000916297896765172,-0.00671951752156019,0.0140499006956816
5,0.977777843608863,-0.163888889701015,-0.280555576931036,0.00763581553474069,-0.0027488935738802,0.0027488935738802
5,0.983333411141879,-0.163888889701015,-0.275000009398019,0.00671951752156019,-0.00152716308366507,0.0027488935738802
5,0.983333411141879,-0.168055565350778,-0.276388901281273,0.00610865233466029,-0.00397062394768,0.00488692196086049
5,0.983333411141879,-0.170833336961321,-0.275000009398019,0.000916297896765172,0.00610865233466029,0.0103847095742822
5,0.979166735492117,-0.181944447715425,-0.272222225631511,0.00549778714776039,-0.000610865245107561,0.0122173046693206
5,0.977777843608863,-0.176388892338373,-0.272222225631511,0.0131336031481624,-0.00549778714776039,0.0146607663482428
5,0.979166735492117,-0.176388892338373,-0.272222225631511,0.017409659922123,-0.00824668072164059,0.0164933614432812
5,0.976388951725609,-0.163888889701015,-0.268055574293678,0.0284052342176437,-0.0171042270958424,0.0180205255746841
5,0.976388951725609,-0.170833336961321,-0.269444466176932,0.0332921557128429,-0.0229074470698834,0.0177150927484035
5,0.979166735492117,-0.17361112072783,-0.284722228268869,0.0311541277915239,-0.0189368221908808,0.0106901414692402
5,0.981944519258625,-0.170833336961321,-0.280555576931036,0.0332921557128429,-0.015577063895762,0.017409659922123
5,0.981944519258625,-0.170833336961321,-0.280555576931036,0.0268780700862408,-0.0122173046693206,0.0180205255746841
5,0.986111194908388,-0.17361112072783,-0.269444466176932,0.0265726372599602,-0.0125227374956012,0.0201585534960032
5,0.983333411141879,-0.172222228844576,-0.269444466176932,0.0323758572340012,-0.0232128798961639,0.00519235478714108
5,0.983333411141879,-0.172222228844576,-0.269444466176932,0.0351247526705265,-0.0299323964864016,0.00977384392172098
5,0.980555627375371,-0.175000000455119,-0.273611117514765,0.0427605658769607,-0.0277943685650826,0.00916297826915979
5,0.980555627375371,-0.177777784221628,-0.275000009398019,0.0461203269660473,-0.0247400421649218,0.0229074470698834
5,0.980555627375371,-0.177777784221628,-0.275000009398019,0.0427605658769607,-0.0164933614432812,0.0164933614432812
5,0.984722303025134,-0.175000000455119,-0.286111120152123,0.0427605658769607,-0.0192422550171614,0.0189368221908808
5,0.981944519258625,-0.176388892338373,-0.280555576931036,0.0442877300083637,-0.0149661982432008,0.0180205255746841
5,0.979166735492117,-0.17361112072783,-0.29166668768514,0.0430659987032413,-0.0314595587551594,0.017409659922123
5,0.979166735492117,-0.179166676104882,-0.270833333748257,0.0384845100343227,-0.03176499158144,0.0122173046693206
5,0.976388951725609,-0.179166676104882,-0.275000009398019,0.0430659987032413,-0.0360410511493683,0.0149661982432008
5,0.975000059842355,-0.186111123365188,-0.280555576931036,0.0467311926186085,-0.0351247526705265,0.0229074470698834
5,0.976388951725609,-0.184722231481934,-0.272222225631511,0.0479529201984406,-0.0323758572340012,0.017409659922123
5,0.979166735492117,-0.184722231481934,-0.273611117514765,0.0418442711234093,-0.0335975885391235,0.0177150927484035
5,0.983333411141879,-0.18333333959868,-0.272222225631511,0.0400116741657257,-0.0369573459029198,0.0210748501121998
5,0.979166735492117,-0.179166676104882,-0.272222225631511,0.0323758572340012,-0.0372627787292004,0.0125227374956012
5,0.977777843608863,-0.190277786858986,-0.279166685047782,0.0378736443817616,-0.0342084541916847,0.00916297826915979
5,0.981944519258625,-0.187500003092477,-0.284722228268869,0.0494800843298435,-0.037568211555481,0.0183259565383196
5,0.983333411141879,-0.184722231481934,-0.286111120152123,0.0485637858510017,-0.0290160998702049,0.00671951752156019
5,0.983333411141879,-0.187500003092477,-0.277777793164528,0.0497855171561241,-0.0201585534960032,0.00580321997404099
5,0.983333411141879,-0.186111123365188,-0.276388901281273,0.0558941699564457,-0.0106901414692402,0.000916297896765172
5,0.977777843608863,-0.193055558469529,-0.284722228268869,0.0571159012615681,-0.015577063895762,-0.00519235478714108
5,0.979166735492117,-0.193055558469529,-0.286111120152123,0.0574213340878487,-0.00305432616733015,-0.00549778714776039
5,0.976388951725609,-0.193055558469529,-0.277777793164528,0.0595593601465225,-0.00427605677396059,-0.0045814891345799
5,0.976388951725609,-0.197222234119292,-0.275000009398019,0.0616973899304867,-0.000610865245107561,-0.0189368221908808
5,0.973611167959101,-0.187500003092477,-0.288888903918631,0.0604756586253643,0.00702495034784079,-0.0229074470698834
5,0.976388951725609,-0.190277786858986,-0.286111120152123,0.0555887371301651,-0.000305432622553781,-0.0189368221908808
5,0.979166735492117,-0.193055558469529,-0.279166685047782,0.0656680166721344,0.00488692196086049,-0.0348193198442459
5,0.977777843608863,-0.187500003092477,-0.29166668768514,0.0577267669141293,-0.00427605677396059,-0.0222965814173222
5,0.977777843608863,-0.187500003092477,-0.287500012035377,0.0598647929728031,-0.0106901414692402,-0.0277943685650826
5,0.975000059842355,-0.18333333959868,-0.284722228268869,0.0479529201984406,-0.0177150927484035,-0.01588249579072
5,0.975000059842355,-0.188888894975731,-0.284722228268869,0.0519235469400883,-0.017409659922123,-0.0235183127224445
5,0.977777843608863,-0.186111123365188,-0.283333336385615,0.0589484944939613,-0.02382374368608,-0.0290160998702049
5,0.976388951725609,-0.190277786858986,-0.288888903918631,0.0620028227567673,-0.0128281703218818,-0.0229074470698834
5,0.969444492309338,-0.187500003092477,-0.287500012035377,0.0540615729987621,-0.0103847095742822,-0.0192422550171614
5,0.969444492309338,-0.187500003092477,-0.287500012035377,0.0439822971820831,-0.0161879286170006,-0.0167987942695618
5,0.973611167959101,-0.188888894975731,-0.287500012035377,0.0394008085131645,-0.0250454749912024,-0.0167987942695618
5,0.976388951725609,-0.187500003092477,-0.286111120152123,0.0293215326964855,-0.0125227374956012,-0.0122173046693206
5,0.976388951725609,-0.187500003092477,-0.286111120152123,0.0250454749912024,-0.00916297826915979,-0.00610865233466029
5,0.975000059842355,-0.18333333959868,-0.283333336385615,0.00977384392172098,-0.0100792767480016,-0.0131336031481624
5,0.972222276075846,-0.180555567988136,-0.288888903918631,0.0125227374956012,-0.00824668072164059,0.00122173049021512
5,0.972222276075846,-0.180555567988136,-0.288888903918631,0.0201585534960032,0.000610865245107561,-0.00183259579353034
5,0.977777843608863,-0.184722231481934,-0.290277795801886,0.013744467869401,-0.00397062394768,-0.00824668072164059
5,0.977777843608863,-0.187500003092477,-0.293055555256465,0.00671951752156019,0.00641408516094089,-0.0045814891345799
5,0.977777843608863,-0.184722231481934,-0.295833339022973,-0.0021380283869803,0.011606439948082,-0.00549778714776039
5,0.977777843608863,-0.180555567988136,-0.288888903918631,-0.0134390350431204,0.0134390350431204,-0.000610865245107561
5,0.970833384192592,-0.180555567988136,-0.283333336385615,-0.0210748501121998,0.00763581553474069,-0.00488692196086049
5,0.973611167959101,-0.17361112072783,-0.295833339022973,-0.0268780700862408,0.00366519158706069,0.0027488935738802
5,0.972222276075846,-0.176388892338373,-0.287500012035377,-0.0265726372599602,0.00885754637420177,0.00733038317412138
5,0.973611167959101,-0.180555567988136,-0.287500012035377,-0.0244346093386412,-0.00794124789535999,0.0131336031481624
5,0.973611167959101,-0.186111123365188,-0.288888903918631,-0.0201585534960032,-0.00427605677396059,0.000305432622553781
5,0.972222276075846,-0.187500003092477,-0.293055555256465,-0.0244346093386412,0.00763581553474069,0.00671951752156019
5,0.976388951725609,-0.190277786858986,-0.294444447139719,-0.0219911485910416,-0.000610865245107561,0.00671951752156019
5,0.973611167959101,-0.184722231481934,-0.286111120152123,-0.0222965814173222,0.00305432616733015,0.0128281703218818
5,0.991666665193688,-0.190277786858986,-0.279166685047782,-0.021685715764761,0.00488692196086049,0.0045814891345799
5,0.977777843608863,-0.18333333959868,-0.281944444502361,-0.0232128798961639,-0.00305432616733015,0.0109955742955208
5,0.976388951725609,-0.184722231481934,-0.281944444502361,-0.0259617734700441,-0.00366519158706069,0.0027488935738802
5,0.977777843608863,-0.187500003092477,-0.280555576931036,-0.0204639863222837,-0.00427605677396059,0.0033597587607801
5,0.976388951725609,-0.18333333959868,-0.284722228268869,-0.0186313893646002,0.00488692196086049,0.0100792767480016
5,0.976388951725609,-0.187500003092477,-0.288888903918631,-0.0143553335219622,0.000916297896765172,0.00916297826915979
5,0.976388951725609,-0.184722231481934,-0.290277795801886,-0.015577063895762,-0.00152716308366507,-0.00519235478714108
5,0.975000059842355,-0.187500003092477,-0.298611122789481,-0.0122173046693206,-0.0045814891345799,0.0021380283869803
5,0.976388951725609,-0.187500003092477,-0.288888903918631,-0.0143553335219622,-0.00794124789535999,0.00519235478714108
5,0.975000059842355,-0.188888894975731,-0.290277795801886,-0.0106901414692402,0.000305432622553781,-0.00519235478714108
5,0.970833384192592,-0.187500003092477,-0.280555576931036,-0.0113010071218014,-0.00641408516094089,-0.000916297896765172
5,0.970833384192592,-0.18333333959868,-0.279166685047782,-0.00702495034784079,0.00397062394768,-0.00824668072164059
5,0.976388951725609,-0.180555567988136,-0.29166668768514,0.00152716308366507,-0.00397062394768,-0.00702495034784079
5,0.973611167959101,-0.187500003092477,-0.287500012035377,-0.000305432622553781,-0.00244346098043024,0.000610865245107561
5,0.973611167959101,-0.187500003092477,-0.281944444502361,0.0106901414692402,0.00549778714776039,-0.00366519158706069
5,0.973611167959101,-0.18333333959868,-0.281944444502361,0.00916297826915979,0.00427605677396059,-0.0134390350431204
5,0.976388951725609,-0.180555567988136,-0.276388901281273,0.00610865233466029,-0.000916297896765172,-0.00946841109544039
5,0.980555627375371,-0.186111123365188,-0.280555576931036,0.0106901414692402,-0.00702495034784079,-0.00488692196086049
5,0.980555627375371,-0.186111123365188,-0.280555576931036,0.00885754637420177,0.000305432622553781,-0.000916297896765172
5,0.977777843608863,-0.184722231481934,-0.287500012035377,0.00977384392172098,-0.000305432622553781,-0.0027488935738802
5,0.973611167959101,-0.179166676104882,-0.281944444502361,0.00977384392172098,-0.00488692196086049,-0.0152716310694814
5,0.977777843608863,-0.180555567988136,-0.290277795801886,0.0161879286170006,-0.00519235478714108,-0.00427605677396059
5,0.976388951725609,-0.179166676104882,-0.288888903918631,0.00916297826915979,0.00122173049021512,-0.000305432622553781
5,0.976388951725609,-0.18333333959868,-0.294444447139719,-0.00488692196086049,0.0122173046693206,-0.00702495034784079
5,0.973611167959101,-0.18333333959868,-0.288888903918631,-0.00152716308366507,0.00152716308366507,-0.0045814891345799
5,0.970833384192592,-0.179166676104882,-0.29166668768514,-0.00610865233466029,0.0027488935738802,-0.00916297826915979
5,0.973611167959101,-0.17361112072783,-0.286111120152123,-0.00244346098043024,0.0106901414692402,-0.00427605677396059
5,0.976388951725609,-0.18333333959868,-0.290277795801886,-0.00122173049021512,0.00641408516094089,-0.000916297896765172
5,0.975000059842355,-0.190277786858986,-0.290277795801886,-0.000916297896765172,0.0100792767480016,-0.00641408516094089
5,0.973611167959101,-0.184722231481934,-0.288888903918631,-0.00519235478714108,0.00855211354792118,-0.00610865233466029
5,0.979166735492117,-0.180555567988136,-0.287500012035377,-0.00366519158706069,0.00763581553474069,-0.00855211354792118
5,0.977777843608863,-0.176388892338373,-0.288888903918631,-0.0027488935738802,0.00733038317412138,-0.000610865245107561
5,0.980555627375371,-0.180555567988136,-0.288888903918631,-0.00427605677396059,0.00610865233466029,0.00152716308366507
5,0.977777843608863,-0.18333333959868,-0.286111120152123,-0.00580321997404099,0.00244346098043024,0.00122173049021512
5,0.976388951725609,-0.180555567988136,-0.29166668768514,-0.000610865245107561,0.00580321997404099,-0.00519235478714108
5,0.976388951725609,-0.18333333959868,-0.286111120152123,0.00580321997404099,0.00733038317412138,-0.00671951752156019
5,0.976388951725609,-0.184722231481934,-0.286111120152123,0.00244346098043024,0.00946841109544039,0.00397062394768
5,0.969444492309338,-0.181944447715425,-0.280555576931036,0.0027488935738802,0.00702495034784079,-0.00580321997404099
5,0.973611167959101,-0.181944447715425,-0.287500012035377,0.0021380283869803,0.0122173046693206,0.00183259579353034
5,0.979166735492117,-0.180555567988136,-0.281944444502361,0.00702495034784079,0.00824668072164059,0.000305432622553781
5,0.973611167959101,-0.18333333959868,-0.283333336385615,0.00763581553474069,0.00549778714776039,-0.00152716308366507
5,0.972222276075846,-0.175000000455119,-0.288888903918631,0.00610865233466029,0.00885754637420177,-0.0131336031481624
5,0.970833384192592,-0.180555567988136,-0.279166685047782,0.00305432616733015,0.0100792767480016,-0.0033597587607801
5,0.970833384192592,-0.176388892338373,-0.288888903918631,0.00427605677396059,0.0113010071218014,-0.00946841109544039
5,0.976388951725609,-0.180555567988136,-0.288888903918631,0.0045814891345799,0.01191187184304,0.0033597587607801
5,0.977777843608863,-0.177777784221628,-0.287500012035377,0.00671951752156019,0.0131336031481624,-0.011606439948082
5,0.977777843608863,-0.17361112072783,-0.280555576931036,0.00549778714776039,0.00763581553474069,-0.00946841109544039
5,0.976388951725609,-0.18333333959868,-0.275000009398019,0.00916297826915979,0.017409659922123,-0.00610865233466029
5,0.979166735492117,-0.186111123365188,-0.283333336385615,0.00519235478714108,0.0198531206697226,-0.0027488935738802
5,0.979166735492117,-0.181944447715425,-0.286111120152123,0.00488692196086049,0.00641408516094089,-0.00122173049021512
5,0.976388951725609,-0.18333333959868,-0.29166668768514,0.00488692196086049,0.0186313893646002,-0.00244346098043024
5,0.979166735492117,-0.179166676104882,-0.288888903918631,0.00488692196086049,0.00977384392172098,-0.00671951752156019
5,0.976388951725609,-0.179166676104882,-0.279166685047782,0.0100792767480016,0.00519235478714108,-0.0143553335219622
5,0.977777843608863,-0.180555567988136,-0.290277795801886,0.00794124789535999,0.00885754637420177,-0.00519235478714108
5,0.976388951725609,-0.177777784221628,-0.286111120152123,0.00763581553474069,0.00977384392172098,-0.00519235478714108
5,0.976388951725609,-0.175000000455119,-0.283333336385615,0.00916297826915979,0.0131336031481624,0.00488692196086049
5,0.972222276075846,-0.18333333959868,-0.284722228268869,0.011606439948082,0.0106901414692402,-0.00733038317412138
5,0.975000059842355,-0.181944447715425,-0.288888903918631,0.0106901414692402,0.01191187184304,-0.0140499006956816
5,0.973611167959101,-0.180555567988136,-0.279166685047782,0.00519235478714108,0.0164933614432812,-0.00580321997404099
5,0.977777843608863,-0.177777784221628,-0.279166685047782,0.00397062394768,0.011606439948082,-0.00152716308366507
5,0.981944519258625,-0.186111123365188,-0.275000009398019,0.0161879286170006,0.00183259579353034,-0.0167987942695618
5,0.981944519258625,-0.186111123365188,-0.275000009398019,0.0143553335219622,0.00855211354792118,-0.0122173046693206
5,0.975000059842355,-0.18333333959868,-0.280555576931036,0.00641408516094089,0.0177150927484035,-0.00152716308366507
5,0.983333411141879,-0.17361112072783,-0.288888903918631,0.0033597587607801,0.0259617734700441,-0.00855211354792118
5,0.977777843608863,-0.172222228844576,-0.280555576931036,0.0021380283869803,0.0131336031481624,-0.00244346098043024
5,0.973611167959101,-0.176388892338373,-0.281944444502361,0.00671951752156019,0.0164933614432812,-0.0100792767480016
5,0.983333411141879,-0.17361112072783,-0.281944444502361,0.00122173049021512,0.0109955742955208,-0.00855211354792118
5,0.976388951725609,-0.176388892338373,-0.280555576931036,0.00946841109544039,0.0122173046693206,-0.000916297896765172
5,0.977777843608863,-0.180555567988136,-0.276388901281273,0.00488692196086049,0.0268780700862408,-0.00763581553474069
5,0.977777843608863,-0.180555567988136,-0.280555576931036,0.00122173049021512,0.0232128798961639,-0.00733038317412138
5,0.976388951725609,-0.177777784221628,-0.270833333748257,0.00702495034784079,0.0290160998702049,-0.0109955742955208
5,0.976388951725609,-0.180555567988136,-0.290277795801886,0.00610865233466029,0.0229074470698834,-0.0171042270958424
5,0.977777843608863,-0.176388892338373,-0.279166685047782,0.00427605677396059,0.0177150927484035,-0.00610865233466029
5,0.977777843608863,-0.176388892338373,-0.275000009398019,0.0140499006956816,0.0183259565383196,-0.0033597587607801
5,0.975000059842355,-0.176388892338373,-0.275000009398019,0.00763581553474069,0.0177150927484035,-0.01191187184304
5,0.976388951725609,-0.179166676104882,-0.269444466176932,0.00824668072164059,0.0207694191485643,0.0033597587607801
5,0.980555627375371,-0.180555567988136,-0.273611117514765,0.0134390350431204,0.019547687843442,-0.0109955742955208
5,0.976388951725609,-0.176388892338373,-0.276388901281273,0.00794124789535999,0.0143553335219622,-0.00427605677396059
5,0.979166735492117,-0.17361112072783,-0.295833339022973,-0.0027488935738802,0.0186313893646002,-0.00183259579353034
5,0.983333411141879,-0.176388892338373,-0.284722228268869,-0.0161879286170006,0.0314595587551594,-0.000610865245107561
5,0.977777843608863,-0.170833336961321,-0.281944444502361,-0.0134390350431204,0.0409279726445675,0.0033597587607801
5,0.976388951725609,-0.16527778158427,-0.286111120152123,-0.00671951752156019,0.0302378293126821,0.00519235478714108
5,0.980555627375371,-0.175000000455119,-0.270833333748257,0.00580321997404099,0.0213802829384804,0.0021380283869803
5,0.979166735492117,-0.180555567988136,-0.269444466176932,0.0100792767480016,0.0167987942695618,0.00122173049021512
5,0.977777843608863,-0.177777784221628,-0.265277790527169,0.00855211354792118,0.0146607663482428,0.0021380283869803
5,0.979166735492117,-0.175000000455119,-0.269444466176932,0.00152716308366507,-0.0021380283869803,0.00183259579353034
5,0.975000059842355,-0.170833336961321,-0.268055574293678,0.00122173049021512,-0.0033597587607801,0.00122173049021512
5,0.981944519258625,-0.175000000455119,-0.272222225631511,-0.0027488935738802,-0.00427605677396059,0.00244346098043024
5,0.983333411141879,-0.176388892338373,-0.280555576931036,-0.00305432616733015,-0.000916297896765172,0.00733038317412138
5,0.984722303025134,-0.177777784221628,-0.279166685047782,-0.00366519158706069,0.00580321997404099,0.00641408516094089
5,0.983333411141879,-0.18333333959868,-0.275000009398019,-0.00794124789535999,0.0222965814173222,-0.0021380283869803
5,0.979166735492117,-0.176388892338373,-0.281944444502361,-0.00397062394768,0.0177150927484035,0.0033597587607801
5,0.979166735492117,-0.175000000455119,-0.281944444502361,-0.00366519158706069,0.00671951752156019,-0.00366519158706069
5,0.980555627375371,-0.176388892338373,-0.280555576931036,-0.0021380283869803,0.0021380283869803,0.00183259579353034
5,0.979166735492117,-0.179166676104882,-0.277777793164528,-0.000610865245107561,0.000610865245107561,-0.000305432622553781
5,0.979166735492117,-0.176388892338373,-0.280555576931036,0.0033597587607801,0.00366519158706069,0.0027488935738802
5,0.976388951725609,-0.170833336961321,-0.286111120152123,-0.000916297896765172,0.0045814891345799,-0.0027488935738802
5,0.979166735492117,-0.17361112072783,-0.275000009398019,-0.000916297896765172,0.00122173049021512,0.00122173049021512
5,0.981944519258625,-0.177777784221628,-0.272222225631511,0.0033597587607801,0.00885754637420177,-0.00427605677396059
5,0.980555627375371,-0.176388892338373,-0.276388901281273,0.00152716308366507,0.00671951752156019,-0.00977384392172098
5,0.979166735492117,-0.176388892338373,-0.275000009398019,0.00702495034784079,-0.00671951752156019,-0.0122173046693206
5,0.983333411141879,-0.180555567988136,-0.270833333748257,0.00946841109544039,-0.00397062394768,-0.00305432616733015
5,0.981944519258625,-0.177777784221628,-0.272222225631511,0.00122173049021512,0.00183259579353034,-0.00610865233466029
5,0.979166735492117,-0.17361112072783,-0.275000009398019,0.000916297896765172,0.00702495034784079,0.000305432622553781
5,0.979166735492117,-0.17361112072783,-0.275000009398019,-0.000916297896765172,0.00244346098043024,-0.00519235478714108
5,0.981944519258625,-0.175000000455119,-0.275000009398019,0.00610865233466029,-0.00366519158706069,-0.00183259579353034
5,0.979166735492117,-0.18333333959868,-0.276388901281273,0.0113010071218014,-0.00366519158706069,-0.00702495034784079
5,0.979166735492117,-0.18333333959868,-0.276388901281273,0.02382374368608,-0.00946841109544039,-0.0021380283869803
5,0.976388951725609,-0.176388892338373,-0.280555576931036,0.0201585534960032,-0.00763581553474069,-0.0122173046693206
5,0.976388951725609,-0.17361112072783,-0.275000009398019,0.0183259565383196,0.00427605677396059,-0.00641408516094089
5,0.976388951725609,-0.17361112072783,-0.275000009398019,0.0186313893646002,0.00244346098043024,-0.0125227374956012
5,0.980555627375371,-0.170833336961321,-0.279166685047782,0.0177150927484035,-0.000916297896765172,-0.00397062394768
5,0.981944519258625,-0.175000000455119,-0.275000009398019,0.0189368221908808,-0.00977384392172098,-0.01191187184304
5,0.981944519258625,-0.175000000455119,-0.275000009398019,0.0164933614432812,-0.00763581553474069,-0.0134390350431204
5,0.980555627375371,-0.180555567988136,-0.276388901281273,0.0213802829384804,-0.00763581553474069,-0.00733038317412138
5,0.980555627375371,-0.176388892338373,-0.275000009398019,0.0232128798961639,-0.00122173049021512,-0.00427605677396059
5,0.980555627375371,-0.176388892338373,-0.275000009398019,0.0189368221908808,-0.00152716308366507,-0.011606439948082
5,0.977777843608863,-0.175000000455119,-0.279166685047782,0.0210748501121998,0.00427605677396059,0.0045814891345799
5,0.979166735492117,-0.175000000455119,-0.280555576931036,0.0109955742955208,-0.00549778714776039,-0.00397062394768
5,0.979166735492117,-0.181944447715425,-0.277777793164528,0.00366519158706069,0.0146607663482428,-0.0033597587607801
5,0.980555627375371,-0.180555567988136,-0.283333336385615,0.00855211354792118,0.0253509078174829,0.00641408516094089
5,0.979166735492117,-0.180555567988136,-0.272222225631511,0.0143553335219622,0.0262672062963247,-0.000610865245107561
5,0.983333411141879,-0.179166676104882,-0.261111114877407,0.013744467869401,0.00702495034784079,0.00152716308366507
5,0.983333411141879,-0.172222228844576,-0.272222225631511,0.0122173046693206,0.00733038317412138,0.00702495034784079
5,0.983333411141879,-0.177777784221628,-0.268055574293678,0.00946841109544039,0.00733038317412138,0.000916297896765172
5,0.981944519258625,-0.166666673467524,-0.263888898643915,0.0113010071218014,-0.00122173049021512,0.000610865245107561
5,0.973611167959101,-0.163888889701015,-0.263888898643915,0.00183259579353034,-0.00794124789535999,0.0152716310694814
5,0.977777843608863,-0.163888889701015,-0.281944444502361,0.0033597587607801,-0.00122173049021512,0.0140499006956816
5,0.980555627375371,-0.176388892338373,-0.286111120152123,-0.00519235478714108,-0.00183259579353034,0.0131336031481624
5,0.979166735492117,-0.179166676104882,-0.281944444502361,0.00152716308366507,-0.00183259579353034,0.0100792767480016
5,0.983333411141879,-0.181944447715425,-0.275000009398019,0.00305432616733015,0.0027488935738802,0.000610865245107561
5,0.983333411141879,-0.179166676104882,-0.281944444502361,0.0125227374956012,-0.00427605677396059,0.00366519158706069
5,0.979166735492117,-0.176388892338373,-0.283333336385615,0.0122173046693206,-0.00549778714776039,0.00549778714776039
5,0.979166735492117,-0.175000000455119,-0.280555576931036,0.01191187184304,-0.00122173049021512,0.00610865233466029
5,0.981944519258625,-0.180555567988136,-0.279166685047782,0.0122173046693206,-0.00610865233466029,0.0134390350431204
5,0.983333411141879,-0.17361112072783,-0.283333336385615,0.0122173046693206,-0.000305432622553781,0.0113010071218014
5,0.983333411141879,-0.17361112072783,-0.280555576931036,0.00885754637420177,-0.00549778714776039,0.00824668072164059
5,0.979166735492117,-0.17361112072783,-0.268055574293678,0.0125227374956012,-0.0103847095742822,0.00885754637420177
5,0.979166735492117,-0.181944447715425,-0.269444466176932,0.0122173046693206,-0.00549778714776039,0.0149661982432008
5,0.979166735492117,-0.17361112072783,-0.272222225631511,0.0106901414692402,-0.0134390350431204,0.0210748501121998
5,0.979166735492117,-0.17361112072783,-0.269444466176932,0.0198531206697226,-0.0189368221908808,0.00824668072164059
5,0.981944519258625,-0.180555567988136,-0.273611117514765,0.021685715764761,-0.0183259565383196,0.00824668072164059
5,0.98888888142718,-0.181944447715425,-0.275000009398019,0.0180205255746841,-0.0109955742955208,0.0167987942695618
5,0.987499989543926,-0.180555567988136,-0.277777793164528,0.00519235478714108,-0.000305432622553781,0.000305432622553781
5,0.983333411141879,-0.176388892338373,-0.258333331110899,0.0122173046693206,-0.00794124789535999,0.00305432616733015
5,0.979166735492117,-0.186111123365188,-0.269444466176932,0.0131336031481624,-0.0241291765123606,0.00580321997404099
5,0.979166735492117,-0.181944447715425,-0.273611117514765,0.0222965814173222,-0.021685715764761,0.00366519158706069
5,0.983333411141879,-0.181944447715425,-0.29166668768514,0.0271835029125214,-0.0183259565383196,0.0021380283869803
5,0.976388951725609,-0.18333333959868,-0.290277795801886,0.0259617734700441,-0.0143553335219622,-0.00183259579353034
5,0.979166735492117,-0.180555567988136,-0.281944444502361,0.0280998013913631,-0.0103847095742822,-0.00671951752156019
5,0.977777843608863,-0.180555567988136,-0.281944444502361,0.0366519130766392,-0.0143553335219622,-0.00122173049021512
5,0.977777843608863,-0.180555567988136,-0.280555576931036,0.0268780700862408,-0.0143553335219622,0.00244346098043024
5,0.977777843608863,-0.176388892338373,-0.281944444502361,0.0244346093386412,-0.0134390350431204,-0.00244346098043024
5,0.976388951725609,-0.181944447715425,-0.279166685047782,0.0326812900602817,-0.0171042270958424,-0.000305432622553781
5,0.979166735492117,-0.18333333959868,-0.280555576931036,0.0360410511493683,-0.0152716310694814,0.00183259579353034
5,0.979166735492117,-0.175000000455119,-0.283333336385615,0.03176499158144,-0.00946841109544039,-0.00702495034784079
5,0.979166735492117,-0.177777784221628,-0.283333336385615,0.03176499158144,-0.00916297826915979,0.00733038317412138
5,0.979166735492117,-0.181944447715425,-0.279166685047782,0.0241291765123606,-0.00855211354792118,-0.00122173049021512
5,0.979166735492117,-0.18333333959868,-0.286111120152123,0.0259617734700441,-0.0100792767480016,0.0100792767480016
5,0.979166735492117,-0.184722231481934,-0.276388901281273,0.0354301854968071,-0.015577063895762,0.0033597587607801
5,0.979166735492117,-0.18333333959868,-0.272222225631511,0.0332921557128429,-0.00824668072164059,-0.00885754637420177
5,0.980555627375371,-0.18333333959868,-0.276388901281273,0.0204639863222837,0.00152716308366507,-0.00397062394768
5,0.972222276075846,-0.180555567988136,-0.281944444502361,0.027488935738802,-0.00855211354792118,-0.00366519158706069
5,0.973611167959101,-0.179166676104882,-0.275000009398019,0.0207694191485643,-0.00397062394768,0.00183259579353034
5,0.976388951725609,-0.180555567988136,-0.286111120152123,0.0201585534960032,-0.0027488935738802,0.00366519158706069
5,0.976388951725609,-0.180555567988136,-0.279166685047782,0.0219911485910416,-0.00641408516094089,-0.0045814891345799
5,0.977777843608863,-0.18333333959868,-0.284722228268869,0.0143553335219622,-0.00366519158706069,0.00183259579353034
5,0.976388951725609,-0.175000000455119,-0.281944444502361,0.0186313893646002,-0.00549778714776039,0.0033597587607801
5,0.975000059842355,-0.177777784221628,-0.286111120152123,0.00397062394768,-0.00763581553474069,0.00122173049021512
5,0.973611167959101,-0.186111123365188,-0.281944444502361,0.00427605677396059,-0.00977384392172098,0.00549778714776039
5,0.977777843608863,-0.190277786858986,-0.279166685047782,0.00427605677396059,-0.0021380283869803,0.00549778714776039
5,0.979166735492117,-0.18333333959868,-0.287500012035377,0.00671951752156019,0.000305432622553781,0.00366519158706069
5,0.975000059842355,-0.177777784221628,-0.283333336385615,0.00183259579353034,0.0021380283869803,0.00580321997404099
5,0.970833384192592,-0.181944447715425,-0.284722228268869,-0.000305432622553781,0.00366519158706069,0.00549778714776039
5,0.979166735492117,-0.184722231481934,-0.288888903918631,-0.0027488935738802,0.00305432616733015,0.0113010071218014
5,0.980555627375371,-0.180555567988136,-0.281944444502361,0.00244346098043024,-0.0045814891345799,0.0045814891345799
5,0.983333411141879,-0.186111123365188,-0.287500012035377,0.00305432616733015,-0.00671951752156019,0.000916297896765172
5,0.979166735492117,-0.190277786858986,-0.286111120152123,0.00763581553474069,0.00702495034784079,0.000610865245107561
5,0.976388951725609,-0.18333333959868,-0.281944444502361,0.000916297896765172,0.00427605677396059,0.00366519158706069
5,0.976388951725609,-0.18333333959868,-0.284722228268869,0.00641408516094089,0.000305432622553781,-0.000916297896765172
5,0.979166735492117,-0.184722231481934,-0.277777793164528,0.00946841109544039,-0.00427605677396059,-0.00183259579353034
5,0.979166735492117,-0.181944447715425,-0.284722228268869,0.000916297896765172,-0.000916297896765172,-0.00152716308366507
5,0.979166735492117,-0.180555567988136,-0.29166668768514,0.0021380283869803,0.00641408516094089,0.0109955742955208
5,0.972222276075846,-0.180555567988136,-0.284722228268869,-0.00397062394768,0.00519235478714108,-0.00183259579353034
5,0.975000059842355,-0.187500003092477,-0.279166685047782,-0.000610865245107561,-0.00488692196086049,0.000916297896765172
5,0.976388951725609,-0.188888894975731,-0.283333336385615,0.00794124789535999,-0.00183259579353034,0.00549778714776039
5,0.979166735492117,-0.184722231481934,-0.279166685047782,0.0027488935738802,-0.00305432616733015,0.00183259579353034
5,0.977777843608863,-0.190277786858986,-0.281944444502361,0.00519235478714108,0.00671951752156019,0.0021380283869803
5,0.979166735492117,-0.184722231481934,-0.275000009398019,0.00305432616733015,0.00794124789535999,0.00671951752156019
5,0.977777843608863,-0.18333333959868,-0.276388901281273,0.00641408516094089,0.0113010071218014,0.0033597587607801
5,0.976388951725609,-0.180555567988136,-0.275000009398019,0.00977384392172098,0.00824668072164059,-0.00549778714776039
5,0.979166735492117,-0.175000000455119,-0.281944444502361,0.00488692196086049,0.0122173046693206,-0.00397062394768
5,0.977777843608863,-0.180555567988136,-0.269444466176932,0.00122173049021512,0.00580321997404099,-0.00641408516094089
5,0.973611167959101,-0.177777784221628,-0.281944444502361,0.0045814891345799,0.000916297896765172,0.000610865245107561
5,0.973611167959101,-0.177777784221628,-0.286111120152123,0.01191187184304,0.00885754637420177,0.00305432616733015
5,0.979166735492117,-0.18333333959868,-0.288888903918631,0.00519235478714108,0.01191187184304,-0.000916297896765172
5,0.979166735492117,-0.18333333959868,-0.286111120152123,0.00671951752156019,0.0113010071218014,-0.00366519158706069
5,0.976388951725609,-0.18333333959868,-0.281944444502361,-0.00366519158706069,0.0113010071218014,-0.00366519158706069
5,0.979166735492117,-0.187500003092477,-0.281944444502361,0.0113010071218014,0.00610865233466029,-0.00427605677396059
5,0.976388951725609,-0.186111123365188,-0.277777793164528,0.00855211354792118,0.00763581553474069,0.000916297896765172
5,0.969444492309338,-0.187500003092477,-0.283333336385615,0.00977384392172098,-0.00305432616733015,-0.00733038317412138
5,0.975000059842355,-0.187500003092477,-0.277777793164528,0.00885754637420177,-0.00122173049021512,-0.00519235478714108
5,0.975000059842355,-0.187500003092477,-0.277777793164528,0.00610865233466029,0.00152716308366507,0.00488692196086049
5,0.977777843608863,-0.184722231481934,-0.279166685047782,0.0113010071218014,0.000916297896765172,0.00305432616733015
5,0.979166735492117,-0.180555567988136,-0.276388901281273,0.00397062394768,0.0021380283869803,0.00305432616733015
5,0.979166735492117,-0.180555567988136,-0.276388901281273,0.00122173049021512,0.00855211354792118,-0.00244346098043024
5,0.976388951725609,-0.18333333959868,-0.286111120152123,0.00397062394768,0.0021380283869803,-0.0021380283869803
