Activity,acc_x,acc_y,acc_z,gyro_x,gyro_y,gyro_z
0,0.459722240879953,0.104166672436698,0.904166671044111,-0.0192422550171614,-0.0641408488154411,-0.138360977172852
0,0.459722240879953,0.104166672436698,0.904166671044111,0.0394008085131645,-0.0763581544160843,-0.150272846221924
0,0.458333348996699,0.106944444047242,0.904166671044111,-0.0409279726445675,-0.0717766657471657,-0.145996794104576
0,0.456944457113445,0.10972222781375,0.898611103511094,-0.150272846221924,-0.0623082555830479,-0.107817716896534
0,0.456944457113445,0.123611110178398,0.911111130460381,-0.207083314657211,0.00397062394768,-0.0824668109416962
0,0.459722240879953,0.118055554801345,0.909722238577127,-0.200058370828629,0.0314595587551594,-0.0901026204228401
0,0.456944457113445,0.108333335930496,0.89166674134254,-0.206777885556221,-0.0635299831628799,-0.0867428630590439
0,0.451388889580428,0.0888888921108138,0.872222254976982,-0.216246291995048,-0.106901414692402,-0.0842994004487991
0,0.449999997697174,0.0847222225390337,0.86805557932722,-0.215024560689926,-0.136833816766739,-0.0705549344420433
0,0.437500019371745,0.0875000002275597,0.894444525109048,-0.188451930880547,-0.0653625801205635,-0.0684169083833694
0,0.440277803138253,0.0916666697993398,0.92083337364316,-0.150578290224075,-0.0241291765123606,-0.0870482996106148
0,0.449999997697174,0.0791666671619817,0.923611157409668,-0.0965167060494423,-0.0629191175103188,-0.120645888149738
0,0.459722240879953,0.0652777787193518,0.894444525109048,-0.0439822971820831,-0.122173048555851,-0.108123145997524
0,0.44861110581392,0.0625000010308258,0.894444525109048,0.0366519130766392,-0.189062789082527,-0.0867428630590439
0,0.443055586904762,0.0638888929140799,0.92083337364316,0.0827722400426865,-0.281608879566193,-0.0934623852372169
0,0.441666695021508,0.0680555564078778,0.930555616825939,0.155465200543404,-0.278554558753967,-0.0836885422468185
0,0.455555565230191,0.0750000036681839,0.927777833059431,0.201280102133751,-0.186924770474434,-0.101098194718361
0,0.462500024646461,0.0875000002275597,0.886111173809523,0.148134827613831,-0.136528387665749,-0.106901414692402
0,0.454166673346937,0.0958333393711199,0.877777822509998,0.0781907513737679,-0.149051114916802,-0.0995710343122482
0,0.449999997697174,0.0944444474878658,0.872222254976982,-0.0198531206697226,-0.166460782289505,-0.10048733651638
0,0.459722240879953,0.0902777839940679,0.89722221162784,-0.271835029125214,-0.22785273194313,-0.0513126812875271
0,0.486111138037923,0.115277783190802,0.940277860008718,-0.48685958981514,-0.280692577362061,-0.0244346093386412
0,0.497222224480098,0.150000007336368,0.930555616825939,-0.623693406581879,-0.304821759462357,-0.0650571510195732
0,0.459722240879953,0.130555557438704,0.894444525109048,-0.698219001293182,-0.276721954345703,-0.107512280344963
0,0.424999992422458,0.0583333375370279,0.843055622676362,-0.629802048206329,-0.253814518451691,-0.0745255574584007
0,0.430555559955475,-0.0194444453391775,0.831944487610329,-0.47647488117218,-0.323758572340012,0.0103847095742822
0,0.447222262554524,-0.029166668768514,0.866666687443965,-0.226020142436027,-0.135917514562607,0.0745255574584007
0,0.483333354271415,-0.029166668768514,0.877777822509998,-0.037568211555481,-0.019547687843442,0.0916297882795334
0,0.504166683896369,-0.026388891079988,0.861111119910949,0.0128281703218818,-0.0485637858510017,0.0681114718317986
0,0.522222229754814,-0.033333335301303,0.84583340644287,0.00641408516094089,-0.132863193750381,-0.0201585534960032
0,0.509722251429385,-0.0250000007162294,0.85138887672817,0.096211276948452,-0.159741267561913,-0.12675453722477
0,0.502777792013115,0.0125000003581147,0.89722221162784,0.198225766420364,-0.0821613743901253,-0.275500237941742
0,0.483333354271415,0.0458333348996699,0.925000049292922,0.285274058580399,0.03176499158144,-0.345444291830063
0,0.455555565230191,0.055555559848502,0.883333390043015,0.38117989897728,0.17470745742321,-0.330783516168594
0,0.434722235605237,0.0500000014324589,0.826388920077312,0.44959682226181,0.224492982029915,-0.204945296049118
0,0.440277803138253,0.0402777795226179,0.759722255552688,0.34330627322197,0.112093769013882,-0.0558941699564457
0,0.447222262554524,0.0416666683668809,0.752777796136418,0.0729983970522881,-0.0519235469400883,0.126143679022789
0,0.447222262554524,0.0416666683668809,0.752777796136418,-0.299323976039886,0.0226020142436027,0.289244681596756
0,0.473611111088636,0.0388888906783549,0.793055563503071,-0.497244298458099,0.314595609903336,0.281303435564041
0,0.486111138037923,0.0194444453391775,0.781944477060896,-0.54428094625473,0.447153359651566,0.161879286170006
0,0.493055597454194,-0.00555555575692586,0.772222233878117,-0.361937671899795,0.412334054708481,-0.0259617734700441
0,0.512500035195893,-0.0236111118719664,0.787500044593913,0.105374254286289,0.326812893152237,-0.241902634501457
0,0.509722251429385,-0.029166668768514,0.818055568777787,0.416915535926819,0.333837866783142,-0.368657171726227
0,0.551388910679293,0.00555555575692586,0.99583334084345,0.472198843955994,0.485943287611008,-0.399505883455276
0,0.551388910679293,0.00555555575692586,0.99583334084345,0.255647093057633,0.492051959037781,-0.237321153283119
0,0.613888899554154,0.0388888906783549,1.09722225382557,-0.102319926023483,0.273973047733307,-0.0122173046693206
0,0.700000001820477,0.0513888902767219,1.12638888612619,-0.336586743593216,0.0339030213654041,0.166155353188515
0,0.700000001820477,0.0430555572111439,1.05000002704265,-0.448375076055527,-0.247094988822937,0.283136039972305
0,0.615277791437408,0.0625000010308258,0.96666670854283,-0.454789161682129,-0.466701060533524,0.33841934800148
0,0.513888927079148,0.0652777787193518,0.870833363093728,-0.415082931518555,-0.392175495624542,0.32742378115654
0,0.4194444735133,0.0416666683668809,0.794444455386325,-0.349720358848572,-0.266031801700592,0.293215304613113
0,0.351388892793493,0.029166668768514,0.718055596302781,-0.145080491900444,-0.159435823559761,0.211053937673569
0,0.308333341660331,0.0222222230277034,0.647222256128395,0.107817716896534,-0.105374254286289,0.146913096308708
0,0.280555576931036,0.0125000003581147,0.615277791437408,0.4331034719944,0.0369573459029198,0.096211276948452
0,0.294444447139719,0.0180555564949145,0.634722229179108,0.621555387973785,0.154548913240433,0.0858265683054924
0,0.368055571080613,0.0152777788063885,0.690277807261557,0.541532039642334,0.150578290224075,0.145385921001434
0,0.424999992422458,0.00277777787846293,0.788888936477167,0.440128415822983,0.163101017475128,0.255036234855652
0,0.490277813687686,0.00277777787846293,0.854166660494678,0.298407673835754,0.287106662988663,0.353996396064758
0,0.490277813687686,0.00277777787846293,0.854166660494678,0.222660377621651,0.435241490602493,0.409890592098236
0,0.559722261978817,0.0194444453391775,0.934722292475701,0.201585531234741,0.351858377456665,0.431270867586136
0,0.5930555699292,0.0180555564949145,0.958333357243305,0.200974673032761,0.155770644545555,0.409890592098236
0,0.588888894279438,0.0222222230277034,1.02083339474202,0.239153742790222,0.000610865245107561,0.405309081077576
0,0.56666667277123,0.03194444645704,1.05694448645892,0.29107728600502,-0.119118720293045,0.39125919342041
0,0.536111148587356,0.0458333348996699,1.06527783775844,0.323453158140182,-0.00794124789535999,0.393091797828674
0,0.522222229754814,0.0513888902767219,1.04166667574312,0.332005262374878,0.00519235478714108,0.433714330196381
0,0.50138890012986,0.052777782159976,0.963888924776322,0.409585148096085,-0.0925460830330849,0.451123982667923
0,0.476388894855144,0.055555559848502,0.92083337364316,0.467617332935333,-0.133779495954514,0.451734840869904
0,0.46527780841297,0.0777777813567098,0.930555616825939,0.423329621553421,-0.0888808965682983,0.466701060533524
0,0.459722240879953,0.0819444448505077,0.95000000594378,0.395840674638748,-0.0348193198442459,0.47647488117218
0,0.455555565230191,0.0833333367337618,0.931944508709193,0.427605658769607,-0.0974330082535744,0.500909507274628
0,0.423611149163062,0.0944444474878658,0.909722238577127,0.457232624292374,-0.110261179506779,0.641713917255402
0,0.380555573717971,0.0972222251763917,0.884722281926269,0.524122357368469,-0.0757472887635231,0.645073711872101
0,0.381944465601225,0.104166672436698,0.913888914226889,0.528398454189301,-0.070249505341053,0.591928422451019
0,0.433333343721983,0.0916666697993398,0.93750007624221,0.471282541751862,-0.170125976204872,0.513737678527832
0,0.454166673346937,0.0777777813567098,0.909722238577127,0.363464832305908,-0.30757063627243,0.503047525882721
0,0.455555565230191,0.0708333340964038,0.873611146860236,0.339335650205612,-0.415999233722687,0.462424993515015
0,0.443055586904762,0.0680555564078778,0.830555595727074,0.309708684682846,-0.352774679660797,0.381485342979431
0,0.458333348996699,0.0763888894734557,0.815277785011279,0.151800006628036,-0.0534507073462009,0.263588339090347
0,0.504166683896369,0.0847222225390337,0.837500055143345,0.0149661982432008,0.129503428936005,0.129197999835014
0,0.483333354271415,0.101388894748172,0.863888903677457,-0.0733038261532784,0.366519153118133,0.16890424489975
0,0.430555559955475,0.118055554801345,0.87500003874349,0.0473420582711697,0.799011766910553,0.202807262539864
0,0.400000011459671,0.0875000002275597,0.852777768611424,0.19578230381012,1.08275866508484,0.246484130620956
0,0.430555559955475,0.0125000003581147,0.733333358394718,-0.120035022497177,-0.659429013729095,0.682336449623108
0,0.430555559955475,0.0194444453391775,0.695833374794573,-0.387899428606033,-2.23332333564758,0.916603326797485
0,0.488888921804431,0.0875000002275597,0.902777779160856,-0.0161879286170006,-0.602313160896301,0.612086951732635
0,0.534722256704101,0.0972222251763917,0.925000049292922,0.0494800843298435,0.156381502747536,0.516486585140228
0,0.487500029921177,0.118055554801345,1.02500007039179,0.0311541277915239,0.938594460487366,0.657596409320831
0,0.481944462388161,0.106944444047242,1.00833336779274,0.05283984541893,0.961807310581207,0.664926826953888
0,0.461111132763207,0.0847222225390337,0.991666665193688,0.399811297655106,0.621860802173615,0.68630713224411
0,0.434722235605237,0.0763888894734557,0.902777779160856,0.680809319019318,0.135917514562607,0.800233483314514
0,0.368055571080613,0.0750000036681839,0.737500034044481,0.325285732746124,-0.15332718193531,1.10047376155853
0,0.397222227693163,0.0680555564078778,0.680555564078778,-0.289550125598908,0.000610865245107561,1.33535146713257
0,0.479166678621653,0.0236111118719664,0.791666671619817,-0.464563012123108,0.00519235478714108,1.36986529827118
0,0.526388905404577,-0.0166666676506515,0.876388930626744,-0.226020142436027,-0.36041048169136,1.35459363460541
0,0.487500029921177,-0.029166668768514,0.85138887672817,0.0219911485910416,-0.581543684005737,1.38391518592834
0,0.431944451838729,-0.0125000003581147,0.781944477060896,-0.121256753802299,-0.493579119443893,1.52807939052582
0,0.433333343721983,-0.00555555575692586,0.737500034044481,-0.48197266459465,-0.172263994812965,1.6279559135437
0,0.473611111088636,-0.0222222230277034,0.769444450111609,-0.484416127204895,0.0901026204228401,1.63436996936798
0,0.469444484062732,-0.055555559848502,0.872222254976982,-0.366213709115982,-0.209221348166466,1.77181458473206
0,0.498611116363352,-0.0916666697993398,0.886111173809523,-0.178983509540558,-0.591012120246887,1.80266332626343
0,0.568055564654484,-0.152777778946911,0.825000028194058,-0.273667633533478,-0.735481739044189,1.6423112154007
0,0.675000045169619,-0.206944452990142,0.804166698569104,-0.501520395278931,-0.606283783912659,1.38849675655365
0,0.775000017644626,-0.272222225631511,0.881944498159761,-0.436463207006455,-0.466090172529221,1.04427409172058
0,0.790277828360421,-0.354166676560001,0.70416667747024,-0.409585148096085,1.26815629005432,0.308792382478714
0,0.666666693870094,-0.400000011459671,0.844444514559616,-0.240986332297325,-0.0928515195846558,0.164322748780251
0,0.709722245003256,-0.406944470875941,0.863888903677457,0.306043475866318,-0.613308727741241,0.0937678143382072
0,0.725000007095193,-0.336111130701556,0.869444471210474,0.811229050159454,-0.475558578968048,0.264504641294479
0,0.743055601577497,-0.354166676560001,0.758333363669434,1.12582468986511,-0.138055548071861,1.49478721618652
0,0.700000001820477,-0.352777784676747,0.695833374794573,1.00273525714874,-0.535728812217712,2.22324395179748
0,0.654166666920807,-0.308333341660331,0.673611153286365,0.50182580947876,-1.65300130844116,2.27150249481201
0,0.68472223972854,-0.377777789951463,0.654166666920807,-0.453262001276016,-3.08395314216614,2.30296206474304
0,0.709722245003256,-0.397222227693163,0.591666678045946,-1.23364233970642,-4.33103466033936,2.31487393379211
0,0.788888936477167,-0.397222227693163,0.479166678621653,-1.63162112236023,-5.73113775253296,2.10809588432312
0,0.786111152710659,-0.350000000910239,0.452777781463682,-1.60871362686157,-7.1095552444458,1.87413454055786
0,0.695833374794573,-0.373611114301701,0.576388915954009,-1.52319252490997,-7.1373496055603,1.82587623596191
0,0.722222271952543,-0.518055554105052,0.663888910103586,-1.95049273967743,-6.0173282623291,1.6435329914093
0,0.798611131036088,-0.677777780312269,0.570833348420992,-2.12397837638855,-4.74520111083984,1.73577356338501
0,0.916666697993398,-0.613888899554154,0.295833339022973,-2.13191962242127,-4.39059400558472,1.65697193145752
0,0.909722238577127,-0.522222229754814,0.159722226207217,-2.66520500183106,-5.06101846694946,1.54396188259125
0,0.909722238577127,-0.522222229754814,0.159722226207217,-2.82219743728638,-5.32155275344849,1.08947813510895
0,0.629166710269949,-0.522222229754814,0.265277790527169,-2.51493215560913,-4.00025129318237,0.480140089988708
0,0.666666693870094,-0.523611121638068,0.113888891307548,-2.42116451263428,-2.91932511329651,0.921490252017975
0,0.720833380069289,-0.533333364820847,-0.0972222251763917,-2.42360782623291,-3.28676056861877,1.25441181659699
0,0.726388898978447,-0.437500019371745,-0.12777778582816,-2.10381984710693,-3.14595603942871,0.992961466312408
0,0.640277796712124,-0.42916666807222,-0.16527778158427,-2.1035144329071,-1.26418566703796,0.0369573459029198
0,0.640277796712124,-0.42916666807222,-0.16527778158427,-2.26844811439514,0.860709130764008,0.131641462445259
0,0.606944488761742,-0.456944457113445,-0.500000008246606,-1.76081907749176,0.946535706520081,0.784350991249084
0,0.606944488761742,-0.456944457113445,-0.500000008246606,-1.42392683029175,0.356439858675003,1.11269104480743
0,0.738888925927735,-0.408333338447267,-0.50138890012986,-1.23730754852295,0.303294599056244,0.35430184006691
0,0.738888925927735,-0.408333338447267,-0.50138890012986,-0.153021737933159,1.08917272090912,-0.722348153591156
0,0.973611167959101,-0.548611126912784,-0.440277803138253,0.541226625442505,0.631023824214935,-0.614530444145203
0,0.880555606276507,-0.633333337295854,-0.656944450687316,0.202501833438873,-0.298407673835754,0.156686931848526
0,0.816666676894533,-0.595833353695709,-0.655555558804062,0.021685715764761,-0.363159388303757,-0.0522289797663689
0,0.752777796136418,-0.516666662221798,-0.633333337295854,-0.0400116741657257,-0.345749735832214,-0.541837453842163
0,0.906944454810619,-0.602777813111979,-0.538888932353864,0.18509216606617,-0.502742111682892,-0.523206055164337
0,0.947222222177272,-0.650000039894903,-0.487500029921177,1.00059723854065,0.204028993844986,-0.387593984603882
0,0.930555616825939,-0.625000034620187,-0.195833342236038,1.32557761669159,1.06870877742767,-0.527482151985168
0,0.838888947026599,-0.584722267253534,-0.304166666010569,1.13712561130524,0.661567032337189,-1.12521374225616
0,0.911111130460381,-0.555555586329055,-0.384722225055805,0.813977956771851,0.616363048553467,-1.36772727966309
0,0.972222276075846,-0.570833348420992,-0.336111130701556,0.866817772388458,0.602923989295959,-1.22050881385803
0,1.14027780495873,-0.666666693870094,-0.406944470875941,1.22234129905701,-1.42087256908417,-0.0494800843298435
0,1.03194452980806,-0.606944488761742,-0.351388892793493,0.652709543704987,-0.218995183706284,-1.1001683473587
0,0.881944498159761,-0.422222257279808,-0.372222246730376,-0.0400116741657257,0.253814518451691,-2.33991932868958
0,0.786111152710659,-0.338888890156135,-0.375000006184955,0.299018532037735,0.618806481361389,-2.78218579292297
0,0.933333400592447,-0.322222236180943,-0.376388898068209,0.178983509540558,1.41415309906006,-2.63710522651672
0,0.94305554652751,-0.379166681834717,-0.377777789951463,0.207694187760353,1.6456710100174,-2.63374543190002
0,0.797222239152834,-0.82222224442755,-0.498611116363352,-0.255952537059784,0.817643105983734,-0.641713917255402
0,0.95000000594378,-0.431944451838729,-0.318055560531181,-0.305738061666489,0.293826192617416,-0.413861215114594
0,0.938888968125464,-0.462500024646461,-0.180555567988136,-0.164628177881241,-0.486554175615311,-0.641408503055573
0,0.863888903677457,-0.375000006184955,-0.241666677135707,-0.119729585945606,-0.918130457401276,-0.633467257022858
0,0.695833374794573,-0.272222225631511,-0.301388906555989,-0.25961771607399,-0.740368664264679,-0.498160600662232
0,0.743055601577497,-0.269444466176932,-0.316666668647927,-0.548862397670746,-1.00578963756561,-0.75594574213028
0,0.962500032893068,-0.18333333959868,-0.233333350148112,-0.0247400421649218,-0.547640681266785,-1.14873206615448
0,1.08888890252604,-0.154166670830166,-0.427777776188966,0.0332921557128429,-0.198836639523506,-0.272751331329346
0,1.15416672379127,-0.29166668768514,-0.430555559955475,-0.0830776765942574,-0.477085769176483,-0.804509520530701
0,0.987499989543926,-0.198611113846581,-0.479166678621653,-0.00702495034784079,-0.0714712366461754,-0.835663676261902
0,0.969444492309338,-0.238888893369199,-0.463888916529715,-0.0937678143382072,0.337197601795196,-0.750142514705658
0,0.969444492309338,-0.238888893369199,-0.463888916529715,0.181121543049812,1.00976026058197,-0.49235737323761
0,0.962500032893068,-0.133333341205212,-0.525000013521323,0.160657554864883,1.6557502746582,-0.0452040284872055
0,0.962500032893068,-0.133333341205212,-0.525000013521323,0.0861319974064827,1.0256427526474,-0.292299032211304
0,0.962500032893068,-0.133333341205212,-0.525000013521323,-0.0632245540618896,0.154243469238281,-0.413861215114594
0,0.962500032893068,-0.133333341205212,-0.525000013521323,-0.102930791676045,-0.386066824197769,-0.193033412098885
0,0.85138887672817,-0.140277788465518,-0.286111120152123,-0.390037447214127,-0.653320372104645,-0.166460782289505
0,0.85138887672817,-0.140277788465518,-0.286111120152123,-0.308792382478714,-0.303905457258224,-0.389732033014297
0,0.906944454810619,-0.202777789496344,-0.358333352209763,-0.423329621553421,-0.231212496757507,-0.60261857509613
0,0.994444448960196,-0.190277786858986,-0.370833354847121,-0.320398807525635,0.39064833521843,-0.195476874709129
0,0.994444448960196,-0.190277786858986,-0.370833354847121,0.0803287774324417,-0.430965423583984,-0.705549359321594
0,1.0333333244436,-0.256944463539574,-0.304166666010569,0.0940732508897781,0.264810085296631,-0.769995629787445
0,1.0333333244436,-0.256944463539574,-0.304166666010569,0.0473420582711697,1.41323673725128,-0.827416956424713
0,0.970833384192592,-0.1194444466846,-0.411111122213775,-0.0198531206697226,1.41476392745972,-0.3378084897995
0,0.970833384192592,-0.1194444466846,-0.411111122213775,-0.0342084541916847,0.844215750694275,-0.274278491735458
0,1.04583335139288,-0.0750000036681839,-0.277777793164528,-0.000305432622553781,0.287412106990814,0.0748309940099716
0,1.08750001064279,-0.0930555616825939,-0.24583335278547,-0.0171042270958424,0.0519235469400883,0.0836885422468185
0,1.05555559457566,-0.0472222237439329,-0.134722233088466,0.0183259565383196,-0.921184778213501,0.161879286170006
0,1.05555559457566,-0.0472222237439329,-0.134722233088466,0.106901414692402,2.77943682670593,-0.0400116741657257
0,0.934722292475701,-0.00277777787846293,-0.600000029345471,-0.00946841109544039,1.66582953929901,0.0882700309157372
0,0.930555616825939,-0.0652777787193518,0.0750000036681839,0.0497855171561241,0.0287106670439243,-0.0140499006956816
0,0.98888888142718,-0.0916666697993398,-0.204166669223633,0.0244346093386412,0.17409659922123,0.00977384392172098
0,0.991666665193688,-0.101388894748172,-0.206944452990142,0.0180205255746841,0.0763581544160843,0.0171042270958424
0,0.991666665193688,-0.101388894748172,-0.206944452990142,-0.0323758572340012,-0.0412334054708481,0.0122173046693206
0,1.0125000434425,-0.120833338567854,-0.184722231481934,-0.0277943685650826,-0.18539759516716,0.0131336031481624
0,1.0125000434425,-0.120833338567854,-0.184722231481934,0.0311541277915239,-0.21135938167572,0.0219911485910416
0,1.00972225967599,-0.118055554801345,-0.220833347510754,0.0436768643558025,-0.10048733651638,0.0299323964864016
0,1.00972225967599,-0.118055554801345,-0.220833347510754,0.0491746515035629,0.102014496922493,0.0397062413394451
0,1.00277780025972,-0.112499999424294,-0.238888893369199,0.0497855171561241,0.148745685815811,0.03176499158144
0,1.00277780025972,-0.112499999424294,-0.238888893369199,0.0308486949652433,0.295353353023529,0.0232128798961639
0,1.01111115155925,-0.116666675074056,-0.237500001485945,0.0280998013913631,0.331394404172897,0.0332921557128429
0,1.00416669214298,-0.118055554801345,-0.18333333959868,-0.0500909499824047,0.171653136610985,0.00733038317412138
0,1.00416669214298,-0.118055554801345,-0.18333333959868,-0.194560587406159,0.405919969081879,0.00610865233466029
0,1.0125000434425,-0.116666675074056,-0.170833336961321,-0.0323758572340012,0.165239050984383,0.00244346098043024
0,1.06250005399193,-0.154166670830166,-0.148611115453114,0.0681114718317986,-0.291382730007172,-0.0143553335219622
0,1.06250005399193,-0.154166670830166,-0.148611115453114,-0.0287106670439243,-0.15332718193531,0.0045814891345799
0,1.0125000434425,-0.115277783190802,-0.251388896006557,-0.0100792767480016,-0.0381790772080422,0.0198531206697226
0,0.956944465360051,-0.130555557438704,-0.244444460902216,-0.0650571510195732,0.164933621883392,-0.0277943685650826
0,0.931944508709193,-0.112499999424294,-0.206944452990142,-0.0717766657471657,0.0821613743901253,-0.0161879286170006
0,0.931944508709193,-0.112499999424294,-0.206944452990142,0.0766635909676552,-0.146302223205566,0.3378084897995
0,0.894444525109048,-0.12777778582816,-0.172222228844576,0.120645888149738,-0.329867243766785,0.224798411130905
0,1.00138890837647,-0.150000007336368,-0.234722242031366,0.142026171088219,-0.252898216247559,0.304210901260376
0,1.00138890837647,-0.150000007336368,-0.234722242031366,0.207999616861343,-0.0757472887635231,0.685390830039978
0,0.863888903677457,-0.100000002864918,-0.256944463539574,0.146607652306557,-0.0934623852372169,1.01373088359833
0,0.959722249126559,-0.170833336961321,-0.236111109602691,0.145080491900444,0.0901026204228401,0.570548117160797
0,1.09861114570882,-0.206944452990142,-0.266666682410424,0.070249505341053,0.321009695529938,0.250760197639465
0,1.07222229717471,-0.186111123365188,-0.250000004123303,-0.00580321997404099,0.629802048206329,0.0852157026529312
0,1.11250006454136,-0.169444445078067,-0.222222239394008,-0.0723875313997269,0.457232624292374,0.125532805919647
0,1.13194445365921,-0.200000005729836,-0.190277786858986,-0.0729983970522881,0.372627794742584,-0.058643065392971
0,1.04861113515939,-0.188888894975731,-0.181944447715425,-0.0308486949652433,0.361326783895493,-0.136222943663597
0,1.02500007039179,-0.180555567988136,-0.170833336961321,-0.0577267669141293,0.178678080439568,-0.0778853222727776
0,1.02500007039179,-0.180555567988136,-0.170833336961321,0.0351247526705265,0.157908663153648,-0.133168622851372
0,1.01527782720901,-0.184722231481934,-0.138888896582264,-0.02382374368608,0.0543670058250427,-0.0717766657471657
5,1.00555558402623,-0.181944447715425,-0.158333334323963,-0.00794124789535999,0.0745255574584007,-0.0473420582711697
5,1.00555558402623,-0.181944447715425,-0.158333334323963,0.0290160998702049,0.0604756586253643,-0.0149661982432008
5,1.00555558402623,-0.181944447715425,-0.158333334323963,0.0354301854968071,0.131641462445259,-0.0470366254448891
5,1.00555558402623,-0.181944447715425,-0.158333334323963,0.0100792767480016,0.139277279376984,-0.0842994004487991
5,1.01111115155925,-0.17361112072783,-0.172222228844576,-0.0409279726445675,0.0968221426010132,-0.0968221426010132
5,1.01527782720901,-0.17361112072783,-0.154166670830166,0.0198531206697226,0.172263994812965,-0.0855211317539215
5,1.01944450285877,-0.166666673467524,-0.161111118090472,0.0943786799907684,0.191200822591782,-0.0766635909676552
5,1.01944450285877,-0.166666673467524,-0.161111118090472,0.131336033344269,0.189979091286659,0.01191187184304
5,1.00972225967599,-0.166666673467524,-0.148611115453114,0.00488692196086049,0.172569438815117,0.0372627787292004
5,0.99583334084345,-0.17361112072783,-0.12777778582816,-0.0259617734700441,0.173791155219078,0.0665843114256859
5,0.99583334084345,-0.17361112072783,-0.12777778582816,-0.01191187184304,0.164322748780251,0.0934623852372169
5,1.01805561097552,-0.179166676104882,-0.0777777813567098,-0.027488935738802,0.111482910811901,0.131030589342117
5,1.01805561097552,-0.179166676104882,-0.0777777813567098,0.0204639863222837,-0.51434850692749,0.114842668175697
5,0.98888888142718,-0.162500009973726,-0.0819444448505077,0.159435823559761,-0.927598893642426,-0.000610865245107561
5,0.98888888142718,-0.162500009973726,-0.0819444448505077,0.263282924890518,-0.966999709606171,-0.0430659987032413
5,1.02777785415829,-0.176388892338373,-0.365277787314105,-0.344527989625931,1.67865765094757,-0.0433714315295219
5,0.983333411141879,-0.166666673467524,-0.144444451959316,-0.0164933614432812,0.11087204515934,0.0213802829384804
5,0.983333411141879,-0.166666673467524,-0.144444451959316,0.00641408516094089,-0.0403171069920063,0.00855211354792118
5,0.98888888142718,-0.158333334323963,-0.122222230451108,-0.13225232064724,-0.270918726921081,0.0662788823246956
5,0.98888888142718,-0.158333334323963,-0.122222230451108,-0.0705549344420433,-0.164628177881241,0.0339030213654041
5,0.98888888142718,-0.158333334323963,-0.122222230451108,-0.0161879286170006,-0.104763388633728,-0.000610865245107561
5,0.98888888142718,-0.158333334323963,-0.122222230451108,-0.00702495034784079,-0.0687223374843597,0.0106901414692402
5,1.01527782720901,-0.172222228844576,-0.186111123365188,-0.00366519158706069,-0.0494800843298435,0.0113010071218014
5,1.01527782720901,-0.172222228844576,-0.186111123365188,0.01191187184304,-0.0378736443817616,0.00702495034784079
5,1.0125000434425,-0.176388892338373,-0.17361112072783,0.00610865233466029,-0.0394008085131645,0.0045814891345799
5,1.0125000434425,-0.176388892338373,-0.17361112072783,0.0027488935738802,-0.01588249579072,0.0161879286170006
5,1.00833336779274,-0.166666673467524,-0.18333333959868,-0.0106901414692402,-0.00610865233466029,0.00977384392172098
5,1.01527782720901,-0.175000000455119,-0.193055558469529,-0.00671951752156019,0.0690277740359306,0.0186313893646002
5,1.01527782720901,-0.175000000455119,-0.193055558469529,0.00152716308366507,0.0647517144680023,0.0146607663482428
5,1.00555558402623,-0.162500009973726,-0.18333333959868,-0.0177150927484035,0.00671951752156019,0.0100792767480016
5,1.00277780025972,-0.166666673467524,-0.161111118090472,-0.0222965814173222,-0.0424551330506802,0.0204639863222837
5,1.00694447590948,-0.177777784221628,-0.161111118090472,-0.02382374368608,-0.0540615729987621,0.00916297826915979
5,1.00694447590948,-0.177777784221628,-0.161111118090472,-0.0357356183230877,-0.0595593601465225,-0.013744467869401
5,1.01944450285877,-0.190277786858986,-0.17361112072783,-0.0268780700862408,0.0448985956609249,-0.0268780700862408
5,1.04861113515939,-0.187500003092477,-0.197222234119292,-0.0235183127224445,0.149051114916802,-0.0531452745199203
5,1.04861113515939,-0.187500003092477,-0.197222234119292,0.000305432622553781,-0.119729585945606,-0.076052725315094
5,1.04861113515939,-0.187500003092477,-0.197222234119292,0.0565050356090069,-0.0277943685650826,0.019547687843442
5,1.00138890837647,-0.168055565350778,-0.180555567988136,0.0729983970522881,-0.0033597587607801,0.0613919571042061
5,1.01666671909226,-0.19166667874224,-0.18333333959868,-0.0280998013913631,0.0244346093386412,-0.00977384392172098
5,0.986111194908388,-0.186111123365188,-0.144444451959316,0.00794124789535999,0.00641408516094089,0.00397062394768
5,1.01666671909226,-0.200000005729836,-0.162500009973726,0.117286130785942,-0.00671951752156019,0.112093769013882
5,1.0361111082101,-0.202777789496344,-0.204166669223633,-0.0122173046693206,0.0882700309157372,-0.01191187184304
5,1.0361111082101,-0.202777789496344,-0.204166669223633,-0.0244346093386412,0.0229074470698834,-0.0507018156349659
5,1.00972225967599,-0.17361112072783,-0.161111118090472,0.0638354197144508,0.0424551330506802,-0.017409659922123
5,1.00694447590948,-0.17361112072783,-0.163888889701015,0.0714712366461754,-0.00549778714776039,-0.00519235478714108
5,1.00694447590948,-0.17361112072783,-0.163888889701015,0.0720821022987366,-0.0522289797663689,0.00519235478714108
5,0.997222232726705,-0.16527778158427,-0.163888889701015,0.107206851243973,-0.0653625801205635,0.03176499158144
5,1.00694447590948,-0.176388892338373,-0.177777784221628,0.0494800843298435,-0.0592539273202419,-0.0192422550171614
5,1.00694447590948,-0.176388892338373,-0.177777784221628,0.0534507073462009,-0.0314595587551594,-0.0100792767480016
5,1.01527782720901,-0.17361112072783,-0.17361112072783,0.0577267669141293,0.0226020142436027,0.00122173049021512
5,1.0125000434425,-0.17361112072783,-0.175000000455119,0.0497855171561241,0.0323758572340012,0.00305432616733015
5,1.0125000434425,-0.17361112072783,-0.175000000455119,0.0277943685650826,0.0192422550171614,0.00580321997404099
5,1.00972225967599,-0.16527778158427,-0.166666673467524,0.00488692196086049,0.00549778714776039,0.0033597587607801
5,1.00555558402623,-0.166666673467524,-0.166666673467524,-0.0131336031481624,-0.0033597587607801,-0.00549778714776039
5,1.00555558402623,-0.172222228844576,-0.158333334323963,-0.0189368221908808,-0.0265726372599602,-0.0045814891345799
5,0.994444448960196,-0.18333333959868,-0.159722226207217,-0.0192422550171614,-0.00794124789535999,-0.00580321997404099
5,1.00555558402623,-0.180555567988136,-0.170833336961321,-0.00641408516094089,0.000610865245107561,0.0122173046693206
5,1.00138890837647,-0.176388892338373,-0.180555567988136,-0.0372627787292004,-0.0348193198442459,0.0293215326964855
5,0.997222232726705,-0.170833336961321,-0.166666673467524,-0.0421497002243996,-0.108123145997524,0.0369573459029198
5,0.968055600426084,-0.14722222356986,-0.14722222356986,0.0167987942695618,-0.0916297882795334,0.0580321997404099
5,1.00972225967599,-0.17361112072783,-0.184722231481934,0.175318330526352,0.109344877302647,0.0516181141138077
5,1.03888889197661,-0.187500003092477,-0.168055565350778,0.0250454749912024,0.0461203269660473,0.0488692186772823
5,1.01388893532575,-0.17361112072783,-0.163888889701015,0.0198531206697226,-0.0791070461273193,0.0287106670439243
5,0.998611124609959,-0.179166676104882,-0.156944454596674,-0.013744467869401,-0.201890960335732,0.0262672062963247
5,1.00833336779274,-0.184722231481934,-0.197222234119292,0.0421497002243996,-0.0656680166721344,0.0366519130766392
5,1.00833336779274,-0.198611113846581,-0.187500003092477,0.0201585534960032,-0.0204639863222837,0.0427605658769607
5,1.00138890837647,-0.205555561106887,-0.176388892338373,0.114537231624126,-0.0659734457731247,0.05283984541893
5,0.998611124609959,-0.20972223675665,-0.177777784221628,0.117286130785942,-0.00519235478714108,0.0855211317539215
5,1.00833336779274,-0.208333344873396,-0.184722231481934,0.0546724386513233,0.0455094613134861,0.0610865242779255
5,1.01111115155925,-0.204166669223633,-0.154166670830166,0.0305432621389627,0.064446285367012,0.0284052342176437
5,1.0125000434425,-0.188888894975731,-0.161111118090472,-0.163101017475128,0.0415388382971287,0.0210748501121998
5,0.993055557076942,-0.180555567988136,-0.116666675074056,0.0525344125926495,-0.0717766657471657,0.00733038317412138
5,1.00000001649321,-0.170833336961321,-0.166666673467524,0.0406225398182869,-0.0852157026529312,0.000610865245107561
5,1.00694447590948,-0.17361112072783,-0.176388892338373,0.0503963828086853,-0.0500909499824047,0.01191187184304
5,1.01527782720901,-0.17361112072783,-0.181944447715425,0.04764748737216,-0.000916297896765172,0.00549778714776039
5,1.00833336779274,-0.168055565350778,-0.176388892338373,0.0366519130766392,0.00855211354792118,0.0113010071218014
5,1.00972225967599,-0.0986111170596459,-0.188888894975731,-0.00397062394768,-0.0784961804747581,0.0381790772080422
5,1.04027778385987,-0.169444445078067,-0.223611131277262,-0.0870482996106148,-0.0146607663482428,0.0213802829384804
5,1.0361111082101,-0.172222228844576,-0.229166674498349,-0.219911485910416,0.0956004112958908,0.0284052342176437
5,1.02500007039179,-0.17361112072783,-0.200000005729836,-0.224187538027763,0.0766635909676552,0.0293215326964855
5,1.00555558402623,-0.172222228844576,-0.163888889701015,-0.113926365971565,0.00183259579353034,0.0784961804747581
5,0.998611124609959,-0.150000007336368,-0.161111118090472,0.0122173046693206,-0.0665843114256859,0.128281697630882
5,0.979166735492117,-0.159722226207217,-0.14722222356986,0.00977384392172098,-0.204028993844986,0.138360977172852
5,0.980555627375371,-0.187500003092477,-0.168055565350778,-0.0394008085131645,-0.238848313689232,0.08460483700037
5,0.99583334084345,-0.202777789496344,-0.188888894975731,-0.106290549039841,-0.149051114916802,0.0280998013913631
5,1.00833336779274,-0.20972223675665,-0.198611113846581,-0.120645888149738,-0.0513126812875271,0.000610865245107561
5,1.0361111082101,-0.215277779977737,-0.215277779977737,-0.0616973899304867,0.0956004112958908,-0.01191187184304
5,1.01805561097552,-0.193055558469529,-0.14583334384257,0.0378736443817616,0.0403171069920063,-0.0439822971820831
5,1.0361111082101,-0.195833342236038,-0.281944444502361,0.0513126812875271,-0.076052725315094,-0.0161879286170006
5,1.02916674604155,-0.220833347510754,-0.226388890731841,0.0442877300083637,0.0219911485910416,-0.0271835029125214
5,1.00000001649321,-0.190277786858986,-0.20972223675665,-0.0045814891345799,-0.0280998013913631,-0.0140499006956816
5,1.00972225967599,-0.180555567988136,-0.198611113846581,-0.00244346098043024,0.0513126812875271,-0.0100792767480016
5,1.00138890837647,-0.18333333959868,-0.176388892338373,-0.00763581553474069,0.0342084541916847,-0.00122173049021512
5,1.00277780025972,-0.170833336961321,-0.180555567988136,-0.0510072484612465,0.01588249579072,-0.00549778714776039
5,1.00277780025972,-0.168055565350778,-0.193055558469529,-0.0778853222727776,0.02382374368608,0.000916297896765172
5,0.99583334084345,-0.163888889701015,-0.193055558469529,-0.0772744566202164,0.0189368221908808,0.00122173049021512
5,1.00277780025972,-0.170833336961321,-0.188888894975731,-0.0913243517279625,0.0253509078174829,-0.00610865233466029
5,1.00000001649321,-0.172222228844576,-0.193055558469529,-0.101709060370922,0.0222965814173222,0.0033597587607801
5,1.00277780025972,-0.17361112072783,-0.186111123365188,-0.109955742955208,0.0262672062963247,0.00122173049021512
5,1.00277780025972,-0.176388892338373,-0.176388892338373,-0.113926365971565,0.0171042270958424,0.0222965814173222
5,0.997222232726705,-0.172222228844576,-0.190277786858986,-0.119424156844616,0.0180205255746841,0.00763581553474069
5,1.00000001649321,-0.176388892338373,-0.190277786858986,-0.125227376818657,0.0201585534960032,0.00580321997404099
5,1.00555558402623,-0.181944447715425,-0.194444450352783,-0.117896988987923,0.00488692196086049,0.0021380283869803
5,1.00555558402623,-0.181944447715425,-0.193055558469529,-0.111788339912891,0.00824668072164059,0.000916297896765172
5,1.00833336779274,-0.180555567988136,-0.20138889761309,-0.113620936870575,0.0152716310694814,-0.00152716308366507
5,1.00555558402623,-0.176388892338373,-0.193055558469529,-0.108428582549095,0.027488935738802,-0.0122173046693206
5,1.00416669214298,-0.176388892338373,-0.19166667874224,-0.096211276948452,0.0354301854968071,-0.0134390350431204
5,1.00694447590948,-0.175000000455119,-0.18333333959868,-0.103847093880177,0.0403171069920063,-0.00824668072164059
5,1.00416669214298,-0.17361112072783,-0.187500003092477,-0.104457959532738,0.0418442711234093,-0.0161879286170006
5,0.997222232726705,-0.170833336961321,-0.184722231481934,-0.116675265133381,0.0271835029125214,-0.0149661982432008
5,0.99583334084345,-0.170833336961321,-0.18333333959868,-0.116980694234371,0.0106901414692402,-0.0103847095742822
5,0.99583334084345,-0.17361112072783,-0.190277786858986,-0.112399205565453,-0.0149661982432008,-0.0021380283869803
5,0.99583334084345,-0.18333333959868,-0.190277786858986,-0.109650313854218,-0.0384845100343227,0.0113010071218014
5,0.990277773310434,-0.188888894975731,-0.181944447715425,-0.0977384373545647,-0.0412334054708481,0.0192422550171614
5,0.991666665193688,-0.190277786858986,-0.181944447715425,-0.0705549344420433,-0.0577267669141293,0.02382374368608
5,0.998611124609959,-0.197222234119292,-0.188888894975731,-0.0302378293126821,-0.0839939713478088,0.0152716310694814
5,1.0125000434425,-0.19166667874224,-0.202777789496344,-0.0671951770782471,-0.105374254286289,0.015577063895762
5,1.02638896227504,-0.190277786858986,-0.206944452990142,0.0497855171561241,-0.00855211354792118,0.0510072484612465
5,1.00555558402623,-0.216666671860991,-0.188888894975731,-0.0525344125926495,-0.0616973899304867,0.00977384392172098
5,1.00000001649321,-0.20972223675665,-0.205555561106887,-0.0262672062963247,-0.162184715270996,-0.00916297826915979
5,1.0125000434425,-0.187500003092477,-0.233333350148112,-0.000916297896765172,-0.029626963660121,-0.017409659922123
5,1.0125000434425,-0.175000000455119,-0.231944458264858,0.0235183127224445,0.015577063895762,-0.0323758572340012
5,1.00277780025972,-0.180555567988136,-0.2194444556275,0.0555887371301651,0.0244346093386412,-0.00427605677396059
5,1.00277780025972,-0.169444445078067,-0.222222239394008,-0.0045814891345799,0.0681114718317986,-0.0381790772080422
5,0.993055557076942,-0.14722222356986,-0.20972223675665,-0.0167987942695618,0.00580321997404099,-0.0244346093386412
5,1.00138890837647,-0.130555557438704,-0.216666671860991,-0.0351247526705265,-0.0409279726445675,-0.0146607663482428
5,1.00555558402623,-0.156944454596674,-0.223611131277262,-0.0442877300083637,-0.0345138870179653,0.00763581553474069
5,1.00277780025972,-0.18333333959868,-0.220833347510754,-0.136222943663597,-0.0629191175103188,0.0232128798961639
5,1.00555558402623,-0.190277786858986,-0.220833347510754,-0.152716308832169,-0.0534507073462009,0.0372627787292004
5,1.00694447590948,-0.186111123365188,-0.229166674498349,-0.110261179506779,0.0390953756868839,0.000305432622553781
5,0.98888888142718,-0.175000000455119,-0.20972223675665,-0.0650571510195732,0.0250454749912024,0.0271835029125214
5,0.98888888142718,-0.175000000455119,-0.20972223675665,-0.0952949747443199,-0.0299323964864016,0.0332921557128429
5,1.0125000434425,-0.184722231481934,-0.241666677135707,-0.212581098079681,-0.0592539273202419,-0.0314595587551594
5,1.00416669214298,-0.187500003092477,-0.24583335278547,-0.259923160076141,-0.0311541277915239,-0.0448985956609249
5,1.00416669214298,-0.187500003092477,-0.24583335278547,0.119729585945606,-0.0167987942695618,0.0797179117798805
5,1.00277780025972,-0.19166667874224,-0.25555557165632,-0.27000242471695,-0.0415388382971287,-0.0540615729987621
5,1.00000001649321,-0.187500003092477,-0.250000004123303,-0.0775798857212067,0.0207694191485643,-0.021685715764761
5,1.00000001649321,-0.187500003092477,-0.250000004123303,0.0412334054708481,0.0907134860754013,0.0259617734700441
5,1.00277780025972,-0.166666673467524,-0.229166674498349,0.191200822591782,0.0897971913218498,0.0152716310694814
5,0.99583334084345,-0.180555567988136,-0.213888888094483,0.021685715764761,0.0580321997404099,0.00855211354792118
5,0.963888924776322,-0.186111123365188,-0.208333344873396,-0.0852157026529312,-0.0742201283574104,0.0415388382971287
5,0.983333411141879,-0.187500003092477,-0.204166669223633,-0.277638256549835,-0.0775798857212067,-0.0122173046693206
5,0.99583334084345,-0.177777784221628,-0.176388892338373,-0.0949895456433296,-0.202196389436722,0.0183259565383196
5,1.00694447590948,-0.163888889701015,-0.216666671860991,0.178983509540558,-0.167987942695618,0.0531452745199203
5,1.00277780025972,-0.163888889701015,-0.238888893369199,0.343611687421799,-0.112399205565453,0.12705996632576
5,0.986111194908388,-0.17361112072783,-0.244444460902216,0.256257981061935,-0.160046696662903,0.118813291192055
5,1.0125000434425,-0.194444450352783,-0.220833347510754,0.149967417120934,-0.0940732508897781,0.0641408488154411
5,1.00555558402623,-0.176388892338373,-0.181944447715425,0.0284052342176437,-0.108123145997524,-0.000305432622553781
5,0.977777843608863,-0.17361112072783,-0.176388892338373,0.0662788823246956,-0.184786736965179,0.00946841109544039
5,0.981944519258625,-0.180555567988136,-0.206944452990142,0.106290549039841,-0.206777885556221,0.0384845100343227
5,1.0125000434425,-0.193055558469529,-0.226388890731841,0.195171445608139,-0.18509216606617,0.0525344125926495
5,1.01805561097552,-0.190277786858986,-0.229166674498349,0.212886542081833,-0.150272846221924,0.0103847095742822
5,1.0125000434425,-0.17361112072783,-0.234722242031366,0.130419731140137,-0.0641408488154411,-0.0131336031481624
5,0.98888888142718,-0.180555567988136,-0.224999998848587,0.0565050356090069,-0.0797179117798805,0.00152716308366507
5,0.979166735492117,-0.184722231481934,-0.236111109602691,0.00733038317412138,-0.125532805919647,0.0149661982432008
5,0.983333411141879,-0.197222234119292,-0.250000004123303,0.0232128798961639,-0.10567969083786,0.0384845100343227
5,1.00833336779274,-0.198611113846581,-0.254166679773066,0.0687223374843597,0.0122173046693206,0.0433714315295219
5,1.01527782720901,-0.197222234119292,-0.25555557165632,0.136833816766739,0.19028452038765,0.0305432621389627
5,1.01388893532575,-0.20138889761309,-0.234722242031366,0.193338856101036,0.209526777267456,0.0226020142436027
5,1.01944450285877,-0.197222234119292,-0.236111109602691,0.215330004692078,0.24342979490757,-0.00488692196086049
5,0.99583334084345,-0.193055558469529,-0.237500001485945,0.0888808965682983,0.205556154251099,-0.0647517144680023
5,0.991666665193688,-0.177777784221628,-0.213888888094483,-0.015577063895762,0.0192422550171614,-0.0678060427308083
5,0.998611124609959,-0.194444450352783,-0.216666671860991,-0.0235183127224445,0.0888808965682983,-0.0610865242779255
5,1.02916674604155,-0.175000000455119,-0.238888893369199,0.0949895456433296,-0.0888808965682983,-0.000916297896765172
5,1.00555558402623,-0.175000000455119,-0.25555557165632,0.0406225398182869,0.0244346093386412,0.0045814891345799
5,1.00555558402623,-0.17361112072783,-0.24583335278547,0.0516181141138077,0.0626136884093285,0.0229074470698834
5,1.00000001649321,-0.180555567988136,-0.230555566381603,0.0299323964864016,0.0482583530247212,-0.000305432622553781
5,0.993055557076942,-0.180555567988136,-0.226388890731841,0.027488935738802,0.0277943685650826,0.00519235478714108
5,0.993055557076942,-0.17361112072783,-0.2194444556275,0.00916297826915979,0.0232128798961639,0.00519235478714108
5,0.994444448960196,-0.180555567988136,-0.223611131277262,0.00122173049021512,0.0247400421649218,-0.000610865245107561
5,0.99583334084345,-0.180555567988136,-0.216666671860991,-0.0033597587607801,0.0204639863222837,0.00397062394768
5,0.994444448960196,-0.180555567988136,-0.233333350148112,-0.0244346093386412,0.0256563406437635,0.00549778714776039
5,0.998611124609959,-0.18333333959868,-0.233333350148112,-0.0192422550171614,0.0311541277915239,0.0100792767480016
5,0.998611124609959,-0.18333333959868,-0.233333350148112,-0.0226020142436027,0.0342084541916847,0.0226020142436027
5,1.00694447590948,-0.188888894975731,-0.211111128639904,-0.0244346093386412,0.0109955742955208,0.0262672062963247
5,1.00694447590948,-0.188888894975731,-0.211111128639904,-0.0424551330506802,0.0262672062963247,0.0287106670439243
5,0.991666665193688,-0.19166667874224,-0.216666671860991,-0.0525344125926495,-0.0189368221908808,0.0164933614432812
5,0.990277773310434,-0.184722231481934,-0.211111128639904,-0.0583376325666905,-0.0290160998702049,0.0366519130766392
5,0.979166735492117,-0.187500003092477,-0.2194444556275,-0.0479529201984406,-0.0922406539320946,0.0455094613134861
5,0.979166735492117,-0.187500003092477,-0.2194444556275,-0.0555887371301651,-0.00427605677396059,0.0323758572340012
5,1.00000001649321,-0.187500003092477,-0.240277785252453,-0.0959058403968811,-0.0339030213654041,0.0372627787292004
5,0.993055557076942,-0.194444450352783,-0.236111109602691,-0.0726929605007172,-0.01588249579072,0.029626963660121
5,1.00694447590948,-0.202777789496344,-0.226388890731841,-0.0387899428606033,0.0491746515035629,0.01191187184304
5,1.00000001649321,-0.202777789496344,-0.218055563744246,-0.0198531206697226,0.0546724386513233,-0.0033597587607801
5,1.00416669214298,-0.200000005729836,-0.216666671860991,-0.0314595587551594,0.0919352173805237,0.00152716308366507
5,0.987499989543926,-0.190277786858986,-0.220833347510754,0.000610865245107561,0.0442877300083637,0.013744467869401
5,0.984722303025134,-0.193055558469529,-0.223611131277262,0.00855211354792118,0.0106901414692402,0.0171042270958424
5,0.990277773310434,-0.20972223675665,-0.224999998848587,-0.013744467869401,0.0265726372599602,0.011606439948082
5,1.00000001649321,-0.213888888094483,-0.238888893369199,-0.0152716310694814,0.0519235469400883,0.00916297826915979
5,0.99583334084345,-0.218055563744246,-0.226388890731841,0.0259617734700441,-0.0128281703218818,0.00305432616733015
5,0.962500032893068,-0.223611131277262,-0.162500009973726,0.0589484944939613,-0.171653136610985,0.0161879286170006
5,0.984722303025134,-0.202777789496344,-0.241666677135707,-0.00366519158706069,0.0540615729987621,0.0033597587607801
5,0.987499989543926,-0.202777789496344,-0.2194444556275,-0.01191187184304,0.0213802829384804,0.00885754637420177
5,0.983333411141879,-0.198611113846581,-0.223611131277262,0.00305432616733015,-0.00427605677396059,0.00855211354792118
5,0.98888888142718,-0.205555561106887,-0.208333344873396,-0.0268780700862408,0.0128281703218818,0.017409659922123
5,0.993055557076942,-0.218055563744246,-0.195833342236038,0.0461203269660473,0.0033597587607801,0.00916297826915979
5,0.955555573476797,-0.238888893369199,-0.181944447715425,-0.0323758572340012,-0.0250454749912024,0.0488692186772823
5,0.986111194908388,-0.236111109602691,-0.186111123365188,0.0754418596625328,-0.0809396430850029,0.0241291765123606
5,1.00277780025972,-0.234722242031366,-0.2194444556275,0.0733038261532784,0.0977384373545647,0.00397062394768
5,0.99583334084345,-0.195833342236038,-0.218055563744246,0.0482583530247212,-0.027488935738802,-0.00244346098043024
5,0.976388951725609,-0.172222228844576,-0.175000000455119,0.08460483700037,-0.447153359651566,0.00427605677396059
5,1.00000001649321,-0.172222228844576,-0.308333341660331,-0.0626136884093285,0.0574213340878487,0.0149661982432008
5,1.02638896227504,-0.184722231481934,-0.275000009398019,-0.118507854640484,0.105068825185299,0.00305432616733015
5,1.00972225967599,-0.18333333959868,-0.279166685047782,-0.193644285202026,0.103541657328606,-0.00610865233466029
5,0.98888888142718,-0.202777789496344,-0.226388890731841,-0.158824965357781,0.00427605677396059,-0.00641408516094089
5,0.975000059842355,-0.202777789496344,-0.206944452990142,-0.101709060370922,-0.148745685815811,0.0122173046693206
5,0.976388951725609,-0.20138889761309,-0.204166669223633,-0.0662788823246956,-0.206777885556221,0.0259617734700441
5,0.993055557076942,-0.170833336961321,-0.237500001485945,-0.0879645943641663,-0.0125227374956012,0.029626963660121
5,1.00972225967599,-0.190277786858986,-0.290277795801886,-0.120951317250729,0.0742201283574104,0.0415388382971287
5,1.00972225967599,-0.197222234119292,-0.269444466176932,-0.130419731140137,0.115453533828259,0.0271835029125214
5,0.987499989543926,-0.197222234119292,-0.238888893369199,0.208915919065475,0.249843880534172,0.138971850275993
5,1.03472221632685,-0.187500003092477,-0.277777793164528,0.205861583352089,0.28496864438057,0.201890960335732
5,0.956944465360051,-0.187500003092477,-0.240277785252453,0.139277279376984,0.147523954510689,0.247400417923927
5,0.916666697993398,-0.188888894975731,-0.233333350148112,-0.0696386396884918,-0.139277279376984,0.195171445608139
5,0.925000049292922,-0.211111128639904,-0.193055558469529,-0.191811680793762,-0.24312436580658,0.160352125763893
5,0.983333411141879,-0.206944452990142,-0.202777789496344,-0.167682513594627,-0.157603234052658,0.150578290224075
5,1.00555558402623,-0.212499996211229,-0.216666671860991,-0.109039448201656,-0.0907134860754013,0.141415297985077
5,0.993055557076942,-0.220833347510754,-0.216666671860991,-0.0699440687894821,-0.141720741987228,0.120035022497177
5,1.00555558402623,-0.190277786858986,-0.19166667874224,-0.361326783895493,0.0021380283869803,0.0222965814173222
5,0.961111141009813,-0.169444445078067,-0.161111118090472,-0.233350530266762,-0.482888966798782,0.0626136884093285
5,1.0125000434425,-0.151388899219622,-0.305555557893823,-0.440739274024963,-0.503963828086853,0.0794124826788902
5,1.0333333244436,-0.20138889761309,-0.298611122789481,-0.276111096143722,-0.131336033344269,0.0983493030071259
5,1.06250005399193,-0.223611131277262,-0.259722222994153,-0.10567969083786,0.167377084493637,0.0800233483314514
5,1.03888889197661,-0.216666671860991,-0.259722222994153,-0.100792765617371,0.288939267396927,0.0100792767480016
5,1.03194452980806,-0.190277786858986,-0.250000004123303,0.125227376818657,0.410806864500046,0.0140499006956816
5,1.07916665934326,-0.211111128639904,-0.0388888906783549,0.0940732508897781,0.202807262539864,0.0864374339580536
5,0.925000049292922,-0.197222234119292,-0.25555557165632,-0.272751331329346,-0.096211276948452,0.0485637858510017
5,0.954166681593543,-0.197222234119292,-0.288888903918631,-0.268475264310837,-0.130725160241127,0.0320704244077206
5,0.993055557076942,-0.193055558469529,-0.2194444556275,-0.128892570734024,0.000610865245107561,0.0613919571042061
5,1.00277780025972,-0.202777789496344,-0.230555566381603,-0.0106901414692402,0.193949714303017,0.0320704244077206
5,1.00833336779274,-0.238888893369199,-0.233333350148112,-0.0122173046693206,0.229990765452385,-0.000305432622553781
5,0.986111194908388,-0.0763888894734557,-0.180555567988136,-0.01588249579072,-0.00671951752156019,0.0180205255746841
5,1.01111115155925,-0.179166676104882,-0.230555566381603,-0.0833831056952477,0.00855211354792118,-0.00763581553474069
5,1.0125000434425,-0.206944452990142,-0.262500006760661,-0.16371189057827,0.118507854640484,-0.0409279726445675
5,0.991666665193688,-0.240277785252453,-0.202777789496344,0.00794124789535999,0.110261179506779,0.0131336031481624
5,0.961111141009813,-0.261111114877407,-0.218055563744246,-0.0207694191485643,0.0180205255746841,-0.0384845100343227
5,0.940277860008718,-0.227777782615095,-0.2194444556275,-0.188757359981537,-0.150272846221924,-0.0739146918058395
5,0.965277816659576,-0.211111128639904,-0.190277786858986,-0.298713117837906,-0.403781920671463,-0.11117747426033
5,0.947222222177272,-0.212499996211229,-0.10972222781375,0.203112691640854,-1.23852932453155,-0.0033597587607801
5,0.976388951725609,-0.220833347510754,-0.238888893369199,0.248316720128059,-1.43156266212463,0.0219911485910416
5,1.0125000434425,-0.226388890731841,-0.377777789951463,0.0598647929728031,-0.901637077331543,-0.0229074470698834
5,0.98888888142718,-0.2194444556275,-0.311111125426839,-0.0879645943641663,-0.803593218326569,-0.128587126731873
5,0.948611114060526,-0.20972223675665,-0.322222236180943,0.0265726372599602,-0.811534464359283,-0.0943786799907684
5,0.940277860008718,-0.202777789496344,-0.368055571080613,0.0803287774324417,-0.551305890083313,-0.0503963828086853
5,0.961111141009813,-0.206944452990142,-0.377777789951463,0.0717766657471657,-0.35430184006691,-0.0534507073462009
5,0.959722249126559,-0.216666671860991,-0.380555573717971,0.140804439783096,-0.0479529201984406,0.0268780700862408
5,0.952777789710289,-0.230555566381603,-0.366666679197359,0.177761793136597,0.171347707509995,0.05283984541893
5,0.951388897827035,-0.224999998848587,-0.355555568443255,0.255341678857803,0.366519153118133,0.0256563406437635
5,0.965277816659576,-0.231944458264858,-0.347222241455659,0.229990765452385,0.545502662658691,0.0180205255746841
5,0.965277816659576,-0.233333350148112,-0.327777779402031,0.138666406273842,0.611476123332977,0.0180205255746841
5,0.952777789710289,-0.231944458264858,-0.319444452414435,0.135001212358475,0.654236674308777,0.0280998013913631
5,0.961111141009813,-0.236111109602691,-0.301388906555989,0.0671951770782471,0.618806481361389,-0.00794124789535999
5,0.986111194908388,-0.237500001485945,-0.283333336385615,0.156076073646545,0.737008929252625,-0.0580321997404099
5,0.976388951725609,-0.233333350148112,-0.237500001485945,0.0940732508897781,0.619111955165863,-0.111788339912891
5,0.981944519258625,-0.2194444556275,-0.251388896006557,0.0357356183230877,0.411723166704178,-0.113010071218014
5,0.976388951725609,-0.218055563744246,-0.261111114877407,0.0360410511493683,0.309708684682846,-0.0901026204228401
5,0.979166735492117,-0.204166669223633,-0.247222220356795,0.0253509078174829,0.176845490932465,-0.0635299831628799
5,0.977777843608863,-0.204166669223633,-0.262500006760661,0.0186313893646002,0.0983493030071259,-0.0650571510195732
5,0.990277773310434,-0.190277786858986,-0.238888893369199,0.0623082555830479,0.0916297882795334,-0.0678060427308083
5,0.987499989543926,-0.200000005729836,-0.240277785252453,0.0763581544160843,0.058643065392971,-0.0430659987032413
5,0.980555627375371,-0.202777789496344,-0.236111109602691,0.0827722400426865,0.037568211555481,-0.0372627787292004
5,0.993055557076942,-0.202777789496344,-0.254166679773066,0.0650571510195732,0.0207694191485643,-0.0516181141138077
5,0.99583334084345,-0.193055558469529,-0.251388896006557,0.107512280344963,0.0412334054708481,-0.0204639863222837
5,0.99583334084345,-0.193055558469529,-0.251388896006557,0.0647517144680023,0.0513126812875271,-0.021685715764761
5,0.99583334084345,-0.193055558469529,-0.251388896006557,0.0366519130766392,0.0461203269660473,-0.0293215326964855
5,0.987499989543926,-0.212499996211229,-0.250000004123303,0.0604756586253643,0.0626136884093285,-0.029626963660121
5,0.983333411141879,-0.206944452990142,-0.226388890731841,0.0565050356090069,0.0452040284872055,-0.015577063895762
5,0.983333411141879,-0.206944452990142,-0.226388890731841,0.0455094613134861,0.0613919571042061,-0.0198531206697226
5,0.986111194908388,-0.20138889761309,-0.243055569018962,0.0442877300083637,0.0494800843298435,-0.0125227374956012
5,0.987499989543926,-0.197222234119292,-0.230555566381603,0.0360410511493683,0.0342084541916847,-0.0241291765123606
5,0.987499989543926,-0.197222234119292,-0.230555566381603,0.0418442711234093,0.0250454749912024,-0.0262672062963247
5,0.993055557076942,-0.194444450352783,-0.233333350148112,0.0418442711234093,0.0262672062963247,-0.0207694191485643
5,0.98888888142718,-0.190277786858986,-0.229166674498349,0.0329867228865623,0.0226020142436027,-0.0180205255746841
5,0.98888888142718,-0.190277786858986,-0.229166674498349,0.0287106670439243,0.0161879286170006,-0.0164933614432812
5,0.990277773310434,-0.197222234119292,-0.229166674498349,0.0265726372599602,0.00824668072164059,-0.00855211354792118
5,0.99583334084345,-0.202777789496344,-0.226388890731841,0.0247400421649218,0.0122173046693206,-0.0146607663482428
5,0.993055557076942,-0.202777789496344,-0.2194444556275,0.0280998013913631,0.0131336031481624,-0.00305432616733015
5,0.994444448960196,-0.197222234119292,-0.226388890731841,0.0268780700862408,0.017409659922123,-0.0100792767480016
5,0.99583334084345,-0.193055558469529,-0.234722242031366,0.0287106670439243,0.0177150927484035,-0.0109955742955208
5,0.99583334084345,-0.197222234119292,-0.227777782615095,0.0164933614432812,0.0235183127224445,-0.0033597587607801
5,0.991666665193688,-0.187500003092477,-0.224999998848587,0.0045814891345799,-0.00427605677396059,-0.000916297896765172
5,0.990277773310434,-0.187500003092477,-0.233333350148112,-0.0033597587607801,0.000305432622553781,-0.00580321997404099
5,0.98888888142718,-0.187500003092477,-0.226388890731841,-0.00916297826915979,-0.0219911485910416,0.00702495034784079
5,0.98888888142718,-0.197222234119292,-0.223611131277262,-0.00152716308366507,-0.0164933614432812,0.00946841109544039
5,0.99583334084345,-0.200000005729836,-0.231944458264858,-0.00488692196086049,-0.0125227374956012,0.00152716308366507
5,0.993055557076942,-0.200000005729836,-0.224999998848587,-0.00122173049021512,-0.00977384392172098,0.00122173049021512
5,0.99583334084345,-0.200000005729836,-0.234722242031366,-0.00152716308366507,-0.00824668072164059,-0.00366519158706069
5,0.991666665193688,-0.202777789496344,-0.240277785252453,0.0033597587607801,-0.000305432622553781,-0.0033597587607801
5,0.990277773310434,-0.20138889761309,-0.236111109602691,-0.000305432622553781,-0.00855211354792118,0.00305432616733015
5,0.98888888142718,-0.205555561106887,-0.238888893369199,0.00427605677396059,-0.013744467869401,0.00641408516094089
5,0.990277773310434,-0.20138889761309,-0.230555566381603,0.0027488935738802,-0.0229074470698834,0.0122173046693206
5,0.993055557076942,-0.200000005729836,-0.229166674498349,0.000305432622553781,-0.0259617734700441,0.0198531206697226
5,0.987499989543926,-0.200000005729836,-0.233333350148112,0.00305432616733015,-0.0271835029125214,0.0152716310694814
5,0.98888888142718,-0.200000005729836,-0.229166674498349,0.00366519158706069,-0.0207694191485643,0.015577063895762
5,0.987499989543926,-0.198611113846581,-0.234722242031366,-0.00427605677396059,-0.027488935738802,0.0201585534960032
5,0.993055557076942,-0.20138889761309,-0.233333350148112,-0.00152716308366507,-0.021685715764761,0.0204639863222837
5,0.993055557076942,-0.204166669223633,-0.243055569018962,0.00305432616733015,-0.019547687843442,0.0241291765123606
5,0.991666665193688,-0.20972223675665,-0.234722242031366,0.00397062394768,-0.00763581553474069,0.0161879286170006
5,0.990277773310434,-0.213888888094483,-0.233333350148112,0.00977384392172098,-0.00824668072164059,0.0122173046693206
5,0.98888888142718,-0.213888888094483,-0.233333350148112,0.011606439948082,-0.013744467869401,0.00916297826915979
5,0.990277773310434,-0.215277779977737,-0.241666677135707,0.00610865233466029,-0.0021380283869803,0.0125227374956012
5,0.983333411141879,-0.208333344873396,-0.236111109602691,0.0125227374956012,-0.0146607663482428,0.00366519158706069
5,0.98888888142718,-0.204166669223633,-0.238888893369199,0.0113010071218014,-0.0152716310694814,0.00946841109544039
5,0.987499989543926,-0.202777789496344,-0.234722242031366,0.00977384392172098,-0.0201585534960032,0.0131336031481624
5,0.991666665193688,-0.202777789496344,-0.237500001485945,0.00183259579353034,-0.0284052342176437,0.0140499006956816
5,0.987499989543926,-0.202777789496344,-0.238888893369199,-0.00641408516094089,-0.0277943685650826,0.0247400421649218
5,0.990277773310434,-0.202777789496344,-0.24583335278547,-0.00549778714776039,-0.0232128798961639,0.01588249579072
5,0.984722303025134,-0.200000005729836,-0.240277785252453,-0.0106901414692402,-0.0262672062963247,0.0146607663482428
5,0.98888888142718,-0.200000005729836,-0.248611112240049,-0.0210748501121998,-0.0164933614432812,0.0109955742955208
5,0.991666665193688,-0.204166669223633,-0.243055569018962,-0.0320704244077206,-0.0201585534960032,0.0128281703218818
5,0.993055557076942,-0.200000005729836,-0.243055569018962,-0.0204639863222837,-0.0171042270958424,0.0131336031481624
5,0.993055557076942,-0.200000005729836,-0.238888893369199,-0.0271835029125214,-0.0222965814173222,0.00122173049021512
5,0.994444448960196,-0.20972223675665,-0.238888893369199,-0.0290160998702049,-0.0308486949652433,0.00549778714776039
5,0.991666665193688,-0.206944452990142,-0.231944458264858,-0.0229074470698834,-0.0369573459029198,0.00549778714776039
5,0.986111194908388,-0.200000005729836,-0.230555566381603,-0.0241291765123606,-0.04764748737216,0.00885754637420177
5,0.990277773310434,-0.20972223675665,-0.236111109602691,-0.0180205255746841,-0.0613919571042061,0.0164933614432812
5,0.993055557076942,-0.20138889761309,-0.226388890731841,-0.00366519158706069,-0.0635299831628799,0.0131336031481624
5,0.99583334084345,-0.204166669223633,-0.236111109602691,0.000305432622553781,-0.0577267669141293,0.00916297826915979
5,1.00138890837647,-0.200000005729836,-0.24583335278547,0.015577063895762,-0.0485637858510017,0.00702495034784079
5,0.99583334084345,-0.205555561106887,-0.238888893369199,0.0271835029125214,-0.0497855171561241,-0.00397062394768
5,1.00555558402623,-0.204166669223633,-0.243055569018962,0.0345138870179653,-0.0397062413394451,-0.0152716310694814
5,1.00972225967599,-0.205555561106887,-0.24583335278547,0.0390953756868839,-0.0152716310694814,-0.0381790772080422
5,1.00555558402623,-0.216666671860991,-0.247222220356795,0.0549778714776039,0.015577063895762,-0.0522289797663689
5,1.00833336779274,-0.218055563744246,-0.24583335278547,0.0546724386513233,0.0366519130766392,-0.0751364231109619
5,1.00416669214298,-0.212499996211229,-0.234722242031366,0.0705549344420433,0.0561996027827263,-0.0766635909676552
5,0.997222232726705,-0.216666671860991,-0.254166679773066,0.078801617026329,0.0571159012615681,-0.090408056974411
5,0.99583334084345,-0.20972223675665,-0.254166679773066,0.0812450796365738,0.0552833043038845,-0.105374254286289
5,0.986111194908388,-0.195833342236038,-0.243055569018962,0.0852157026529312,0.0436768643558025,-0.109650313854218
5,0.981944519258625,-0.20138889761309,-0.251388896006557,0.0775798857212067,0.0268780700862408,-0.107512280344963
5,0.976388951725609,-0.190277786858986,-0.252777787889811,0.0821613743901253,0.0280998013913631,-0.110566608607769
5,0.976388951725609,-0.184722231481934,-0.256944463539574,0.0815505087375641,0.0329867228865623,-0.0919352173805237
5,0.979166735492117,-0.181944447715425,-0.261111114877407,0.0766635909676552,0.0244346093386412,-0.0800233483314514
5,0.975000059842355,-0.166666673467524,-0.258333331110899,0.0580321997404099,0.0232128798961639,-0.0467311926186085
5,0.975000059842355,-0.156944454596674,-0.25555557165632,0.0311541277915239,0.017409659922123,-0.0439822971820831
5,0.986111194908388,-0.156944454596674,-0.248611112240049,-0.00549778714776039,0.0021380283869803,-0.0290160998702049
5,0.993055557076942,-0.161111118090472,-0.25555557165632,-0.029626963660121,-0.00671951752156019,-0.015577063895762
5,0.99583334084345,-0.16527778158427,-0.254166679773066,-0.0623082555830479,0.00488692196086049,-0.0131336031481624
5,0.99583334084345,-0.180555567988136,-0.259722222994153,-0.0794124826788902,0.00580321997404099,-0.0262672062963247
5,1.00000001649321,-0.184722231481934,-0.265277790527169,-0.096211276948452,0.011606439948082,-0.0229074470698834
5,1.00416669214298,-0.193055558469529,-0.250000004123303,-0.0974330082535744,0.01191187184304,-0.0351247526705265
5,0.998611124609959,-0.19166667874224,-0.243055569018962,-0.0824668109416962,0.027488935738802,-0.0455094613134861
5,0.990277773310434,-0.187500003092477,-0.231944458264858,-0.0653625801205635,0.0387899428606033,-0.0525344125926495
5,0.986111194908388,-0.190277786858986,-0.234722242031366,-0.0473420582711697,0.0448985956609249,-0.0503963828086853
5,0.98888888142718,-0.187500003092477,-0.238888893369199,-0.0235183127224445,0.0357356183230877,-0.0543670058250427
5,0.99583334084345,-0.179166676104882,-0.24583335278547,-0.0232128798961639,0.0284052342176437,-0.0568104684352875
5,0.994444448960196,-0.18333333959868,-0.234722242031366,-0.0131336031481624,0.0329867228865623,-0.0595593601465225
5,0.98888888142718,-0.176388892338373,-0.250000004123303,-0.0140499006956816,0.0219911485910416,-0.0519235469400883
5,0.986111194908388,-0.169444445078067,-0.252777787889811,-0.017409659922123,0.013744467869401,-0.0458148941397667
5,0.986111194908388,-0.169444445078067,-0.252777787889811,-0.0345138870179653,0.00152716308366507,-0.0345138870179653
5,0.990277773310434,-0.16527778158427,-0.24583335278547,-0.0357356183230877,0.00519235478714108,-0.0241291765123606
5,0.990277773310434,-0.16527778158427,-0.24583335278547,-0.0458148941397667,-0.00549778714776039,-0.0354301854968071
5,0.990277773310434,-0.16527778158427,-0.24583335278547,-0.0516181141138077,-0.0189368221908808,-0.0415388382971287
5,1.00000001649321,-0.180555567988136,-0.240277785252453,-0.0439822971820831,-0.0183259565383196,-0.0503963828086853
5,1.00000001649321,-0.180555567988136,-0.240277785252453,-0.0131336031481624,-0.0103847095742822,-0.058643065392971
5,0.997222232726705,-0.19166667874224,-0.24583335278547,0.00427605677396059,0.00916297826915979,-0.0723875313997269
5,0.993055557076942,-0.193055558469529,-0.25555557165632,0.0100792767480016,0.0210748501121998,-0.0714712366461754
5,0.986111194908388,-0.18333333959868,-0.244444460902216,0.00488692196086049,0.0103847095742822,-0.0650571510195732
5,0.981944519258625,-0.170833336961321,-0.25555557165632,0.00549778714776039,-0.00244346098043024,-0.0415388382971287
5,0.980555627375371,-0.175000000455119,-0.263888898643915,0.0180205255746841,0.0113010071218014,-0.027488935738802
5,0.986111194908388,-0.177777784221628,-0.259722222994153,0.0302378293126821,0.00977384392172098,-0.013744467869401
5,0.986111194908388,-0.181944447715425,-0.259722222994153,0.0458148941397667,-0.00488692196086049,-0.00733038317412138
5,0.986111194908388,-0.180555567988136,-0.25555557165632,0.0467311926186085,0.00427605677396059,-0.0125227374956012
5,0.98888888142718,-0.180555567988136,-0.258333331110899,0.0571159012615681,0.00794124789535999,-0.0113010071218014
5,0.98888888142718,-0.172222228844576,-0.254166679773066,0.0583376325666905,0.0149661982432008,-0.0140499006956816
5,0.990277773310434,-0.170833336961321,-0.252777787889811,0.0516181141138077,0.0201585534960032,-0.0109955742955208
5,0.98888888142718,-0.162500009973726,-0.261111114877407,0.0439822971820831,0.0222965814173222,-0.00305432616733015
5,0.993055557076942,-0.151388899219622,-0.261111114877407,0.0369573459029198,0.0204639863222837,0.00244346098043024
5,0.99583334084345,-0.152777778946911,-0.254166679773066,0.0253509078174829,0.0140499006956816,0.00244346098043024
5,0.998611124609959,-0.158333334323963,-0.250000004123303,0.0226020142436027,0.00946841109544039,0.0103847095742822
5,1.00277780025972,-0.166666673467524,-0.238888893369199,0.0167987942695618,0.019547687843442,0.00733038317412138
5,0.998611124609959,-0.162500009973726,-0.240277785252453,0.0201585534960032,0.0201585534960032,0.00580321997404099
5,0.990277773310434,-0.156944454596674,-0.227777782615095,0.01191187184304,0.0109955742955208,0.0161879286170006
5,0.993055557076942,-0.14722222356986,-0.230555566381603,0.00427605677396059,0.0149661982432008,0.0109955742955208
5,0.99583334084345,-0.141666668192807,-0.233333350148112,0.00580321997404099,-0.00305432616733015,0.0229074470698834
5,1.00555558402623,-0.148611115453114,-0.236111109602691,-0.00152716308366507,0.015577063895762,0.0177150927484035
5,1.00277780025972,-0.154166670830166,-0.244444460902216,-0.00366519158706069,0.0397062413394451,0.0210748501121998
5,0.993055557076942,-0.161111118090472,-0.244444460902216,-0.00549778714776039,0.0326812900602817,0.0152716310694814
5,0.991666665193688,-0.15555556271342,-0.233333350148112,0.0021380283869803,0.0265726372599602,0.0207694191485643
5,0.99583334084345,-0.159722226207217,-0.237500001485945,0.021685715764761,0.0229074470698834,0.0207694191485643
5,0.99583334084345,-0.159722226207217,-0.231944458264858,0.0164933614432812,0.0207694191485643,0.0113010071218014
5,0.993055557076942,-0.163888889701015,-0.238888893369199,0.0250454749912024,-0.00397062394768,0.01191187184304
5,0.98888888142718,-0.170833336961321,-0.238888893369199,0.0305432621389627,-0.00427605677396059,0.000916297896765172
5,0.98888888142718,-0.170833336961321,-0.243055569018962,0.029626963660121,-0.0348193198442459,0.011606439948082
5,0.99583334084345,-0.175000000455119,-0.24583335278547,0.0323758572340012,-0.0143553335219622,0.0122173046693206
5,0.994444448960196,-0.16527778158427,-0.243055569018962,0.0369573459029198,-0.0329867228865623,0.0293215326964855
5,0.98888888142718,-0.156944454596674,-0.250000004123303,0.0384845100343227,-0.021685715764761,0.0372627787292004
5,0.993055557076942,-0.159722226207217,-0.244444460902216,0.0213802829384804,-0.0125227374956012,0.0507018156349659
5,0.990277773310434,-0.163888889701015,-0.237500001485945,0.0140499006956816,-0.0131336031481624,0.0555887371301651
5,0.994444448960196,-0.154166670830166,-0.237500001485945,0.00122173049021512,-0.0161879286170006,0.0507018156349659
5,0.994444448960196,-0.152777778946911,-0.236111109602691,-0.011606439948082,-0.0250454749912024,0.0577267669141293
5,0.997222232726705,-0.140277788465518,-0.234722242031366,-0.0384845100343227,-0.0219911485910416,0.0595593601465225
5,1.00555558402623,-0.141666668192807,-0.247222220356795,-0.0525344125926495,-0.0210748501121998,0.0580321997404099
5,1.00972225967599,-0.151388899219622,-0.24583335278547,-0.0641408488154411,0.00946841109544039,0.0522289797663689
5,1.00277780025972,-0.17361112072783,-0.238888893369199,-0.0623082555830479,0.0235183127224445,0.0519235469400883
5,1.00416669214298,-0.176388892338373,-0.236111109602691,-0.0571159012615681,0.0320704244077206,0.0406225398182869
5,1.00000001649321,-0.170833336961321,-0.224999998848587,-0.0540615729987621,0.013744467869401,0.0339030213654041
5,0.998611124609959,-0.172222228844576,-0.20972223675665,-0.0497855171561241,-0.000916297896765172,0.0287106670439243
5,0.99583334084345,-0.172222228844576,-0.218055563744246,-0.0433714315295219,0.00183259579353034,0.0329867228865623
5,0.99583334084345,-0.17361112072783,-0.227777782615095,-0.0354301854968071,-0.00977384392172098,0.0323758572340012
5,0.997222232726705,-0.177777784221628,-0.220833347510754,-0.0253509078174829,0.0021380283869803,0.0290160998702049
5,1.00555558402623,-0.18333333959868,-0.222222239394008,-0.011606439948082,0.013744467869401,0.02382374368608
5,1.00138890837647,-0.18333333959868,-0.226388890731841,-0.00855211354792118,0.0180205255746841,0.0180205255746841
5,1.00000001649321,-0.177777784221628,-0.2194444556275,-0.00641408516094089,0.0290160998702049,0.00305432616733015
5,1.00000001649321,-0.176388892338373,-0.222222239394008,-0.00519235478714108,0.0262672062963247,0.0171042270958424
5,0.99583334084345,-0.16527778158427,-0.230555566381603,-0.0204639863222837,0.0329867228865623,0.00977384392172098
5,0.994444448960196,-0.163888889701015,-0.234722242031366,-0.0265726372599602,0.0189368221908808,0.0186313893646002
5,0.994444448960196,-0.168055565350778,-0.243055569018962,-0.0354301854968071,0.00794124789535999,0.0253509078174829
5,0.998611124609959,-0.170833336961321,-0.229166674498349,-0.0418442711234093,0.0189368221908808,0.0204639863222837
5,0.994444448960196,-0.175000000455119,-0.241666677135707,-0.0500909499824047,0.0183259565383196,0.0177150927484035
5,0.993055557076942,-0.181944447715425,-0.237500001485945,-0.0583376325666905,0.0314595587551594,0.00488692196086049
5,1.00000001649321,-0.181944447715425,-0.251388896006557,-0.0650571510195732,0.0354301854968071,0.000610865245107561
5,0.99583334084345,-0.18333333959868,-0.256944463539574,-0.0626136884093285,0.0537561401724815,-0.00366519158706069
5,1.00000001649321,-0.195833342236038,-0.250000004123303,-0.064446285367012,0.0751364231109619,-0.00183259579353034
5,0.998611124609959,-0.193055558469529,-0.241666677135707,-0.0537561401724815,0.076052725315094,-0.00244346098043024
5,0.993055557076942,-0.193055558469529,-0.233333350148112,-0.0342084541916847,0.0742201283574104,-0.0140499006956816
5,0.991666665193688,-0.198611113846581,-0.244444460902216,-0.017409659922123,0.0723875313997269,-0.0021380283869803
5,0.991666665193688,-0.193055558469529,-0.226388890731841,-0.00794124789535999,0.0797179117798805,-0.0192422550171614
5,0.993055557076942,-0.180555567988136,-0.226388890731841,0.00519235478714108,0.096211276948452,-0.0277943685650826
5,0.998611124609959,-0.16527778158427,-0.230555566381603,0.00916297826915979,0.0794124826788902,-0.0357356183230877
5,1.00000001649321,-0.162500009973726,-0.2194444556275,0.0021380283869803,0.0681114718317986,-0.0326812900602817
5,0.99583334084345,-0.161111118090472,-0.211111128639904,0.00244346098043024,0.0546724386513233,-0.0329867228865623
5,0.993055557076942,-0.161111118090472,-0.202777789496344,0.00855211354792118,0.01588249579072,-0.0161879286170006
5,0.991666665193688,-0.169444445078067,-0.208333344873396,0.0250454749912024,-0.00366519158706069,-0.00397062394768
5,0.991666665193688,-0.172222228844576,-0.222222239394008,0.0339030213654041,-0.0222965814173222,0.000916297896765172
5,0.99583334084345,-0.17361112072783,-0.223611131277262,0.0491746515035629,-0.03176499158144,-0.00488692196086049
5,1.00000001649321,-0.172222228844576,-0.222222239394008,0.0568104684352875,-0.0287106670439243,-0.0021380283869803
5,0.99583334084345,-0.17361112072783,-0.229166674498349,0.0555887371301651,-0.019547687843442,-0.0128281703218818
5,0.997222232726705,-0.172222228844576,-0.226388890731841,0.0525344125926495,-0.0262672062963247,-0.011606439948082
5,1.00416669214298,-0.170833336961321,-0.227777782615095,0.0537561401724815,-0.0253509078174829,-0.0131336031481624
5,1.00138890837647,-0.166666673467524,-0.216666671860991,0.0565050356090069,-0.0207694191485643,-0.0109955742955208
5,0.998611124609959,-0.16527778158427,-0.216666671860991,0.0534507073462009,-0.015577063895762,-0.0103847095742822
5,0.998611124609959,-0.156944454596674,-0.224999998848587,0.0445931628346443,-0.0268780700862408,-0.0113010071218014
5,0.998611124609959,-0.156944454596674,-0.224999998848587,0.0360410511493683,-0.0201585534960032,-0.00885754637420177
5,1.00277780025972,-0.161111118090472,-0.229166674498349,0.0314595587551594,-0.0103847095742822,-0.00824668072164059
5,1.00000001649321,-0.154166670830166,-0.234722242031366,0.00733038317412138,0.00671951752156019,-0.00916297826915979
5,1.00000001649321,-0.154166670830166,-0.234722242031366,-0.00580321997404099,0.00580321997404099,-0.00671951752156019
5,1.00000001649321,-0.156944454596674,-0.223611131277262,-0.0106901414692402,-0.0021380283869803,-0.0027488935738802
5,0.99583334084345,-0.161111118090472,-0.233333350148112,-0.0280998013913631,0.00183259579353034,0.0100792767480016
5,0.99583334084345,-0.161111118090472,-0.233333350148112,-0.0284052342176437,0.00977384392172098,0.01588249579072
5,0.99583334084345,-0.166666673467524,-0.229166674498349,-0.0394008085131645,0.000305432622553781,0.0161879286170006
5,0.993055557076942,-0.172222228844576,-0.238888893369199,-0.0397062413394451,0.00488692196086049,0.015577063895762
5,0.993055557076942,-0.172222228844576,-0.238888893369199,-0.0403171069920063,0.00702495034784079,0.0259617734700441
5,0.993055557076942,-0.170833336961321,-0.24583335278547,-0.0360410511493683,0.0106901414692402,0.0235183127224445
5,0.99583334084345,-0.179166676104882,-0.231944458264858,-0.0311541277915239,0.000916297896765172,0.015577063895762
5,0.997222232726705,-0.187500003092477,-0.231944458264858,-0.0247400421649218,-0.00610865233466029,0.0244346093386412
5,0.993055557076942,-0.187500003092477,-0.237500001485945,-0.0161879286170006,-0.00488692196086049,0.0210748501121998
5,0.994444448960196,-0.181944447715425,-0.238888893369199,-0.0140499006956816,-0.00519235478714108,0.0308486949652433
5,0.993055557076942,-0.177777784221628,-0.248611112240049,-0.00794124789535999,-0.00763581553474069,0.0372627787292004
5,0.990277773310434,-0.179166676104882,-0.24583335278547,-0.00855211354792118,-0.0128281703218818,0.0290160998702049
5,0.990277773310434,-0.17361112072783,-0.230555566381603,-0.00152716308366507,-0.01588249579072,0.0311541277915239
5,0.99583334084345,-0.17361112072783,-0.223611131277262,-0.00244346098043024,-0.0171042270958424,0.037568211555481
5,0.997222232726705,-0.175000000455119,-0.226388890731841,-0.00122173049021512,-0.0387899428606033,0.0439822971820831
5,0.998611124609959,-0.170833336961321,-0.216666671860991,0.0033597587607801,-0.0491746515035629,0.0534507073462009
5,0.99583334084345,-0.175000000455119,-0.2194444556275,0.0140499006956816,-0.0494800843298435,0.0577267669141293
5,0.998611124609959,-0.170833336961321,-0.2194444556275,0.01588249579072,-0.0638354197144508,0.0571159012615681
5,0.99583334084345,-0.177777784221628,-0.2194444556275,0.0354301854968071,-0.0656680166721344,0.0604756586253643
5,0.993055557076942,-0.18333333959868,-0.2194444556275,0.0662788823246956,-0.0809396430850029,0.0442877300083637
5,0.99583334084345,-0.18333333959868,-0.2194444556275,0.0864374339580536,-0.0690277740359306,0.0335975885391235
5,1.00277780025972,-0.184722231481934,-0.231944458264858,0.102319926023483,-0.04764748737216,0.0131336031481624
5,1.0125000434425,-0.186111123365188,-0.237500001485945,0.100181899964809,-0.00977384392172098,-0.00397062394768
5,1.01388893532575,-0.177777784221628,-0.243055569018962,0.0977384373545647,0.0207694191485643,-0.0143553335219622
5,1.00833336779274,-0.16527778158427,-0.222222239394008,0.0742201283574104,0.0326812900602817,-0.0207694191485643
5,1.00555558402623,-0.154166670830166,-0.223611131277262,0.0351247526705265,0.0403171069920063,-0.0192422550171614
5,1.00000001649321,-0.141666668192807,-0.222222239394008,0.00977384392172098,0.0326812900602817,-0.015577063895762
5,1.00000001649321,-0.13750000469901,-0.222222239394008,-0.0140499006956816,0.013744467869401,0.0125227374956012
5,0.997222232726705,-0.143055560076062,-0.230555566381603,-0.0351247526705265,0.00824668072164059,0.0171042270958424
5,0.997222232726705,-0.156944454596674,-0.2194444556275,-0.0500909499824047,0.00152716308366507,0.0183259565383196
5,0.99583334084345,-0.17361112072783,-0.223611131277262,-0.0577267669141293,0.00580321997404099,0.0128281703218818
5,0.99583334084345,-0.181944447715425,-0.229166674498349,-0.0549778714776039,0.0198531206697226,0.0128281703218818
5,0.993055557076942,-0.187500003092477,-0.234722242031366,-0.0384845100343227,0.0235183127224445,0.00580321997404099
5,0.997222232726705,-0.193055558469529,-0.240277785252453,-0.0265726372599602,0.0287106670439243,0.011606439948082
5,0.993055557076942,-0.193055558469529,-0.243055569018962,-0.0122173046693206,0.0268780700862408,0.011606439948082
5,0.990277773310434,-0.197222234119292,-0.227777782615095,-0.00305432616733015,0.021685715764761,0.00488692196086049
5,0.990277773310434,-0.193055558469529,-0.226388890731841,0.00488692196086049,0.0198531206697226,0.00152716308366507
5,0.990277773310434,-0.186111123365188,-0.226388890731841,0.0113010071218014,0.0164933614432812,-0.00366519158706069
5,0.99583334084345,-0.184722231481934,-0.223611131277262,0.0152716310694814,0.0140499006956816,0.000610865245107561
5,0.993055557076942,-0.179166676104882,-0.223611131277262,0.00641408516094089,0.00244346098043024,-0.00305432616733015
5,0.997222232726705,-0.175000000455119,-0.215277779977737,0.00702495034784079,0.00397062394768,-0.00794124789535999
5,0.997222232726705,-0.179166676104882,-0.220833347510754,0.0109955742955208,0.00427605677396059,-0.0027488935738802
5,0.994444448960196,-0.177777784221628,-0.216666671860991,0.00305432616733015,0.00549778714776039,0.00610865233466029
5,0.993055557076942,-0.18333333959868,-0.223611131277262,0.0033597587607801,0.0106901414692402,0.00641408516094089
5,0.99583334084345,-0.180555567988136,-0.230555566381603,-0.00427605677396059,0.00580321997404099,0.0027488935738802
5,0.99583334084345,-0.18333333959868,-0.226388890731841,-0.000916297896765172,0.0027488935738802,-0.00641408516094089
5,0.993055557076942,-0.179166676104882,-0.234722242031366,-0.00244346098043024,0.00366519158706069,-0.00305432616733015
5,0.993055557076942,-0.179166676104882,-0.233333350148112,-0.00152716308366507,0.00702495034784079,-0.00427605677396059
5,0.993055557076942,-0.18333333959868,-0.237500001485945,-0.0033597587607801,0.0106901414692402,-0.0045814891345799
5,0.99583334084345,-0.187500003092477,-0.237500001485945,0.0128281703218818,0.00977384392172098,0.0027488935738802
5,0.99583334084345,-0.187500003092477,-0.243055569018962,0.0113010071218014,0.0125227374956012,-0.0021380283869803
5,0.99583334084345,-0.193055558469529,-0.234722242031366,0.011606439948082,0.00763581553474069,-0.00366519158706069
5,0.99583334084345,-0.190277786858986,-0.231944458264858,0.00946841109544039,0.00641408516094089,-0.00397062394768
5,0.99583334084345,-0.188888894975731,-0.233333350148112,0.017409659922123,0.0021380283869803,0.00366519158706069
5,0.997222232726705,-0.180555567988136,-0.233333350148112,0.0226020142436027,0.0109955742955208,-0.00244346098043024
5,0.99583334084345,-0.187500003092477,-0.236111109602691,0.0201585534960032,0.0198531206697226,-0.00549778714776039
5,0.99583334084345,-0.187500003092477,-0.236111109602691,0.0229074470698834,0.0186313893646002,-0.0045814891345799
5,0.99583334084345,-0.187500003092477,-0.236111109602691,0.0213802829384804,0.0210748501121998,-0.01191187184304
5,0.99583334084345,-0.177777784221628,-0.229166674498349,0.01588249579072,0.0207694191485643,-0.00794124789535999
5,0.997222232726705,-0.176388892338373,-0.216666671860991,0.0201585534960032,0.0241291765123606,-0.00733038317412138
5,0.98888888142718,-0.17361112072783,-0.229166674498349,0.0161879286170006,0.015577063895762,-0.000305432622553781
5,0.991666665193688,-0.17361112072783,-0.224999998848587,0.0183259565383196,0.0177150927484035,-0.00702495034784079
5,0.997222232726705,-0.176388892338373,-0.223611131277262,0.0146607663482428,0.00916297826915979,-0.00122173049021512
5,0.998611124609959,-0.17361112072783,-0.231944458264858,0.0140499006956816,0.01191187184304,-0.00733038317412138
5,0.997222232726705,-0.179166676104882,-0.227777782615095,0.0128281703218818,0.015577063895762,-0.00702495034784079
5,0.994444448960196,-0.17361112072783,-0.227777782615095,0.0280998013913631,0.00580321997404099,-0.00641408516094089
5,0.994444448960196,-0.17361112072783,-0.227777782615095,0.0280998013913631,0.00580321997404099,-0.00641408516094089
5,1.00138890837647,-0.180555567988136,-0.20972223675665,0.03176499158144,0.00885754637420177,-0.00549778714776039
5,1.00000001649321,-0.175000000455119,-0.216666671860991,0.0372627787292004,0.0113010071218014,-0.0140499006956816
5,1.00555558402623,-0.169444445078067,-0.216666671860991,0.0378736443817616,0.0226020142436027,-0.0164933614432812
5,1.00416669214298,-0.176388892338373,-0.218055563744246,0.0448985956609249,0.0265726372599602,-0.0259617734700441
5,1.00416669214298,-0.172222228844576,-0.223611131277262,0.0369573459029198,0.0271835029125214,-0.0256563406437635
5,1.00277780025972,-0.170833336961321,-0.212499996211229,0.0360410511493683,0.021685715764761,-0.0235183127224445
5,1.00277780025972,-0.172222228844576,-0.223611131277262,0.0284052342176437,0.0210748501121998,-0.0192422550171614
5,0.99583334084345,-0.168055565350778,-0.218055563744246,0.02382374368608,0.0171042270958424,-0.0177150927484035
5,1.00000001649321,-0.172222228844576,-0.212499996211229,0.0207694191485643,0.00641408516094089,-0.0149661982432008
5,1.00000001649321,-0.170833336961321,-0.216666671860991,0.0149661982432008,0.00977384392172098,-0.00702495034784079
5,1.00277780025972,-0.166666673467524,-0.216666671860991,0.013744467869401,0.00702495034784079,-0.00702495034784079
5,1.00000001649321,-0.168055565350778,-0.223611131277262,0.00824668072164059,0.0164933614432812,-0.00305432616733015
5,0.998611124609959,-0.169444445078067,-0.223611131277262,0.00885754637420177,0.0256563406437635,-0.00610865233466029
5,1.00277780025972,-0.176388892338373,-0.212499996211229,0.000610865245107561,0.0183259565383196,-0.00855211354792118
5,1.00277780025972,-0.180555567988136,-0.220833347510754,0.00916297826915979,0.02382374368608,-0.015577063895762
5,1.00138890837647,-0.17361112072783,-0.229166674498349,0.0146607663482428,0.0250454749912024,-0.00977384392172098
5,1.00277780025972,-0.176388892338373,-0.223611131277262,0.01588249579072,0.0262672062963247,-0.00733038317412138
5,0.993055557076942,-0.17361112072783,-0.218055563744246,0.0134390350431204,0.0219911485910416,0.00183259579353034
5,0.998611124609959,-0.170833336961321,-0.208333344873396,0.0207694191485643,0.00733038317412138,-0.00855211354792118
5,0.998611124609959,-0.170833336961321,-0.208333344873396,0.0213802829384804,0.00610865233466029,-0.000305432622553781
5,1.00000001649321,-0.169444445078067,-0.216666671860991,0.01191187184304,0.00152716308366507,-0.00763581553474069
5,0.998611124609959,-0.172222228844576,-0.226388890731841,0.013744467869401,-0.0033597587607801,0.00488692196086049
5,0.998611124609959,-0.172222228844576,-0.226388890731841,0.01191187184304,0.00641408516094089,0.00488692196086049
5,1.00138890837647,-0.163888889701015,-0.220833347510754,0.0128281703218818,0.00824668072164059,-0.000305432622553781
5,1.00277780025972,-0.162500009973726,-0.213888888094483,0.00610865233466029,0.00916297826915979,0.00610865233466029
5,1.00277780025972,-0.162500009973726,-0.213888888094483,0.00488692196086049,0.011606439948082,-0.00305432616733015
5,1.00277780025972,-0.159722226207217,-0.212499996211229,0.00610865233466029,0.01588249579072,0.000610865245107561
5,1.00138890837647,-0.163888889701015,-0.223611131277262,0.00397062394768,0.00610865233466029,0.00427605677396059
5,1.00277780025972,-0.163888889701015,-0.2194444556275,-0.00152716308366507,0.00580321997404099,0.00580321997404099
5,0.998611124609959,-0.170833336961321,-0.216666671860991,0.00397062394768,-0.00122173049021512,0.00183259579353034
5,1.00000001649321,-0.168055565350778,-0.215277779977737,-0.00610865233466029,-0.000610865245107561,0.0125227374956012
5,1.00000001649321,-0.16527778158427,-0.20972223675665,-0.00397062394768,-0.00610865233466029,0.0027488935738802
5,0.998611124609959,-0.169444445078067,-0.220833347510754,0.000305432622553781,-0.00824668072164059,0.011606439948082
5,1.00000001649321,-0.170833336961321,-0.204166669223633,0.00152716308366507,-0.0113010071218014,0.011606439948082
5,1.00277780025972,-0.169444445078067,-0.206944452990142,0.00183259579353034,-0.0192422550171614,0.00885754637420177
5,1.00000001649321,-0.170833336961321,-0.215277779977737,-0.00427605677396059,-0.0259617734700441,0.01191187184304
5,1.00138890837647,-0.170833336961321,-0.216666671860991,0.00122173049021512,-0.0113010071218014,0.0143553335219622
5,0.998611124609959,-0.169444445078067,-0.223611131277262,-0.00641408516094089,-0.00824668072164059,0.0103847095742822
5,1.00000001649321,-0.163888889701015,-0.215277779977737,-0.000305432622553781,-0.0033597587607801,0.00427605677396059
5,1.00000001649321,-0.161111118090472,-0.20972223675665,-0.00885754637420177,-0.00183259579353034,0.00855211354792118
5,1.00277780025972,-0.163888889701015,-0.206944452990142,-0.0149661982432008,-0.00488692196086049,0.0143553335219622
5,1.00277780025972,-0.166666673467524,-0.20972223675665,-0.0103847095742822,-0.0033597587607801,-0.0021380283869803
5,1.00416669214298,-0.166666673467524,-0.213888888094483,-0.015577063895762,-0.00122173049021512,-0.00763581553474069
5,1.00555558402623,-0.170833336961321,-0.2194444556275,-0.0167987942695618,0.0198531206697226,-0.000916297896765172
5,1.00555558402623,-0.17361112072783,-0.223611131277262,-0.0125227374956012,0.0332921557128429,-0.00641408516094089
5,1.00694447590948,-0.166666673467524,-0.216666671860991,-0.015577063895762,0.0452040284872055,-0.0152716310694814
5,1.00694447590948,-0.168055565350778,-0.216666671860991,-0.0167987942695618,0.0485637858510017,-0.021685715764761
5,1.00000001649321,-0.169444445078067,-0.2194444556275,-0.0287106670439243,0.0442877300083637,-0.0171042270958424
5,0.994444448960196,-0.175000000455119,-0.223611131277262,-0.0268780700862408,0.0351247526705265,-0.00794124789535999
5,0.98888888142718,-0.180555567988136,-0.222222239394008,-0.0143553335219622,0.0415388382971287,-0.00733038317412138
5,0.987499989543926,-0.187500003092477,-0.223611131277262,-0.00671951752156019,0.02382374368608,-0.0027488935738802
5,0.983333411141879,-0.19166667874224,-0.220833347510754,-0.0027488935738802,0.000305432622553781,0.00641408516094089
5,0.987499989543926,-0.187500003092477,-0.226388890731841,0.00549778714776039,-0.0161879286170006,0.00855211354792118
5,0.994444448960196,-0.179166676104882,-0.216666671860991,0.0109955742955208,-0.0284052342176437,0.00977384392172098
5,0.993055557076942,-0.181944447715425,-0.222222239394008,0.00946841109544039,-0.0326812900602817,0.0210748501121998
5,0.990277773310434,-0.180555567988136,-0.222222239394008,0.0131336031481624,-0.0494800843298435,0.0259617734700441
5,0.991666665193688,-0.17361112072783,-0.20972223675665,0.0232128798961639,-0.0638354197144508,0.0326812900602817
5,0.99583334084345,-0.170833336961321,-0.206944452990142,0.0189368221908808,-0.0577267669141293,0.0314595587551594
5,1.00277780025972,-0.172222228844576,-0.211111128639904,0.0186313893646002,-0.0494800843298435,0.0403171069920063
5,1.00833336779274,-0.170833336961321,-0.20972223675665,0.0143553335219622,-0.0210748501121998,0.0256563406437635
5,1.01388893532575,-0.168055565350778,-0.212499996211229,0.00580321997404099,-0.0045814891345799,0.000305432622553781
5,1.01527782720901,-0.169444445078067,-0.234722242031366,0.0045814891345799,0.0113010071218014,-0.00794124789535999
5,1.01805561097552,-0.170833336961321,-0.229166674498349,-0.0021380283869803,0.0229074470698834,-0.0219911485910416
5,1.01111115155925,-0.161111118090472,-0.223611131277262,-0.0100792767480016,0.0494800843298435,-0.0397062413394451
5,1.00277780025972,-0.170833336961321,-0.20972223675665,-0.00519235478714108,0.0485637858510017,-0.0348193198442459
5,0.98888888142718,-0.163888889701015,-0.211111128639904,-0.0033597587607801,0.0262672062963247,-0.0277943685650826
5,0.983333411141879,-0.168055565350778,-0.215277779977737,-0.00794124789535999,-0.0021380283869803,-0.0140499006956816
5,0.984722303025134,-0.161111118090472,-0.211111128639904,0.0134390350431204,-0.0348193198442459,0.00794124789535999
5,0.991666665193688,-0.163888889701015,-0.206944452990142,0.0128281703218818,-0.04764748737216,0.0171042270958424
5,1.00416669214298,-0.163888889701015,-0.222222239394008,0.01588249579072,-0.0500909499824047,0.0271835029125214
5,1.00277780025972,-0.166666673467524,-0.224999998848587,0.0235183127224445,-0.0403171069920063,0.0262672062963247
5,1.00694447590948,-0.158333334323963,-0.218055563744246,0.0201585534960032,-0.0345138870179653,0.0302378293126821
5,1.01111115155925,-0.170833336961321,-0.216666671860991,0.0271835029125214,-0.0277943685650826,0.0192422550171614
5,1.00833336779274,-0.17361112072783,-0.216666671860991,0.0167987942695618,0.000916297896765172,0.00977384392172098
5,1.00555558402623,-0.166666673467524,-0.226388890731841,0.00549778714776039,0.0140499006956816,-0.00397062394768
5,1.00000001649321,-0.161111118090472,-0.224999998848587,0.00702495034784079,0.0198531206697226,-0.00366519158706069
5,1.00277780025972,-0.16527778158427,-0.222222239394008,0.00397062394768,0.0265726372599602,-0.00671951752156019
5,1.00555558402623,-0.166666673467524,-0.223611131277262,0.00152716308366507,0.0390953756868839,-0.0128281703218818
5,1.00000001649321,-0.170833336961321,-0.231944458264858,-0.0149661982432008,0.0412334054708481,-0.0113010071218014
5,1.00138890837647,-0.170833336961321,-0.220833347510754,-0.0180205255746841,0.0378736443817616,-0.0244346093386412
5,0.998611124609959,-0.170833336961321,-0.216666671860991,-0.0125227374956012,0.0146607663482428,-0.0161879286170006
5,0.99583334084345,-0.170833336961321,-0.223611131277262,-0.0177150927484035,-0.00610865233466029,-0.0143553335219622
5,0.99583334084345,-0.176388892338373,-0.218055563744246,-0.00427605677396059,-0.015577063895762,-0.00519235478714108
5,0.99583334084345,-0.169444445078067,-0.223611131277262,-0.0027488935738802,-0.011606439948082,-0.000610865245107561
5,0.99583334084345,-0.169444445078067,-0.223611131277262,0.0100792767480016,-0.013744467869401,0.00977384392172098
5,1.00000001649321,-0.177777784221628,-0.222222239394008,0.0140499006956816,-0.0134390350431204,0.0134390350431204
5,1.00138890837647,-0.176388892338373,-0.227777782615095,0.0106901414692402,-0.00580321997404099,0.00366519158706069
5,1.00416669214298,-0.176388892338373,-0.222222239394008,0.0146607663482428,-0.00580321997404099,0.00152716308366507
5,1.00138890837647,-0.176388892338373,-0.223611131277262,0.019547687843442,-0.0021380283869803,-0.00977384392172098
5,1.00138890837647,-0.176388892338373,-0.227777782615095,0.0134390350431204,0.00671951752156019,-0.0219911485910416
5,1.00277780025972,-0.175000000455119,-0.222222239394008,0.0152716310694814,0.0241291765123606,-0.0259617734700441
5,0.997222232726705,-0.17361112072783,-0.224999998848587,0.0033597587607801,0.02382374368608,-0.0180205255746841
5,1.00138890837647,-0.170833336961321,-0.222222239394008,0.00397062394768,0.0351247526705265,-0.00855211354792118
5,1.00000001649321,-0.169444445078067,-0.222222239394008,0.00549778714776039,0.0235183127224445,0.00183259579353034
5,0.993055557076942,-0.17361112072783,-0.227777782615095,0.0100792767480016,0.0161879286170006,0.00122173049021512
5,0.993055557076942,-0.175000000455119,-0.222222239394008,0.00733038317412138,0.00549778714776039,-0.00641408516094089
5,1.00000001649321,-0.17361112072783,-0.224999998848587,0.00488692196086049,0.0143553335219622,-0.0134390350431204
5,1.00000001649321,-0.172222228844576,-0.218055563744246,0.0109955742955208,0.0140499006956816,-0.0140499006956816
5,1.00000001649321,-0.170833336961321,-0.216666671860991,0.0109955742955208,0.0109955742955208,-0.00885754637420177
5,0.994444448960196,-0.166666673467524,-0.20972223675665,0.0128281703218818,-0.00122173049021512,-0.00763581553474069
5,0.993055557076942,-0.17361112072783,-0.204166669223633,0.0192422550171614,-0.0109955742955208,0.0021380283869803
5,0.998611124609959,-0.170833336961321,-0.216666671860991,0.0253509078174829,-0.017409659922123,0.0183259565383196
5,0.998611124609959,-0.172222228844576,-0.20972223675665,0.0128281703218818,-0.027488935738802,0.0164933614432812
5,1.00138890837647,-0.166666673467524,-0.216666671860991,0.0103847095742822,-0.021685715764761,0.0167987942695618
5,1.00277780025972,-0.16527778158427,-0.216666671860991,0.0180205255746841,-0.0125227374956012,0.0113010071218014
5,1.00694447590948,-0.170833336961321,-0.215277779977737,0.0189368221908808,-0.000916297896765172,0.00183259579353034
5,1.01111115155925,-0.168055565350778,-0.212499996211229,0.0198531206697226,0.0152716310694814,-0.00794124789535999
5,1.00277780025972,-0.16527778158427,-0.20138889761309,0.0180205255746841,0.0109955742955208,-0.00671951752156019
5,0.99583334084345,-0.156944454596674,-0.206944452990142,0.0100792767480016,0.00244346098043024,-0.00152716308366507
5,0.997222232726705,-0.161111118090472,-0.215277779977737,0.00488692196086049,-0.00397062394768,0.00366519158706069
5,0.99583334084345,-0.163888889701015,-0.212499996211229,0.00885754637420177,-0.0122173046693206,0.00916297826915979
5,1.00138890837647,-0.172222228844576,-0.223611131277262,0.00427605677396059,-0.00733038317412138,0.0128281703218818
5,1.00277780025972,-0.170833336961321,-0.226388890731841,0.00885754637420177,0.000610865245107561,0.00855211354792118
5,1.00138890837647,-0.168055565350778,-0.215277779977737,0.00488692196086049,-0.00244346098043024,0.00152716308366507
5,1.00138890837647,-0.168055565350778,-0.215277779977737,0.00794124789535999,0.00519235478714108,-0.00183259579353034
5,1.00000001649321,-0.169444445078067,-0.216666671860991,0.00305432616733015,-0.000610865245107561,0.00366519158706069
5,0.99583334084345,-0.16527778158427,-0.2194444556275,0.00641408516094089,-0.0027488935738802,0.00641408516094089
5,1.00138890837647,-0.166666673467524,-0.227777782615095,-0.00183259579353034,-0.00549778714776039,0.00397062394768
5,1.00277780025972,-0.162500009973726,-0.223611131277262,-0.000610865245107561,-0.00366519158706069,0.00824668072164059
5,1.00277780025972,-0.154166670830166,-0.222222239394008,-0.0103847095742822,-0.0033597587607801,0.0103847095742822
5,1.00000001649321,-0.162500009973726,-0.212499996211229,-0.00763581553474069,0.00366519158706069,0.0045814891345799
5,1.00555558402623,-0.163888889701015,-0.226388890731841,-0.00183259579353034,-0.000610865245107561,0.00305432616733015
5,1.00416669214298,-0.16527778158427,-0.206944452990142,-0.00763581553474069,0.00580321997404099,0.0045814891345799
5,1.00000001649321,-0.163888889701015,-0.20972223675665,-0.00794124789535999,0.00122173049021512,0.00427605677396059
5,1.00277780025972,-0.163888889701015,-0.206944452990142,-0.0106901414692402,0.00152716308366507,0.00610865233466029
5,1.00000001649321,-0.170833336961321,-0.212499996211229,-0.00366519158706069,-0.00122173049021512,0.00733038317412138
5,1.00138890837647,-0.166666673467524,-0.215277779977737,-0.0146607663482428,0.00641408516094089,0.00580321997404099
5,1.00277780025972,-0.169444445078067,-0.223611131277262,-0.0140499006956816,0.00916297826915979,-0.0033597587607801
5,1.00277780025972,-0.17361112072783,-0.218055563744246,-0.0113010071218014,0.0171042270958424,0.00397062394768
5,1.00277780025972,-0.175000000455119,-0.223611131277262,-0.00366519158706069,0.00549778714776039,0.00580321997404099
5,0.997222232726705,-0.170833336961321,-0.222222239394008,-0.0021380283869803,-0.000305432622553781,0.00427605677396059
5,0.997222232726705,-0.17361112072783,-0.211111128639904,0.00519235478714108,0.00122173049021512,-0.00641408516094089
5,1.00000001649321,-0.176388892338373,-0.20972223675665,0.00610865233466029,0.00488692196086049,-0.0045814891345799
5,1.00000001649321,-0.170833336961321,-0.218055563744246,0.0152716310694814,-0.00427605677396059,-0.00794124789535999
5,1.00277780025972,-0.170833336961321,-0.212499996211229,0.0106901414692402,-0.00702495034784079,0.000610865245107561
5,1.00277780025972,-0.158333334323963,-0.226388890731841,0.0100792767480016,-0.00610865233466029,0.000610865245107561
5,1.00277780025972,-0.17361112072783,-0.224999998848587,0.013744467869401,0.00366519158706069,0.0045814891345799
5,0.997222232726705,-0.168055565350778,-0.211111128639904,0.0186313893646002,0.0021380283869803,-0.000916297896765172
5,0.997222232726705,-0.169444445078067,-0.212499996211229,0.0122173046693206,0.00305432616733015,-0.00733038317412138
5,0.997222232726705,-0.166666673467524,-0.20972223675665,0.0134390350431204,-0.00519235478714108,-0.00183259579353034
5,0.99583334084345,-0.16527778158427,-0.208333344873396,0.0146607663482428,-0.0027488935738802,0.000916297896765172
5,1.00000001649321,-0.163888889701015,-0.208333344873396,0.0198531206697226,-0.0122173046693206,-0.00794124789535999
5,1.00000001649321,-0.163888889701015,-0.208333344873396,0.0103847095742822,-0.00549778714776039,-0.00549778714776039
5,1.00416669214298,-0.168055565350778,-0.215277779977737,0.0201585534960032,0.00183259579353034,-0.00366519158706069
5,1.00277780025972,-0.168055565350778,-0.206944452990142,0.0201585534960032,0.00946841109544039,-0.00152716308366507
5,1.00000001649321,-0.169444445078067,-0.204166669223633,0.0161879286170006,0.0113010071218014,-0.00977384392172098
5,1.00277780025972,-0.168055565350778,-0.211111128639904,0.0164933614432812,0.0113010071218014,-0.000305432622553781
5,1.00277780025972,-0.170833336961321,-0.223611131277262,0.0171042270958424,0.00244346098043024,-0.00549778714776039
5,0.998611124609959,-0.169444445078067,-0.2194444556275,0.0189368221908808,-0.000610865245107561,-0.00488692196086049
5,0.997222232726705,-0.168055565350778,-0.216666671860991,0.0109955742955208,0.000916297896765172,-0.0027488935738802
5,1.00277780025972,-0.163888889701015,-0.218055563744246,0.011606439948082,0.00977384392172098,-0.01191187184304
5,1.00000001649321,-0.162500009973726,-0.212499996211229,0.00702495034784079,0.00580321997404099,-0.00122173049021512
5,0.994444448960196,-0.159722226207217,-0.216666671860991,0.0033597587607801,0.0033597587607801,-0.00946841109544039
5,0.99583334084345,-0.162500009973726,-0.223611131277262,0.00519235478714108,-0.00152716308366507,-0.00977384392172098
5,0.997222232726705,-0.163888889701015,-0.216666671860991,0.00763581553474069,0.0027488935738802,-0.00397062394768
5,0.99583334084345,-0.163888889701015,-0.216666671860991,0.0109955742955208,0.00763581553474069,0.00488692196086049
5,0.99583334084345,-0.166666673467524,-0.216666671860991,0.0125227374956012,0.0106901414692402,-0.00183259579353034
5,1.00000001649321,-0.166666673467524,-0.216666671860991,0.00671951752156019,0.0122173046693206,0.00488692196086049
5,1.00416669214298,-0.162500009973726,-0.226388890731841,0.00977384392172098,0.00763581553474069,-0.0033597587607801
5,1.00000001649321,-0.158333334323963,-0.223611131277262,0.0131336031481624,0.00855211354792118,-0.0167987942695618
5,1.00000001649321,-0.161111118090472,-0.20972223675665,0.013744467869401,0.00733038317412138,-0.00244346098043024
5,1.00277780025972,-0.163888889701015,-0.20972223675665,0.0164933614432812,0.00610865233466029,-0.00397062394768
5,1.00000001649321,-0.166666673467524,-0.20972223675665,0.0186313893646002,-0.00244346098043024,0.0021380283869803
5,0.998611124609959,-0.166666673467524,-0.20972223675665,0.0146607663482428,0.00916297826915979,-0.00519235478714108
5,1.00000001649321,-0.163888889701015,-0.213888888094483,0.0113010071218014,0.0100792767480016,-0.00244346098043024
5,1.00277780025972,-0.161111118090472,-0.213888888094483,0.0171042270958424,0.0106901414692402,-0.00641408516094089
5,1.00555558402623,-0.163888889701015,-0.212499996211229,0.0140499006956816,0.0189368221908808,-0.00702495034784079
5,1.00000001649321,-0.159722226207217,-0.216666671860991,0.0180205255746841,0.00610865233466029,-0.000610865245107561
5,0.998611124609959,-0.158333334323963,-0.216666671860991,0.000610865245107561,0.00763581553474069,0.00152716308366507
5,1.00277780025972,-0.161111118090472,-0.212499996211229,-0.000305432622553781,0.0125227374956012,-0.0027488935738802
5,1.00277780025972,-0.161111118090472,-0.212499996211229,-0.0033597587607801,0.00916297826915979,-0.00122173049021512
5,1.00138890837647,-0.158333334323963,-0.208333344873396,-0.0027488935738802,0.00610865233466029,0.00580321997404099
5,1.00000001649321,-0.156944454596674,-0.215277779977737,-0.00244346098043024,0.00305432616733015,0.0140499006956816
5,1.00000001649321,-0.162500009973726,-0.216666671860991,-0.0027488935738802,-0.000610865245107561,0.0106901414692402
5,1.00000001649321,-0.158333334323963,-0.208333344873396,0.00488692196086049,0.00641408516094089,-0.00183259579353034
5,1.00972225967599,-0.170833336961321,-0.206944452990142,0.00397062394768,0.00152716308366507,0.000305432622553781
5,1.00416669214298,-0.159722226207217,-0.211111128639904,0.000610865245107561,0.00152716308366507,-0.00549778714776039
5,1.00277780025972,-0.159722226207217,-0.206944452990142,0.00488692196086049,0.00244346098043024,0.000305432622553781
5,0.998611124609959,-0.156944454596674,-0.212499996211229,-0.0021380283869803,-0.00183259579353034,0.00733038317412138
5,0.997222232726705,-0.16527778158427,-0.216666671860991,0.00824668072164059,-0.00244346098043024,0.00763581553474069
5,1.00277780025972,-0.163888889701015,-0.2194444556275,0.00885754637420177,0.00244346098043024,0.00244346098043024
5,1.00555558402623,-0.161111118090472,-0.212499996211229,0.00733038317412138,-0.000305432622553781,0.00580321997404099
5,1.00277780025972,-0.163888889701015,-0.216666671860991,0.00855211354792118,-0.0027488935738802,-0.000305432622553781
5,1.00694447590948,-0.159722226207217,-0.215277779977737,0.00855211354792118,0.000610865245107561,0.00733038317412138
5,1.00555558402623,-0.154166670830166,-0.202777789496344,0.00519235478714108,-0.00244346098043024,0.00671951752156019
5,1.00277780025972,-0.148611115453114,-0.197222234119292,0.00794124789535999,-0.00610865233466029,0.0033597587607801
5,1.00138890837647,-0.156944454596674,-0.204166669223633,-0.0027488935738802,-0.00824668072164059,0.00671951752156019
5,1.00555558402623,-0.156944454596674,-0.206944452990142,0.000305432622553781,-0.00152716308366507,0.00946841109544039
5,1.00555558402623,-0.156944454596674,-0.20972223675665,-0.0045814891345799,-0.0045814891345799,0.011606439948082
5,1.00000001649321,-0.156944454596674,-0.212499996211229,-0.00366519158706069,-0.0125227374956012,0.00946841109544039
5,1.00416669214298,-0.162500009973726,-0.208333344873396,-0.00183259579353034,-0.00580321997404099,0.00946841109544039
5,1.00416669214298,-0.162500009973726,-0.208333344873396,-0.00702495034784079,-0.00702495034784079,0.0161879286170006
5,1.00138890837647,-0.161111118090472,-0.20972223675665,-0.0140499006956816,-0.00977384392172098,0.0113010071218014
5,1.00277780025972,-0.166666673467524,-0.212499996211229,-0.00916297826915979,-0.00549778714776039,0.013744467869401
5,1.00277780025972,-0.166666673467524,-0.212499996211229,-0.00763581553474069,-0.00824668072164059,0.00916297826915979
5,1.00555558402623,-0.163888889701015,-0.206944452990142,-0.00244346098043024,-0.0103847095742822,0.0109955742955208
5,1.00555558402623,-0.163888889701015,-0.208333344873396,0.0021380283869803,-0.00610865233466029,0.00671951752156019
5,1.00555558402623,-0.163888889701015,-0.208333344873396,0.00855211354792118,-0.00580321997404099,0.00733038317412138
5,1.00416669214298,-0.162500009973726,-0.215277779977737,-0.000610865245107561,-0.00916297826915979,0.0109955742955208
5,1.00555558402623,-0.162500009973726,-0.202777789496344,-0.00641408516094089,-0.00488692196086049,0.00488692196086049
5,1.00000001649321,-0.159722226207217,-0.208333344873396,-0.00427605677396059,-0.0186313893646002,0.00885754637420177
5,1.00000001649321,-0.161111118090472,-0.20972223675665,-0.0027488935738802,-0.00610865233466029,0.00794124789535999
5,1.00000001649321,-0.162500009973726,-0.211111128639904,0.00366519158706069,-0.0186313893646002,0.00641408516094089
5,1.00277780025972,-0.169444445078067,-0.215277779977737,0.00427605677396059,-0.0140499006956816,0.00519235478714108
5,1.00000001649321,-0.166666673467524,-0.213888888094483,0.00244346098043024,-0.00519235478714108,0.00152716308366507
5,0.998611124609959,-0.163888889701015,-0.20972223675665,0.00763581553474069,-0.00885754637420177,0.00366519158706069
5,1.00000001649321,-0.162500009973726,-0.20972223675665,0.00244346098043024,-0.00977384392172098,0.0106901414692402
5,1.00138890837647,-0.166666673467524,-0.212499996211229,0.00610865233466029,-0.0128281703218818,0.00733038317412138
5,1.00416669214298,-0.163888889701015,-0.20972223675665,0.00794124789535999,-0.0186313893646002,0.00977384392172098
5,1.00277780025972,-0.16527778158427,-0.211111128639904,0.00427605677396059,-0.0171042270958424,0.00855211354792118
5,1.00000001649321,-0.169444445078067,-0.208333344873396,0.0100792767480016,-0.0161879286170006,0.00794124789535999
5,0.998611124609959,-0.168055565350778,-0.211111128639904,0.00702495034784079,-0.01588249579072,0.00763581553474069
5,1.00000001649321,-0.166666673467524,-0.2194444556275,0.00641408516094089,-0.0192422550171614,0.00763581553474069
5,0.994444448960196,-0.166666673467524,-0.218055563744246,0.0100792767480016,-0.0219911485910416,0.00397062394768
5,1.00000001649321,-0.168055565350778,-0.212499996211229,0.0167987942695618,-0.0213802829384804,-0.000305432622553781
5,1.00277780025972,-0.163888889701015,-0.223611131277262,0.0113010071218014,-0.011606439948082,0.00427605677396059
5,1.00000001649321,-0.161111118090472,-0.220833347510754,0.0171042270958424,-0.0229074470698834,0.00671951752156019
5,0.99583334084345,-0.162500009973726,-0.218055563744246,0.0125227374956012,-0.0210748501121998,0.0131336031481624
5,0.998611124609959,-0.158333334323963,-0.226388890731841,0.00641408516094089,-0.0177150927484035,0.00794124789535999
5,1.00000001649321,-0.162500009973726,-0.2194444556275,0.00763581553474069,-0.0222965814173222,0.0100792767480016
5,1.00000001649321,-0.16527778158427,-0.2194444556275,0.0103847095742822,-0.0271835029125214,0.00671951752156019
5,1.00138890837647,-0.166666673467524,-0.220833347510754,0.00549778714776039,-0.0232128798961639,0.0106901414692402
5,1.00138890837647,-0.16527778158427,-0.220833347510754,0.000916297896765172,-0.0103847095742822,0.0122173046693206
5,1.00000001649321,-0.170833336961321,-0.215277779977737,0.00580321997404099,-0.0045814891345799,0.0171042270958424
5,0.998611124609959,-0.166666673467524,-0.223611131277262,0.00794124789535999,-0.0122173046693206,0.00885754637420177
5,0.998611124609959,-0.17361112072783,-0.215277779977737,0.00733038317412138,-0.0106901414692402,0.00580321997404099
5,1.00000001649321,-0.169444445078067,-0.216666671860991,0.00824668072164059,-0.0149661982432008,0.00488692196086049
5,1.00000001649321,-0.166666673467524,-0.226388890731841,0.00244346098043024,-0.00794124789535999,0.0122173046693206
5,1.00138890837647,-0.166666673467524,-0.233333350148112,0.00305432616733015,-0.0183259565383196,0.01191187184304
5,1.00138890837647,-0.170833336961321,-0.237500001485945,0.00671951752156019,-0.021685715764761,0.00946841109544039
5,1.00000001649321,-0.163888889701015,-0.224999998848587,0.00855211354792118,-0.0183259565383196,0.01191187184304
5,1.00000001649321,-0.163888889701015,-0.224999998848587,0.00366519158706069,-0.00946841109544039,0.0131336031481624
5,0.99583334084345,-0.168055565350778,-0.216666671860991,-0.00244346098043024,-0.00855211354792118,0.0131336031481624
5,1.00000001649321,-0.170833336961321,-0.223611131277262,0.00244346098043024,-0.015577063895762,0.0167987942695618
5,1.00000001649321,-0.170833336961321,-0.223611131277262,0.00824668072164059,-0.0128281703218818,0.0106901414692402
5,0.99583334084345,-0.168055565350778,-0.2194444556275,0.00366519158706069,-0.0219911485910416,0.0100792767480016
5,0.99583334084345,-0.170833336961321,-0.224999998848587,0.00763581553474069,-0.0103847095742822,0.00794124789535999
5,0.99583334084345,-0.170833336961321,-0.229166674498349,0.0045814891345799,-0.00580321997404099,0.00977384392172098
5,0.998611124609959,-0.170833336961321,-0.223611131277262,0.0033597587607801,-0.0122173046693206,0.0134390350431204
5,0.99583334084345,-0.163888889701015,-0.226388890731841,0.000610865245107561,-0.0201585534960032,0.00244346098043024
5,0.99583334084345,-0.163888889701015,-0.226388890731841,0.000305432622553781,-0.0125227374956012,0.0146607663482428
5,1.00000001649321,-0.170833336961321,-0.229166674498349,0.000610865245107561,-0.0122173046693206,0.0033597587607801
5,1.00000001649321,-0.172222228844576,-0.230555566381603,0.000610865245107561,-0.019547687843442,0.0103847095742822
5,1.00000001649321,-0.168055565350778,-0.226388890731841,0.00671951752156019,-0.0122173046693206,0.0021380283869803
5,0.998611124609959,-0.166666673467524,-0.226388890731841,0.00763581553474069,-0.00977384392172098,0.00122173049021512
5,1.00000001649321,-0.170833336961321,-0.226388890731841,0.00671951752156019,-0.00733038317412138,0.00641408516094089
5,0.99583334084345,-0.175000000455119,-0.226388890731841,-0.0021380283869803,-0.01191187184304,0.0109955742955208
5,0.993055557076942,-0.169444445078067,-0.223611131277262,0.00183259579353034,-0.0152716310694814,0.0100792767480016
5,0.99583334084345,-0.170833336961321,-0.223611131277262,0.00397062394768,-0.00885754637420177,0.0122173046693206
5,1.00000001649321,-0.172222228844576,-0.2194444556275,-0.00366519158706069,-0.01191187184304,0.0027488935738802
5,0.99583334084345,-0.17361112072783,-0.226388890731841,-0.00610865233466029,-0.00305432616733015,0.0149661982432008
5,0.99583334084345,-0.172222228844576,-0.216666671860991,-0.000305432622553781,-0.0109955742955208,0.00702495034784079
5,1.00000001649321,-0.168055565350778,-0.2194444556275,0.000305432622553781,-0.0021380283869803,0.0171042270958424
5,1.00000001649321,-0.170833336961321,-0.227777782615095,0.00366519158706069,-0.00488692196086049,0.00122173049021512
5,0.997222232726705,-0.166666673467524,-0.227777782615095,-0.00977384392172098,-0.00549778714776039,0.00641408516094089
5,0.994444448960196,-0.170833336961321,-0.229166674498349,-0.00610865233466029,-0.0027488935738802,0.00733038317412138
5,0.99583334084345,-0.17361112072783,-0.226388890731841,-0.00397062394768,-0.0045814891345799,0.00702495034784079
5,1.00000001649321,-0.172222228844576,-0.2194444556275,-0.00519235478714108,0.00244346098043024,0.00641408516094089
5,1.00000001649321,-0.172222228844576,-0.230555566381603,0.000610865245107561,-0.00977384392172098,0.00305432616733015
5,0.997222232726705,-0.17361112072783,-0.229166674498349,0.000610865245107561,-0.00366519158706069,0.0045814891345799
5,0.994444448960196,-0.170833336961321,-0.236111109602691,-0.000305432622553781,0.00152716308366507,0.0045814891345799
5,0.997222232726705,-0.166666673467524,-0.229166674498349,-0.00702495034784079,0.00305432616733015,0.00641408516094089
5,1.00138890837647,-0.16527778158427,-0.223611131277262,-0.00549778714776039,-0.00519235478714108,0.00641408516094089
5,1.00000001649321,-0.16527778158427,-0.234722242031366,-0.00641408516094089,-0.00824668072164059,0.0134390350431204
5,1.00000001649321,-0.168055565350778,-0.227777782615095,-0.00885754637420177,0.000916297896765172,0.00916297826915979
5,0.998611124609959,-0.172222228844576,-0.231944458264858,-0.00946841109544039,-0.00397062394768,0.00885754637420177
5,0.998611124609959,-0.170833336961321,-0.227777782615095,-0.00488692196086049,-0.0027488935738802,0.0146607663482428
5,0.998611124609959,-0.175000000455119,-0.230555566381603,-0.00488692196086049,0.000916297896765172,0.011606439948082
5,0.998611124609959,-0.175000000455119,-0.230555566381603,0.00122173049021512,-0.00641408516094089,0.0122173046693206
5,1.00000001649321,-0.172222228844576,-0.243055569018962,-0.000916297896765172,-0.0021380283869803,0.00397062394768
5,1.00416669214298,-0.170833336961321,-0.229166674498349,-0.000916297896765172,0.00763581553474069,0.00702495034784079
5,0.997222232726705,-0.163888889701015,-0.233333350148112,0.000916297896765172,0.0146607663482428,-0.00305432616733015
5,0.99583334084345,-0.163888889701015,-0.227777782615095,0.000305432622553781,0.00610865233466029,0.00122173049021512
5,0.994444448960196,-0.170833336961321,-0.233333350148112,0.00855211354792118,0.0027488935738802,0.00397062394768
5,0.998611124609959,-0.170833336961321,-0.227777782615095,0.00702495034784079,-0.000610865245107561,0.00366519158706069
5,1.00000001649321,-0.172222228844576,-0.226388890731841,0.00641408516094089,-0.00397062394768,0.00397062394768
5,0.998611124609959,-0.166666673467524,-0.224999998848587,0.00946841109544039,0.00397062394768,-0.00397062394768
5,0.998611124609959,-0.166666673467524,-0.224999998848587,0.011606439948082,0.0109955742955208,-0.00244346098043024
5,0.998611124609959,-0.166666673467524,-0.230555566381603,0.0143553335219622,0.0033597587607801,-0.000916297896765172
5,0.998611124609959,-0.166666673467524,-0.226388890731841,0.0161879286170006,-0.00519235478714108,0.00397062394768
5,0.998611124609959,-0.166666673467524,-0.226388890731841,0.01191187184304,0.00916297826915979,-0.00183259579353034
5,1.00000001649321,-0.166666673467524,-0.220833347510754,0.0180205255746841,0.00397062394768,0.00580321997404099
5,0.998611124609959,-0.163888889701015,-0.233333350148112,0.00946841109544039,0.0027488935738802,-0.000916297896765172
5,0.998611124609959,-0.163888889701015,-0.233333350148112,0.00794124789535999,0.00641408516094089,0.00885754637420177
5,0.993055557076942,-0.172222228844576,-0.236111109602691,0.00305432616733015,-0.00397062394768,0.00580321997404099
5,1.00000001649321,-0.163888889701015,-0.226388890731841,0.000305432622553781,-0.00183259579353034,0.00885754637420177
5,0.998611124609959,-0.156944454596674,-0.224999998848587,0.000305432622553781,-0.0027488935738802,0.00427605677396059
5,0.997222232726705,-0.159722226207217,-0.227777782615095,-0.00122173049021512,0.00397062394768,0.00152716308366507
5,0.998611124609959,-0.166666673467524,-0.227777782615095,-0.00794124789535999,0.00641408516094089,0.00122173049021512
5,1.00000001649321,-0.161111118090472,-0.226388890731841,-0.00305432616733015,0.00397062394768,0.00702495034784079
5,0.998611124609959,-0.163888889701015,-0.227777782615095,-0.0131336031481624,0.00244346098043024,0.0045814891345799
5,1.00000001649321,-0.170833336961321,-0.229166674498349,-0.00946841109544039,0.00427605677396059,0.00885754637420177
5,0.997222232726705,-0.170833336961321,-0.229166674498349,-0.00733038317412138,0.00488692196086049,0.0100792767480016
5,0.99583334084345,-0.170833336961321,-0.236111109602691,-0.00305432616733015,0.00763581553474069,0.0109955742955208
5,0.993055557076942,-0.175000000455119,-0.231944458264858,-0.00305432616733015,0.00366519158706069,0.0033597587607801
5,0.99583334084345,-0.169444445078067,-0.234722242031366,-0.00152716308366507,0.0149661982432008,0.00152716308366507
5,0.998611124609959,-0.170833336961321,-0.220833347510754,0.00183259579353034,0.00794124789535999,0.00183259579353034
5,1.00000001649321,-0.168055565350778,-0.236111109602691,0.00855211354792118,0.00794124789535999,0.0027488935738802
5,0.998611124609959,-0.170833336961321,-0.236111109602691,0.0131336031481624,0.0143553335219622,0.0021380283869803
5,1.00138890837647,-0.172222228844576,-0.215277779977737,0.0045814891345799,0.0177150927484035,0.0021380283869803
5,1.00000001649321,-0.175000000455119,-0.231944458264858,0.00794124789535999,0.021685715764761,-0.00488692196086049
5,0.998611124609959,-0.176388892338373,-0.227777782615095,0.00885754637420177,0.027488935738802,-0.00183259579353034
5,0.99583334084345,-0.168055565350778,-0.2194444556275,0.0167987942695618,0.0305432621389627,-0.0100792767480016
5,0.993055557076942,-0.169444445078067,-0.223611131277262,0.0128281703218818,0.0161879286170006,-0.000916297896765172
5,0.98888888142718,-0.166666673467524,-0.2194444556275,0.00794124789535999,0.0045814891345799,0.00824668072164059
5,0.993055557076942,-0.168055565350778,-0.226388890731841,0.0027488935738802,-0.00763581553474069,0.00183259579353034
5,0.993055557076942,-0.172222228844576,-0.223611131277262,0.0033597587607801,-0.00855211354792118,0.00733038317412138
5,0.998611124609959,-0.17361112072783,-0.223611131277262,0.000305432622553781,0.000916297896765172,0.00763581553474069
5,1.00277780025972,-0.17361112072783,-0.233333350148112,0.00397062394768,0.0103847095742822,0.00427605677396059
5,1.00555558402623,-0.17361112072783,-0.240277785252453,0.00824668072164059,0.0134390350431204,-0.00152716308366507
5,1.00138890837647,-0.172222228844576,-0.230555566381603,0.0146607663482428,0.0207694191485643,-0.00549778714776039
5,1.00000001649321,-0.170833336961321,-0.234722242031366,0.0109955742955208,0.0100792767480016,-0.00519235478714108
5,0.998611124609959,-0.170833336961321,-0.2194444556275,0.0113010071218014,0.00610865233466029,0.00702495034784079
5,0.993055557076942,-0.166666673467524,-0.2194444556275,0.013744467869401,0.00610865233466029,0.00794124789535999
5,0.99583334084345,-0.17361112072783,-0.224999998848587,0.01191187184304,-0.000305432622553781,0.0128281703218818
5,1.00277780025972,-0.16527778158427,-0.222222239394008,0.0210748501121998,0.00122173049021512,0.00152716308366507
5,1.00416669214298,-0.17361112072783,-0.215277779977737,0.0167987942695618,0.00763581553474069,0.00519235478714108
5,1.00277780025972,-0.170833336961321,-0.216666671860991,0.0164933614432812,0.00763581553474069,0.00183259579353034
5,1.00277780025972,-0.166666673467524,-0.229166674498349,0.0122173046693206,0.0113010071218014,-0.00122173049021512
5,1.00277780025972,-0.163888889701015,-0.212499996211229,0.0131336031481624,0.00763581553474069,0.0033597587607801
