Activity,acc_x,acc_y,acc_z,gyro_x,gyro_y,gyro_z
0,0.50138890012986,0.0500000014324589,0.863888903677457,0.0384845100343227,0.0229074470698834,-0.00580321997404099
0,0.502777792013115,0.0486111125881959,0.858333336144441,0.0406225398182869,0.0192422550171614,-0.000305432622553781
0,0.50138890012986,0.055555559848502,0.863888903677457,0.0363464802503586,0.0354301854968071,0.0033597587607801
0,0.497222224480098,0.0472222237439329,0.862500011794203,0.0363464802503586,0.0488692186772823,-0.00916297826915979
0,0.497222224480098,0.0472222237439329,0.862500011794203,0.0354301854968071,0.0742201283574104,-0.02382374368608
0,0.50138890012986,0.0430555572111439,0.872222254976982,0.0311541277915239,0.0629191175103188,-0.0134390350431204
0,0.50138890012986,0.0430555572111439,0.872222254976982,0.0113010071218014,0.0522289797663689,-0.00366519158706069
0,0.50138890012986,0.0458333348996699,0.872222254976982,0.00671951752156019,-0.00122173049021512,-0.00916297826915979
0,0.495833332596844,0.0500000014324589,0.863888903677457,0.0186313893646002,-0.013744467869401,-0.00152716308366507
0,0.495833332596844,0.0500000014324589,0.863888903677457,0.0219911485910416,0.0183259565383196,0.00916297826915979
0,0.502777792013115,0.0458333348996699,0.86805557932722,0.0360410511493683,0.0222965814173222,0.00519235478714108
0,0.495833332596844,0.052777782159976,0.863888903677457,0.0311541277915239,-0.00488692196086049,0.00305432616733015
0,0.50138890012986,0.0638888929140799,0.87500003874349,0.0027488935738802,-0.0219911485910416,-0.00427605677396059
0,0.50138890012986,0.0638888929140799,0.87500003874349,-0.00885754637420177,0.0045814891345799,-0.000916297896765172
0,0.500000008246606,0.0583333375370279,0.862500011794203,-0.0226020142436027,0.00427605677396059,-0.0045814891345799
0,0.493055597454194,0.0513888902767219,0.879166714393253,-0.0149661982432008,-0.00641408516094089,0.0045814891345799
0,0.495833332596844,0.0444444460554069,0.879166714393253,0.00733038317412138,-0.00977384392172098,0.00305432616733015
0,0.495833332596844,0.0444444460554069,0.877777822509998,0.00183259579353034,-0.00702495034784079,0.00610865233466029
0,0.495833332596844,0.0458333348996699,0.876388930626744,-0.0241291765123606,-0.0021380283869803,0.00366519158706069
0,0.495833332596844,0.0430555572111439,0.880555606276507,-0.027488935738802,0.0186313893646002,0.00855211354792118
0,0.493055597454194,0.0458333348996699,0.876388930626744,-0.0109955742955208,0.0293215326964855,0.000916297896765172
0,0.493055597454194,0.0472222237439329,0.880555606276507,0.00855211354792118,0.0189368221908808,0.0027488935738802
0,0.49444444071359,0.0458333348996699,0.872222254976982,0.037568211555481,0.00855211354792118,-0.00122173049021512
0,0.493055597454194,0.0486111125881959,0.865277795560711,0.0406225398182869,0.00183259579353034,0.015577063895762
0,0.488888921804431,0.052777782159976,0.861111119910949,0.0140499006956816,0.00183259579353034,0.0106901414692402
0,0.493055597454194,0.052777782159976,0.858333336144441,-0.00305432616733015,0.0100792767480016,0.000610865245107561
0,0.493055597454194,0.0569444456537738,0.861111119910949,0.00183259579353034,0.0241291765123606,0.000610865245107561
0,0.498611116363352,0.0541666679652478,0.86805557932722,0.0045814891345799,0.0113010071218014,0.00152716308366507
0,0.495833332596844,0.0486111125881959,0.866666687443965,0.0161879286170006,-0.00152716308366507,0.013744467869401
0,0.493055597454194,0.0486111125881959,0.879166714393253,0.0125227374956012,-0.00183259579353034,0.0152716310694814
0,0.49444444071359,0.0513888902767219,0.887500065692777,0.00397062394768,-0.00152716308366507,0.0171042270958424
0,0.495833332596844,0.0416666683668809,0.876388930626744,-0.0152716310694814,-0.00488692196086049,0.029626963660121
0,0.49444444071359,0.0416666683668809,0.872222254976982,-0.017409659922123,0.00946841109544039,0.0122173046693206
0,0.495833332596844,0.0402777795226179,0.870833363093728,-0.011606439948082,0.0109955742955208,0.00855211354792118
0,0.49166670557094,0.0458333348996699,0.863888903677457,-0.0021380283869803,0.03176499158144,-0.0033597587607801
0,0.490277813687686,0.0430555572111439,0.86805557932722,0.0143553335219622,0.0354301854968071,-0.00763581553474069
0,0.486111138037923,0.0444444460554069,0.877777822509998,0.021685715764761,0.0372627787292004,-0.0100792767480016
0,0.490277813687686,0.0416666683668809,0.87500003874349,0.027488935738802,0.0473420582711697,-0.0177150927484035
0,0.483333354271415,0.0472222237439329,0.869444471210474,0.0311541277915239,0.021685715764761,-0.00824668072164059
0,0.484722246154669,0.0444444460554069,0.872222254976982,0.0326812900602817,0.00305432616733015,-0.0100792767480016
0,0.486111138037923,0.0416666683668809,0.86805557932722,0.0241291765123606,-0.000610865245107561,0.00244346098043024
0,0.49166670557094,0.0458333348996699,0.859722228027695,0.0210748501121998,0.00305432616733015,0.0033597587607801
0,0.488888921804431,0.0513888902767219,0.865277795560711,0.0180205255746841,0.0161879286170006,0.00946841109544039
0,0.488888921804431,0.0486111125881959,0.876388930626744,0.0302378293126821,0.0305432621389627,0.0113010071218014
0,0.488888921804431,0.0513888902767219,0.876388930626744,0.0171042270958424,0.0134390350431204,0.017409659922123
0,0.484722246154669,0.0472222237439329,0.87500003874349,0.00916297826915979,0.00885754637420177,0.00671951752156019
0,0.486111138037923,0.0458333348996699,0.866666687443965,-0.00885754637420177,0.021685715764761,0.00519235478714108
0,0.487500029921177,0.0430555572111439,0.865277795560711,-0.021685715764761,0.0284052342176437,0.00244346098043024
0,0.488888921804431,0.0416666683668809,0.858333336144441,-0.0326812900602817,0.03176499158144,0.000610865245107561
0,0.488888921804431,0.0402777795226179,0.870833363093728,-0.0305432621389627,0.01588249579072,-0.00244346098043024
0,0.490277813687686,0.0416666683668809,0.877777822509998,0.00122173049021512,0.0256563406437635,-0.00610865233466029
0,0.488888921804431,0.0361111129898289,0.873611146860236,0.0189368221908808,0.0671951770782471,-0.00885754637420177
0,0.488888921804431,0.0402777795226179,0.872222254976982,0.0259617734700441,0.0210748501121998,-0.00366519158706069
0,0.490277813687686,0.055555559848502,0.873611146860236,0.0143553335219622,-0.00427605677396059,-0.0027488935738802
0,0.488888921804431,0.055555559848502,0.880555606276507,0.0186313893646002,0.00519235478714108,-0.00916297826915979
0,0.49444444071359,0.055555559848502,0.876388930626744,-0.00855211354792118,0.0339030213654041,-0.013744467869401
0,0.497222224480098,0.0430555572111439,0.862500011794203,-0.0357356183230877,0.0751364231109619,-0.0134390350431204
0,0.49444444071359,0.0430555572111439,0.865277795560711,-0.0461203269660473,0.0956004112958908,-0.00977384392172098
0,0.487500029921177,0.0486111125881959,0.880555606276507,-0.0265726372599602,0.0971275717020035,-0.00366519158706069
0,0.484722246154669,0.0444444460554069,0.880555606276507,-0.0186313893646002,0.109955742955208,-0.000610865245107561
0,0.483333354271415,0.0486111125881959,0.895833319744586,-0.011606439948082,0.0922406539320946,-0.0045814891345799
0,0.488888921804431,0.0513888902767219,0.890277849459286,0.00244346098043024,0.0601702257990837,-0.0128281703218818
0,0.479166678621653,0.0513888902767219,0.89166674134254,0.0100792767480016,0.0253509078174829,-0.00794124789535999
0,0.473611111088636,0.0458333348996699,0.887500065692777,0.000916297896765172,-0.027488935738802,-0.00610865233466029
0,0.473611111088636,0.0458333348996699,0.887500065692777,0.000610865245107561,-0.0659734457731247,0.000916297896765172
0,0.469444484062732,0.0569444456537738,0.89722221162784,0.0290160998702049,-0.0522289797663689,-0.00916297826915979
0,0.476388894855144,0.0597222233422998,0.877777822509998,0.0488692186772823,-0.0678060427308083,-0.0183259565383196
0,0.481944462388161,0.0583333375370279,0.877777822509998,0.0525344125926495,-0.0720821022987366,-0.0045814891345799
0,0.483333354271415,0.0597222233422998,0.877777822509998,0.0213802829384804,-0.0601702257990837,-0.00366519158706069
0,0.483333354271415,0.0583333375370279,0.886111173809523,-0.00702495034784079,-0.070249505341053,-0.0033597587607801
0,0.47500000297189,0.055555559848502,0.901388887277602,0.0033597587607801,-0.0980438739061356,-0.00733038317412138
0,0.487500029921177,0.0583333375370279,0.933333400592447,0.0384845100343227,-0.150272846221924,-0.0106901414692402
0,0.488888921804431,0.0513888902767219,0.906944454810619,0.0378736443817616,-0.236404851078987,-0.00427605677396059
0,0.500000008246606,0.0486111125881959,0.876388930626744,0.08460483700037,-0.207388743758202,0.0045814891345799
0,0.543055559379768,0.0722222259796579,0.887500065692777,0.116980694234371,-0.244651526212692,0.0103847095742822
0,0.63888890482887,0.0833333367337618,0.929166724942685,0.0891863256692886,-0.278859972953796,0.0540615729987621
0,0.63888890482887,0.0833333367337618,0.929166724942685,-0.0925460830330849,-0.411417752504349,0.138055548071861
0,0.718055596302781,0.0611111152255539,0.983333411141879,-0.281608879566193,-0.604145705699921,0.214719131588936
0,0.745833336720147,-0.00138888893923146,1.02361117850853,-0.428827404975891,-0.72570788860321,0.279470860958099
0,0.745833336720147,-0.00138888893923146,1.02361117850853,-0.550389587879181,-0.828638732433319,0.34941491484642
0,0.716666704419527,-0.0208333341834404,0.994444448960196,-0.573602437973022,-0.907745778560638,0.379958182573318
0,0.609722223904392,-0.0194444453391775,0.85138887672817,-0.481667250394821,-1.08611845970154,0.410196006298065
0,0.536111148587356,-0.00833333382532574,0.780555585177642,-0.295047909021378,-1.01067650318146,0.317649930715561
0,0.536111148587356,-0.00833333382532574,0.780555585177642,-0.0726929605007172,-0.98929625749588,0.197004035115242
0,0.466666700296224,0.00833333382532574,0.713888920653019,0.0882700309157372,-0.885754585266113,0.0907134860754013
0,0.409722230330521,0.0222222230277034,0.659722234453824,0.255341678857803,-0.783740103244781,0.00580321997404099
0,0.361111135976272,0.0222222230277034,0.626388926503441,0.387288570404053,-0.68630713224411,-0.0265726372599602
0,0.326388911830706,0.033333335301303,0.598611137462217,0.528398454189301,-0.443182736635208,-0.0433714315295219
0,0.348611133338914,0.0486111125881959,0.611111115787646,0.561385154724121,-0.300240278244019,-0.0448985956609249
0,0.387500008822313,0.0500000014324589,0.584722267253534,0.468228220939636,-0.135612085461616,-0.021685715764761
0,0.444444478788016,0.0416666683668809,0.594444461812454,0.377514719963074,0.0280998013913631,-0.0027488935738802
0,0.508333359546131,0.0361111129898289,0.633333337295854,0.324674874544144,-0.0992656052112579,0.0494800843298435
0,0.581944483487025,0.0250000007162294,0.672222261403111,0.240070044994354,-0.0519235469400883,0.0907134860754013
0,0.647222256128395,0.03194444645704,0.738888925927735,0.132863193750381,0.277638256549835,0.0959058403968811
0,0.70416667747024,0.03194444645704,0.781944477060896,0.0345138870179653,0.47647488117218,0.0699440687894821
0,0.745833336720147,0.0250000007162294,0.790277828360421,0.00397062394768,0.606894612312317,0.0360410511493683
0,0.759722255552688,0.0138888899621255,0.786111152710659,-0.0021380283869803,0.563523173332214,-0.0219911485910416
0,0.761111147435943,0.00277777787846293,0.805555590452358,-0.0149661982432008,0.445015341043472,-0.0675006061792374
0,0.755555579902926,-0.00416666691266287,0.837500055143345,-0.0354301854968071,0.366213709115982,-0.0952949747443199
0,0.737500034044481,0.00277777787846293,0.840277838909853,-0.0488692186772823,0.278249114751816,-0.135917514562607
0,0.709722245003256,0.00138888893923146,0.834722271376837,-0.0229074470698834,0.124005645513535,-0.180816113948822
0,0.706944461236748,0.00555555575692586,0.809722266102121,0.00610865233466029,-0.000916297896765172,-0.201890960335732
0,0.690277807261557,-0.00138888893923146,0.786111152710659,-0.0213802829384804,-0.107817716896534,-0.190895393490791
0,0.673611153286365,-0.00277777787846293,0.765277823085705,-0.0543670058250427,-0.139888137578964,-0.175623759627342
0,0.654166666920807,0.00277777787846293,0.784722260827405,-0.0335975885391235,-0.163101017475128,-0.163101017475128
0,0.652777823661411,0.00416666691266287,0.762500039319197,-0.0424551330506802,-0.186313897371292,-0.177456349134445
0,0.655555558804062,-0.00694444498106275,0.723611115211939,-0.10048733651638,-0.182954147458077,-0.182648703455925
0,0.663888910103586,-0.0194444453391775,0.675000045169619,-0.133474051952362,-0.102319926023483,-0.182954147458077
0,0.70416667747024,-0.0486111125881959,0.663888910103586,-0.112093769013882,0.00549778714776039,-0.22693644464016
0,0.723611115211939,-0.0541666679652478,0.713888920653019,-0.0268780700862408,0.0659734457731247,-0.224492982029915
0,0.698611158561081,-0.0361111129898289,0.784722260827405,0.0455094613134861,-0.00519235478714108,-0.202807262539864
0,0.683333347845286,-0.0194444453391775,0.818055568777787,0.199142068624496,-0.0259617734700441,-0.177150920033455
0,0.691666699144811,-0.0152777788063885,0.770833341994863,0.249843880534172,0.00397062394768,-0.156686931848526
0,0.683333347845286,-0.0250000007162294,0.690277807261557,0.24862214922905,0.0497855171561241,-0.135001212358475
0,0.68472223972854,-0.052777782159976,0.634722229179108,0.236710280179977,0.183565005660057,-0.100181899964809
0,0.68472223972854,-0.052777782159976,0.634722229179108,0.191200822591782,0.370184332132339,-0.0690277740359306
0,0.680555564078778,-0.0583333375370279,0.656944450687316,0.135917514562607,0.494189977645874,-0.119729585945606
0,0.68472223972854,-0.0458333348996699,0.720833380069289,0.214108273386955,0.57574051618576,-0.178983509540558
0,0.68472223972854,-0.0458333348996699,0.720833380069289,0.39064833521843,0.687223374843597,-0.115453533828259
0,0.719444488186035,-0.0694444482911319,0.691666699144811,0.358883321285248,0.378736466169357,0.166460782289505
0,0.676388937052873,-0.0388888906783549,0.712500028769764,0.13744467496872,-0.0140499006956816,0.361937671899795
0,0.608333332021137,0.0625000010308258,0.775000017644626,0.0540615729987621,0.190895393490791,0.315206468105316
0,0.552777802562547,0.0777777813567098,0.768055606852213,-0.237015709280968,0.439517557621002,0.439822971820831
0,0.552777802562547,0.0777777813567098,0.768055606852213,-0.597120761871338,-0.244956970214844,1.36039686203003
0,0.515277818962402,0.12916666555545,0.854166660494678,-0.735787212848663,-0.547335267066956,1.5567901134491
0,0.515277818962402,0.12916666555545,0.854166660494678,-0.556192815303802,-0.251065611839294,1.55098688602448
0,0.679166672195524,-0.00972222266958873,0.723611115211939,-0.596815347671509,-0.0931569486856461,1.37261426448822
0,0.679166672195524,-0.00972222266958873,0.723611115211939,-0.620639085769653,-0.143858760595322,1.17835903167725
0,0.695833374794573,-0.0750000036681839,0.830555595727074,-0.426078498363495,-0.446847915649414,1.1389582157135
0,0.601388921228725,-0.0652777787193518,1.01527782720901,-0.202196389436722,-0.430965423583984,1.2324206829071
0,0.601388921228725,-0.0652777787193518,1.01527782720901,0.207388743758202,-0.00244346098043024,1.35092854499817
0,0.545833343146276,-0.030555557612777,1.00972225967599,0.558636248111725,0.310930401086807,1.55281949043274
0,0.481944462388161,-0.00694444498106275,0.880555606276507,0.573907911777496,-0.0739146918058395,1.6701055765152
0,0.50138890012986,-0.00555555575692586,0.836111163260091,0.555887401103973,-0.618195652961731,1.70187056064606
0,0.587500002396184,-0.0166666676506515,0.759722255552688,0.40164390206337,-0.436768651008606,1.49845242500305
0,0.636111121062362,-0.0680555564078778,0.781944477060896,0.561079740524292,-0.204028993844986,1.39827048778534
0,0.587500002396184,-0.0986111170596459,0.811111157985375,0.75105881690979,-0.262977480888367,1.46332764625549
0,0.479166678621653,-0.0722222259796579,0.812500049868629,0.87109386920929,-0.336281329393387,1.79044604301453
0,0.305555557893823,0.0152777788063885,0.75694447178618,0.767552196979523,-0.511294186115265,2.38542866706848
0,0.305555557893823,0.0777777813567098,0.747222228603401,0.869261264801025,-0.281914323568344,2.40650367736816
0,0.493055597454194,-0.00972222266958873,0.841666730793107,1.24372160434723,0.676227807998657,2.16460108757019
0,0.601388921228725,-0.158333334323963,0.938888968125464,0.957225859165192,2.05556154251099,1.89826369285583
0,0.712500028769764,-0.327777779402031,0.972222276075846,0.540921151638031,3.74826908111572,0.898582756519318
0,0.781944477060896,-0.440277803138253,0.940277860008718,0.167682513594627,4.07263851165771,0.737008929252625
0,0.758333363669434,-0.462500024646461,0.852777768611424,-0.470060795545578,3.4012975692749,1.96484804153442
0,0.488888921804431,-0.363888895430851,0.777777801411134,-1.2067643404007,1.20859694480896,6.24731874465942
0,0.4194444735133,-0.236111109602691,0.786111152710659,0.57604593038559,0.11087204515934,8.73751068115234
0,0.462500024646461,-0.112499999424294,0.787500044593913,1.98409032821655,-0.0461203269660473,9.48185062408447
0,0.466666700296224,-0.0138888899621255,0.762500039319197,0.810923635959625,2.84877014160156,8.14008522033691
0,0.455555565230191,-0.0708333340964038,0.745833336720147,-2.59251213073731,4.818199634552,5.16761445999146
0,0.18333333959868,-0.354166676560001,0.927777833059431,-3.52988481521606,4.24001550674438,3.55615210533142
0,-0.0750000036681839,-0.390277792588821,0.965277816659576,-2.48927593231201,0.541532039642334,2.89030885696411
0,-0.262500006760661,-0.290277795801886,0.984722303025134,0.0332921557128429,-1.6111570596695,2.74034142494202
0,-0.236111109602691,-0.233333350148112,1.04166667574312,1.18110799789429,-0.986547350883484,2.11786985397339
0,-0.265277790527169,-0.29166668768514,1.00138890837647,0.994794070720673,-1.2501357793808,1.61207342147827
0,-0.190277786858986,-0.391666684472075,0.893055633225794,-0.434936046600342,-1.94224607944489,1.22997713088989
0,-0.0847222225390337,-0.452777781463682,0.773611125761372,-3.15053749084473,-2.80112266540527,0.901026248931885
0,-0.0138888899621255,-0.431944451838729,0.759722255552688,-4.68594741821289,-3.62395811080933,0.615446746349335
0,-0.0138888899621255,-0.431944451838729,0.759722255552688,-4.21558094024658,-4.46359252929688,0.0977384373545647
0,0.0847222225390337,-0.563888889004722,0.948611114060526,-2.06197571754456,-4.12731122970581,-0.638354182243347
0,0.0513888902767219,-0.608333332021137,1.00555558402623,-1.80846655368805,-2.98041152954102,-0.909883797168732
0,0.0194444453391775,-0.706944461236748,1.04861113515939,-2.43063282966614,-1.67041099071503,-0.991739749908447
0,0.0750000036681839,-0.736111142161226,0.912500022343635,-2.87839698791504,-1.14170718193054,-0.908051192760468
0,0.213888888094483,-0.645833364245141,0.663888910103586,-3.82645988464356,-2.06655716896057,-1.51647293567657
0,0.17361112072783,-0.663888910103586,0.618055575203916,-4.39181566238403,-2.51035070419311,-1.91536796092987
0,0.168055565350778,-0.791666671619817,0.719444488186035,-4.0512580871582,-1.53143918514252,-2.10565257072449
0,0.193055558469529,-0.879166714393253,0.666666693870094,-3.1957414150238,0.389426589012146,-1.70156514644623
0,0.373611114301701,-0.958333357243305,0.495833332596844,-3.01370358467102,0.387593984603882,-1.40712809562683
0,0.356944460326509,-0.956944465360051,0.345833349572405,-3.22628474235535,-0.0870482996106148,-0.939816176891327
0,0.390277792588821,-0.916666697993398,0.318055560531181,-3.47399067878723,-0.434630632400513,-0.733038306236267
0,0.380555573717971,-0.961111141009813,0.223611131277262,-3.98497939109802,-0.540921151638031,-0.559247136116028
0,0.386111116939059,-0.944444438410764,0.14722222356986,-5.34048938751221,-1.11818885803223,-0.328645497560501
0,0.466666700296224,-0.973611167959101,-0.0597222233422998,-6.25098419189453,-1.82434904575348,-0.756862044334412
0,0.563888889004722,-1.0361111082101,-0.0847222225390337,-4.75528049468994,-1.46393859386444,-1.78250479698181
0,0.625000034620187,-1.08194444310977,-0.120833338567854,-2.54761362075806,-1.54884886741638,-2.44132304191589
0,0.56666667277123,-1.12499999424293,-0.243055569018962,-0.754113137722015,-1.38544237613678,-1.8945986032486
0,0.526388905404577,-1.06527783775844,-0.352777784676747,0.449902266263962,-1.47279608249664,-0.591928422451019
0,0.483333354271415,-1.08888890252604,-0.388888900705567,1.18416225910187,-1.07206845283508,0.985936522483826
0,0.470833327322128,-0.983333411141879,-0.380555573717971,1.38299894332886,-0.842383146286011,1.33748948574066
0,0.470833327322128,-0.983333411141879,-0.380555573717971,1.28403878211975,-1.19546329975128,1.27976274490356
0,0.383333357484479,-0.780555585177642,-0.363888895430851,0.57604593038559,-1.19943392276764,0.94042706489563
0,0.423611149163062,-0.818055568777787,-0.304166666010569,-0.434936046600342,-0.652404069900513,0.138666406273842
0,0.423611149163062,-0.818055568777787,-0.304166666010569,-0.958752989768982,-0.0678060427308083,-0.532674491405487
0,0.554166694445801,-0.925000049292922,-0.224999998848587,-1.74157679080963,0.692110300064087,-0.349109500646591
0,0.548611126912784,-0.913888914226889,-0.276388901281273,-1.83870434761047,-1.6090190410614,-0.230601623654366
0,0.644444472361887,-0.827777811960566,-0.301388906555989,-1.87474548816681,-2.28646850585938,-0.265420943498612
0,0.579166699720517,-0.788888936477167,-0.281944444502361,-1.60352122783661,-1.41415309906006,0.2379320114851
0,0.516666662221798,-0.775000017644626,-0.273611117514765,-0.273056775331497,-1.34726333618164,0.562912344932556
0,0.516666662221798,-0.775000017644626,-0.273611117514765,0.717461228370667,-0.663705110549927,0.00671951752156019
0,0.580555591603771,-0.577777807837263,-0.477777786738398,0.0583376325666905,-0.580932855606079,-0.678976714611053
0,0.591666678045946,-0.56666667277123,-0.516666662221798,-0.814588785171509,-1.23211514949799,-1.12918436527252
0,0.591666678045946,-0.56666667277123,-0.516666662221798,-1.20279371738434,-0.660039901733398,-0.958752989768982
0,0.630555602153203,-0.762500039319197,-0.388888900705567,-0.148745685815811,0.427300244569778,-0.55527651309967
0,0.50138890012986,-0.729166682744956,-0.319444452414435,1.24188899993897,-0.162795588374138,-0.869566679000854
0,0.312500017310094,-0.600000029345471,-0.187500003092477,2.7824912071228,0.124005645513535,-0.931569516658783
0,0.394444468238583,-0.504166683896369,-0.14722222356986,3.77850699424744,1.11146926879883,-1.8289304971695
0,0.394444468238583,-0.504166683896369,-0.14722222356986,2.60503482818604,1.38666415214539,-3.06959795951843
0,0.75694447178618,-0.652777823661411,-0.323611128064198,-0.170125976204872,-0.266337245702743,-1.93674826622009
0,0.594444461812454,-0.815277785011279,-0.263888898643915,-0.511294186115265,-0.0629191175103188,-0.478307485580444
0,0.531944472937593,-0.627777818386695,-0.279166685047782,0.423329621553421,0.445626199245453,-0.721431851387024
0,0.538888932353864,-0.618055575203916,-0.325000019947452,0.75564032793045,0.149661988019943,-1.203404545784
0,0.670833369519857,-0.837500055143345,-0.231944458264858,0.647822618484497,-0.0271835029125214,-1.37780654430389
0,0.670833369519857,-0.837500055143345,-0.231944458264858,0.0577267669141293,0.132557764649391,-0.62002819776535
0,0.731944466511464,-0.902777779160856,-0.266666682410424,0.19058994948864,0.478612929582596,-0.365602850914002
0,0.630555602153203,-0.812500049868629,-0.262500006760661,0.28557950258255,0.0128281703218818,-0.585819780826569
0,0.630555602153203,-0.812500049868629,-0.262500006760661,0.0623082555830479,0.103847093880177,-1.09253251552582
0,0.620833358970425,-0.719444488186035,-0.272222225631511,-0.124005645513535,0.0213802829384804,-1.99080979824066
0,0.797222239152834,-0.765277823085705,-0.350000000910239,0.00610865233466029,0.218995183706284,-2.08396673202515
0,0.86805557932722,-0.716666704419527,-0.348611133338914,-0.12705996632576,0.514959394931793,-1.59435832500458
0,0.86805557932722,-0.716666704419527,-0.348611133338914,-0.340557366609573,0.527787566184998,-1.62856674194336
0,0.811111157985375,-0.6125000076709,-0.25555557165632,-0.499076902866364,0.469144523143768,-1.70400857925415
0,0.811111157985375,-0.6125000076709,-0.25555557165632,-0.525344133377075,0.361326783895493,-1.60046696662903
0,0.863888903677457,-0.556944478212309,-0.265277790527169,-0.401033043861389,0.17409659922123,-1.28251159191132
0,0.901388887277602,-0.54722223502953,-0.277777793164528,-0.311846703290939,0.0491746515035629,-1.12551915645599
0,0.873611146860236,-0.512500035195893,-0.262500006760661,-0.431270867586136,0.0537561401724815,-1.20768058300018
0,0.901388887277602,-0.502777792013115,-0.237500001485945,0.0629191175103188,-0.117286130785942,-1.17194497585297
0,0.94305554652751,-0.461111132763207,-0.315277801076602,-0.0806342139840126,0.377514719963074,-1.31427657604218
0,0.859722228027695,-0.427777776188966,-0.312500017310094,0.0641408488154411,0.667981147766113,-1.64475464820862
0,0.848611190209378,-0.418055581630046,-0.284722228268869,-0.00366519158706069,0.821613729000092,-1.91414630413055
0,0.834722271376837,-0.406944470875941,-0.252777787889811,0.0668897479772568,0.930653214454651,-2.16582274436951
0,0.805555590452358,-0.372222246730376,-0.286111120152123,0.0140499006956816,0.864374339580536,-1.68140661716461
0,1.07916665934326,-0.308333341660331,-0.25555557165632,0.0992656052112579,0.470671683549881,-0.82039201259613
0,1.12777777800944,-0.326388911830706,-0.252777787889811,0.0717766657471657,0.316428184509277,-0.784961819648743
0,0.983333411141879,-0.283333336385615,-0.252777787889811,0.0183259565383196,0.351858377456665,-1.03847086429596
0,1.02083339474202,-0.279166685047782,-0.202777789496344,-0.0626136884093285,0.186619326472282,-0.771217346191406
0,1.04722224327614,-0.250000004123303,-0.184722231481934,-0.0522289797663689,-0.0268780700862408,-0.525344133377075
0,0.888888957576031,-0.233333350148112,-0.158333334323963,-0.0668897479772568,-0.0577267669141293,-0.701884150505066
0,0.883333390043015,-0.276388901281273,-0.2194444556275,0.000305432622553781,0.304821759462357,-0.612086951732635
0,0.965277816659576,-0.177777784221628,-0.202777789496344,0.158214092254639,0.374154955148697,0.138666406273842
0,1.12083341584089,-0.179166676104882,-0.276388901281273,0.0308486949652433,0.544891774654388,0.374460399150848
0,1.13472223742571,-0.270833333748257,-0.187500003092477,0.0852157026529312,0.235793977975845,0.165544480085373
0,1.10138892947533,-0.241666677135707,-0.176388892338373,0.156381502747536,0.297491371631622,0.114842668175697
0,1.0333333244436,-0.25555557165632,-0.195833342236038,0.123394779860973,0.321620553731918,0.0381790772080422
0,1.02222228662528,-0.334722238818301,-0.259722222994153,-0.013744467869401,0.700662434101105,-0.229074463248253
0,0.962500032893068,-0.224999998848587,-0.0972222251763917,0.144469633698463,0.183259576559067,-0.168293371796608
0,0.956944465360051,-0.184722231481934,-0.0972222251763917,0.115758962929249,0.0736092627048492,-0.0885754600167274
0,0.94305554652751,-0.190277786858986,-0.120833338567854,0.0897971913218498,0.027488935738802,0.0418442711234093
0,0.706944461236748,-0.118055554801345,-0.0583333375370279,0.246484130620956,-0.13225232064724,0.636216163635254
0,0.984722303025134,-0.281944444502361,-0.200000005729836,0.123394779860973,0.16371189057827,0.0406225398182869
0,1.1652778588573,-0.341666673922643,-0.220833347510754,0.0290160998702049,0.401033043861389,-0.610865235328674
0,1.08055555122652,-0.304166666010569,-0.19166667874224,-0.0400116741657257,0.361326783895493,-0.60903263092041
0,0.933333400592447,-0.20972223675665,-0.108333335930496,-0.116675265133381,0.266948103904724,-0.62338799238205
0,0.986111194908388,-0.216666671860991,-0.101388894748172,0.00305432616733015,0.186619326472282,-0.400727599859238
0,0.96666670854283,-0.240277785252453,-0.10972222781375,-0.0183259565383196,0.189673662185669,-0.811229050159454
0,1.03472221632685,-0.16527778158427,-0.12916666555545,0.0436768643558025,0.184481307864189,-0.5128213763237
0,1.06527783775844,-0.14583334384257,-0.123611110178398,-0.019547687843442,0.113620936870575,-0.304821759462357
0,1.01527782720901,-0.158333334323963,-0.113888891307548,-0.140804439783096,0.0778853222727776,-0.242208063602448
0,0.93750007624221,-0.133333341205212,-0.113888891307548,-0.112704634666443,0.186924770474434,0.0873537287116051
0,0.940277860008718,-0.158333334323963,-0.126388893944906,-0.12705996632576,0.271835029125214,0.140804439783096
0,0.791666671619817,-0.184722231481934,-0.120833338567854,-0.17409659922123,0.210137650370598,0.582765460014343
0,0.805555590452358,-0.193055558469529,-0.0875000002275597,-0.233655959367752,0.0247400421649218,0.955698668956757
0,0.729166682744956,-0.16527778158427,-0.0111111115138517,0.0387899428606033,-0.195171445608139,1.0012081861496
0,1.40972224682373,-0.138888896582264,-0.125000002061652,0.123700208961964,-0.151800006628036,0.289550125598908
0,1.38194450640637,-0.17361112072783,-0.130555557438704,0.0543670058250427,0.0103847095742822,0.102014496922493
0,1.20694451810721,-0.256944463539574,-0.212499996211229,-0.101709060370922,0.525649547576904,0.00122173049021512
0,1.1291666698927,-0.265277790527169,-0.141666668192807,-0.100792765617371,0.500604093074799,-0.0354301854968071
0,1.0305556379248,-0.259722222994153,-0.0916666697993398,-0.0678060427308083,0.445320755243301,-0.0757472887635231
0,0.983333411141879,-0.237500001485945,-0.0388888906783549,-0.0323758572340012,0.390953749418259,-0.0745255574584007
0,0.98888888142718,-0.216666671860991,-0.0402777795226179,0.120951317250729,0.0436768643558025,-0.0458148941397667
0,0.997222232726705,-0.222222239394008,-0.0666666706026059,0.0247400421649218,-0.103541657328606,-0.0775798857212067
0,1.06111116210868,-0.226388890731841,-0.104166672436698,0.0448985956609249,-0.10598511993885,-0.0809396430850029
0,1.02916674604155,-0.223611131277262,-0.0763888894734557,0.021685715764761,0.0384845100343227,-0.0033597587607801
0,1.01666671909226,-0.2194444556275,-0.0708333340964038,0.109650313854218,-0.0253509078174829,0.000916297896765172
0,1.00833336779274,-0.216666671860991,-0.0750000036681839,0.121867619454861,-0.0256563406437635,-0.00549778714776039
0,0.986111194908388,-0.208333344873396,-0.0791666671619817,0.0568104684352875,-0.0397062413394451,-0.037568211555481
0,0.993055557076942,-0.20972223675665,-0.0777777813567098,-0.0522289797663689,-0.000916297896765172,-0.0681114718317986
0,0.993055557076942,-0.20972223675665,-0.0777777813567098,-0.0687223374843597,0.0406225398182869,-0.0659734457731247
0,1.0361111082101,-0.190277786858986,-0.0777777813567098,0.0277943685650826,0.0623082555830479,-0.0427605658769607
0,1.04027778385987,-0.202777789496344,-0.0791666671619817,0.109344877302647,0.209526777267456,-0.00580321997404099
0,1.04027778385987,-0.202777789496344,-0.0791666671619817,0.146913096308708,0.220522359013557,-0.011606439948082
0,1.04444445950963,-0.213888888094483,-0.029166668768514,0.124921940267086,-0.0140499006956816,-0.0601702257990837
0,0.933333400592447,-0.236111109602691,-0.0111111115138517,-0.135917514562607,-0.822530031204224,0.128587126731873
0,0.933333400592447,-0.236111109602691,-0.0111111115138517,0.106595985591412,-1.23730754852295,0.137139245867729
0,1.00277780025972,-0.212499996211229,-0.10972222781375,0.210443079471588,-1.1966849565506,0.113926365971565
0,1.08750001064279,-0.24583335278547,-0.187500003092477,0.011606439948082,-0.235183119773865,0.0452040284872055
0,1.0361111082101,-0.223611131277262,-0.144444451959316,-0.0601702257990837,0.551611304283142,0.0308486949652433
0,1.20972230187372,-0.25555557165632,-0.598611137462217,-0.270613312721252,4.20092010498047,-0.0723875313997269
0,0.940277860008718,-0.213888888094483,0.29166668768514,0.0858265683054924,0.587652385234833,0.00152716308366507
0,0.787500044593913,-0.2194444556275,0.184722231481934,0.0766635909676552,-0.936150968074799,-0.0873537287116051
0,1.04583335139288,-0.233333350148112,-0.143055560076062,0.0106901414692402,0.400116741657257,-0.0302378293126821
0,1.0305556379248,-0.204166669223633,-0.0222222230277034,0.0213802829384804,-0.000916297896765172,-0.000610865245107561
0,1.02500007039179,-0.216666671860991,-0.0680555564078778,0.0384845100343227,0.078801617026329,0.0244346093386412
0,0.976388951725609,-0.190277786858986,-0.0250000007162294,-0.0253509078174829,-0.260228604078293,0.05283984541893
0,1.04861113515939,-0.211111128639904,-0.0930555616825939,0.0534507073462009,0.255647093057633,0.0293215326964855
0,1.00416669214298,-0.20972223675665,-0.0375000018340919,0.0778853222727776,-0.0397062413394451,0.0146607663482428
0,1.00972225967599,-0.226388890731841,-0.0222222230277034,0.0461203269660473,-0.0106901414692402,-0.0427605658769607
0,1.00972225967599,-0.226388890731841,-0.0222222230277034,0.0342084541916847,0.225714713335037,0.00977384392172098
0,0.993055557076942,-0.197222234119292,-0.00277777787846293,-0.0690277740359306,-0.0720821022987366,0.0302378293126821
0,1.01527782720901,-0.223611131277262,-0.0472222237439329,-0.106595985591412,0.0222965814173222,-0.0775798857212067
0,1.01805561097552,-0.223611131277262,-0.029166668768514,-0.0100792767480016,0.0720821022987366,0.00702495034784079
0,1.02222228662528,-0.206944452990142,-0.0569444456537738,-0.0219911485910416,0.0791070461273193,0.0219911485910416
0,1.01388893532575,-0.223611131277262,-0.0458333348996699,-0.0167987942695618,0.0265726372599602,-0.0143553335219622
0,1.00555558402623,-0.208333344873396,-0.0388888906783549,0.0791070461273193,0.131030589342117,-0.0109955742955208
0,1.00694447590948,-0.223611131277262,-0.029166668768514,0.0293215326964855,-0.0482583530247212,-0.0198531206697226
0,1.01111115155925,-0.222222239394008,-0.0444444460554069,0.029626963660121,-0.0815505087375641,-0.0146607663482428
0,1.00277780025972,-0.206944452990142,-0.0180555564949145,0.0177150927484035,-0.127365410327911,-0.0177150927484035
0,1.01388893532575,-0.205555561106887,-0.03194444645704,0.0106901414692402,-0.0390953756868839,-0.00427605677396059
0,1.02083339474202,-0.211111128639904,-0.0416666683668809,0.0287106670439243,-0.0106901414692402,-0.00946841109544039
0,1.01527782720901,-0.229166674498349,-0.00972222266958873,0.0873537287116051,-0.0235183127224445,-0.00977384392172098
0,1.01944450285877,-0.222222239394008,-0.0500000014324589,0.112399205565453,0.215330004692078,-0.0167987942695618
0,1.01944450285877,-0.20972223675665,-0.0194444453391775,0.248316720128059,0.0372627787292004,-0.0314595587551594
0,1.00000001649321,-0.205555561106887,-0.00972222266958873,0.119729585945606,-0.00427605677396059,-0.0125227374956012
0,1.0125000434425,-0.200000005729836,-0.0208333341834404,0.0928515195846558,0.0641408488154411,-0.000610865245107561
0,1.01111115155925,-0.200000005729836,-0.026388891079988,0.0387899428606033,0.0812450796365738,-0.00946841109544039
0,1.0305556379248,-0.204166669223633,-0.0444444460554069,0.0027488935738802,0.272751331329346,-0.0113010071218014
0,1.01527782720901,-0.205555561106887,-0.0208333341834404,0.00549778714776039,0.211053937673569,0.000305432622553781
0,1.00972225967599,-0.212499996211229,-0.125000002061652,-0.0534507073462009,0.101403631269932,0.00183259579353034
0,0.940277860008718,-0.188888894975731,-0.00694444498106275,-0.0858265683054924,-0.0650571510195732,0.0751364231109619
0,1.01944450285877,-0.202777789496344,0.00972222266958873,0.00366519158706069,-0.309403240680695,0.00397062394768
0,1.02500007039179,-0.223611131277262,-0.0208333341834404,-0.0983493030071259,-0.0729983970522881,-0.0314595587551594
0,1.00277780025972,-0.2194444556275,-0.00555555575692586,-0.0326812900602817,-0.0335975885391235,-0.0503963828086853
0,1.05416670269241,-0.20972223675665,-0.0750000036681839,0.0241291765123606,0.298407673835754,-0.00855211354792118
0,1.04166667574312,-0.200000005729836,-0.00277777787846293,0.04764748737216,0.183870434761047,0.0204639863222837
0,0.986111194908388,-0.202777789496344,0.029166668768514,0.0681114718317986,-0.0897971913218498,-0.015577063895762
0,0.997222232726705,-0.20972223675665,-0.0194444453391775,0.0213802829384804,-0.00855211354792118,0.0113010071218014
0,1.02500007039179,-0.223611131277262,-0.0125000003581147,-0.0858265683054924,0.0684169083833694,0.029626963660121
0,1.00833336779274,-0.205555561106887,-0.0152777788063885,-0.0659734457731247,0.0299323964864016,0.0106901414692402
0,0.99583334084345,-0.20972223675665,-0.0236111118719664,-0.0540615729987621,-0.0650571510195732,-0.00183259579353034
0,1.01527782720901,-0.223611131277262,-0.0111111115138517,-0.160352125763893,-0.145385921001434,-0.0180205255746841
0,1.01527782720901,-0.206944452990142,-0.00972222266958873,-0.108123145997524,-0.263893783092499,0.0299323964864016
0,1.02916674604155,-0.200000005729836,-0.0222222230277034,0.0271835029125214,-0.324369430541992,-0.01191187184304
0,1.02222228662528,-0.212499996211229,-0.029166668768514,0.0113010071218014,-0.296269655227661,0.00519235478714108
0,1.01388893532575,-0.206944452990142,-0.0388888906783549,-0.0384845100343227,-0.225714713335037,0.0363464802503586
0,1.01944450285877,-0.193055558469529,-0.0388888906783549,-0.0458148941397667,-0.142026171088219,0.0620028227567673
0,1.01527782720901,-0.213888888094483,-0.03194444645704,-0.0525344125926495,-0.129503428936005,0.0427605658769607
0,1.01527782720901,-0.226388890731841,-0.0458333348996699,-0.0284052342176437,-0.115453533828259,0.00946841109544039
0,1.01527782720901,-0.226388890731841,-0.0458333348996699,0.0189368221908808,-0.130725160241127,-0.0219911485910416
0,1.01944450285877,-0.223611131277262,-0.055555559848502,-0.000610865245107561,-0.087659165263176,-0.0213802829384804
0,1.01527782720901,-0.223611131277262,-0.0458333348996699,0.0329867228865623,0.0198531206697226,-0.0219911485910416
0,1.01527782720901,-0.223611131277262,-0.0458333348996699,-0.000916297896765172,0.0797179117798805,-0.00183259579353034
0,1.0333333244436,-0.2194444556275,-0.0430555572111439,-0.0311541277915239,0.23823744058609,-0.000305432622553781
0,1.03888889197661,-0.2194444556275,-0.0402777795226179,-0.0256563406437635,0.342084527015686,-0.00885754637420177
0,1.03888889197661,-0.2194444556275,-0.0402777795226179,0.0766635909676552,0.321620553731918,-0.00977384392172098
0,1.02500007039179,-0.229166674498349,-0.0194444453391775,0.153021737933159,0.134084925055504,-0.029626963660121
0,0.98888888142718,-0.212499996211229,0.00694444498106275,0.161879286170006,0.0433714315295219,-0.0448985956609249
0,0.98888888142718,-0.212499996211229,0.00694444498106275,0.0980438739061356,-0.0647517144680023,-0.0543670058250427
0,0.977777843608863,-0.195833342236038,-0.0125000003581147,0.0925460830330849,0.0302378293126821,-0.01191187184304
0,1.00833336779274,-0.195833342236038,-0.0152777788063885,0.110261179506779,-0.118507854640484,-0.0125227374956012
0,1.01527782720901,-0.213888888094483,-0.0222222230277034,0.0473420582711697,0.0568104684352875,-0.0027488935738802
0,1.02916674604155,-0.220833347510754,-0.0347222241455659,0.0833831056952477,0.0106901414692402,-0.0100792767480016
0,1.01388893532575,-0.223611131277262,-0.030555557612777,0.0931569486856461,0.0271835029125214,-0.0247400421649218
0,1.01944450285877,-0.218055563744246,-0.03194444645704,0.0739146918058395,0.0271835029125214,-0.0171042270958424
0,1.01666671909226,-0.216666671860991,-0.026388891079988,0.0690277740359306,0.0146607663482428,-0.00122173049021512
0,1.01527782720901,-0.212499996211229,-0.026388891079988,0.0861319974064827,0.0280998013913631,-0.00794124789535999
0,1.01944450285877,-0.216666671860991,-0.0250000007162294,0.0919352173805237,0.0192422550171614,0.0027488935738802
0,1.01944450285877,-0.212499996211229,-0.026388891079988,0.0833831056952477,0.015577063895762,-0.00397062394768
0,1.01527782720901,-0.213888888094483,-0.0250000007162294,0.0940732508897781,0.0256563406437635,0.00305432616733015
0,1.0125000434425,-0.216666671860991,-0.027777779924251,0.104457959532738,0.0244346093386412,-0.00702495034784079
0,1.01527782720901,-0.223611131277262,-0.03194444645704,0.102014496922493,0.0146607663482428,-0.0134390350431204
0,1.01527782720901,-0.218055563744246,-0.0194444453391775,0.120645888149738,0.015577063895762,-0.0140499006956816
0,1.0125000434425,-0.212499996211229,-0.00833333382532574,0.113926365971565,0.015577063895762,-0.0222965814173222
0,1.0125000434425,-0.20972223675665,-0.00833333382532574,0.106595985591412,0.0262672062963247,-0.015577063895762
0,1.01388893532575,-0.215277779977737,-0.0180555564949145,0.12705996632576,0.0467311926186085,-0.011606439948082
0,1.01388893532575,-0.229166674498349,-0.029166668768514,0.143247902393341,0.0424551330506802,-0.0171042270958424
0,1.01527782720901,-0.229166674498349,-0.0222222230277034,0.162490159273148,0.04764748737216,-0.0189368221908808
0,1.01527782720901,-0.224999998848587,-0.0111111115138517,0.187535628676414,0.0290160998702049,-0.02382374368608
0,1.01388893532575,-0.2194444556275,-0.0222222230277034,0.202196389436722,0.0284052342176437,-0.0210748501121998
0,1.01527782720901,-0.220833347510754,-0.00972222266958873,0.217468023300171,0.0265726372599602,-0.0161879286170006
0,1.01527782720901,-0.2194444556275,-0.0125000003581147,0.232128798961639,0.0348193198442459,-0.0149661982432008
0,0.997222232726705,-0.220833347510754,-0.00277777787846293,0.23823744058609,0.0479529201984406,-0.0189368221908808
0,1.01111115155925,-0.216666671860991,-0.00833333382532574,0.256868839263916,0.0436768643558025,-0.0287106670439243
0,1.02500007039179,-0.213888888094483,-0.0138888899621255,0.268169850111008,0.0543670058250427,-0.0351247526705265
0,1.01944450285877,-0.212499996211229,-0.00555555575692586,0.277638256549835,0.0445931628346443,-0.0290160998702049
0,1.01944450285877,-0.212499996211229,-0.00138888893923146,0.281303435564041,0.0833831056952477,-0.0253509078174829
0,1.01527782720901,-0.216666671860991,0.00277777787846293,0.304210901260376,0.0937678143382072,-0.0259617734700441
0,1.0125000434425,-0.220833347510754,0.00277777787846293,0.330783516168594,0.0885754600167274,-0.0183259565383196
0,1.00972225967599,-0.223611131277262,0.00972222266958873,0.368046313524246,0.151800006628036,-0.0131336031481624
0,1.0125000434425,-0.226388890731841,0.0111111115138517,0.393702656030655,0.123089343309402,-0.0256563406437635
0,1.01666671909226,-0.236111109602691,-0.00277777787846293,0.425162196159363,0.102625362575054,-0.0363464802503586
0,1.02916674604155,-0.224999998848587,0.0194444453391775,0.470060795545578,0.0931569486856461,-0.029626963660121
0,1.01111115155925,-0.213888888094483,0.0236111118719664,0.474642306566238,0.0592539273202419,-0.0210748501121998
0,0.99583334084345,-0.212499996211229,0.026388891079988,0.467311918735504,0.0436768643558025,-0.0229074470698834
0,1.01944450285877,-0.204166669223633,0.0194444453391775,0.484110713005066,0.0516181141138077,-0.0384845100343227
0,1.02083339474202,-0.198611113846581,0.0250000007162294,0.510377883911133,0.0421497002243996,-0.0198531206697226
0,1.01111115155925,-0.190277786858986,0.0347222241455659,0.488081336021423,0.0558941699564457,-0.0103847095742822
0,1.00972225967599,-0.181944447715425,0.0402777795226179,0.470366239547729,0.0366519130766392,-0.0262672062963247
0,1.01666671909226,-0.184722231481934,0.0388888906783549,0.459065228700638,0.0455094613134861,-0.0183259565383196
0,1.02222228662528,-0.193055558469529,0.03194444645704,0.437684953212738,0.0647517144680023,-0.02382374368608
0,1.01527782720901,-0.204166669223633,0.0402777795226179,0.435852348804474,0.0675006061792374,-0.0134390350431204
0,1.0125000434425,-0.211111128639904,0.0500000014324589,0.44348818063736,0.0522289797663689,-0.021685715764761
0,1.01388893532575,-0.222222239394008,0.0458333348996699,0.445931643247604,0.0616973899304867,-0.01588249579072
0,1.01388893532575,-0.224999998848587,0.0402777795226179,0.492968261241913,0.0580321997404099,-0.0189368221908808
0,1.01944450285877,-0.231944458264858,0.0486111125881959,0.537256002426147,0.0543670058250427,-0.01588249579072
0,1.02222228662528,-0.2194444556275,0.052777782159976,0.590095818042755,0.0378736443817616,-0.00794124789535999
0,1.01666671909226,-0.212499996211229,0.0541666679652478,0.62491512298584,0.0247400421649218,0.0235183127224445
0,1.01666671909226,-0.212499996211229,0.0541666679652478,0.648128032684326,0.0384845100343227,0.0384845100343227
0,1.01805561097552,-0.193055558469529,0.052777782159976,0.662177920341492,0.0775798857212067,0.0540615729987621
5,1.00694447590948,-0.193055558469529,0.0680555564078778,0.683863639831543,0.0335975885391235,0.0455094613134861
5,1.01805561097552,-0.19166667874224,0.0611111152255539,0.704022169113159,0.0452040284872055,0.0180205255746841
5,1.01527782720901,-0.172222228844576,0.0777777813567098,0.707687377929688,0.0497855171561241,0.0167987942695618
5,1.00972225967599,-0.156944454596674,0.0819444448505077,0.661872506141663,0.02382374368608,0.029626963660121
5,1.00555558402623,-0.134722233088466,0.0819444448505077,0.616668462753296,0.000305432622553781,0.0183259565383196
5,1.0125000434425,-0.130555557438704,0.0986111170596459,0.581849157810211,0.0247400421649218,0.0366519130766392
5,1.01666671909226,-0.118055554801345,0.101388894748172,0.54428094625473,0.0113010071218014,0.0418442711234093
5,1.02361117850853,-0.113888891307548,0.0916666697993398,0.500604093074799,-0.01191187184304,0.0568104684352875
5,1.0305556379248,-0.116666675074056,0.0833333367337618,0.41813725233078,0.0033597587607801,0.0455094613134861
5,1.01944450285877,-0.10972222781375,0.0930555616825939,0.352774679660797,0.00824668072164059,0.0494800843298435
5,1.0125000434425,-0.113888891307548,0.113888891307548,0.267864406108856,0.0320704244077206,0.0320704244077206
5,1.00416669214298,-0.118055554801345,0.0944444474878658,0.187841057777405,0.0232128798961639,0.0335975885391235
5,1.00416669214298,-0.118055554801345,0.0944444474878658,0.15851953625679,0.0287106670439243,0.0287106670439243
5,1.00416669214298,-0.118055554801345,0.0944444474878658,0.118813291192055,0.0455094613134861,0.0232128798961639
5,1.0125000434425,-0.148611115453114,0.108333335930496,0.109955742955208,0.0250454749912024,0.0277943685650826
5,1.01805561097552,-0.154166670830166,0.0944444474878658,0.104152522981167,0.00794124789535999,0.01588249579072
5,1.02222228662528,-0.161111118090472,0.0833333367337618,0.115453533828259,0.00488692196086049,0.00733038317412138
5,1.02222228662528,-0.161111118090472,0.0833333367337618,0.102319926023483,0.0280998013913631,-0.0146607663482428
5,1.02222228662528,-0.161111118090472,0.0833333367337618,0.0485637858510017,0.0320704244077206,-0.0186313893646002
5,1.01111115155925,-0.150000007336368,0.102777780553444,0.01191187184304,0.0186313893646002,-0.0357356183230877
5,1.00833336779274,-0.144444451959316,0.0916666697993398,-0.00671951752156019,0.0348193198442459,-0.0284052342176437
5,1.0125000434425,-0.144444451959316,0.0916666697993398,-0.0262672062963247,0.00733038317412138,-0.0171042270958424
5,1.02222228662528,-0.141666668192807,0.0972222251763917,-0.0671951770782471,-0.0027488935738802,-0.0222965814173222
5,1.02638896227504,-0.144444451959316,0.0875000002275597,-0.101403631269932,0.00366519158706069,-0.0164933614432812
5,1.01527782720901,-0.15555556271342,0.0944444474878658,-0.142637029290199,-0.00610865233466029,-0.0103847095742822
5,1.00972225967599,-0.162500009973726,0.100000002864918,-0.169820532202721,-0.01191187184304,-0.0259617734700441
5,1.01666671909226,-0.180555567988136,0.0944444474878658,-0.159741267561913,-0.00641408516094089,-0.0525344125926495
5,1.02361117850853,-0.184722231481934,0.101388894748172,-0.150578290224075,-0.0250454749912024,-0.0696386396884918
5,1.01805561097552,-0.175000000455119,0.102777780553444,-0.177456349134445,-0.0222965814173222,-0.0641408488154411
5,1.00694447590948,-0.161111118090472,0.0972222251763917,-0.224187538027763,0.00824668072164059,-0.0491746515035629
5,1.00555558402623,-0.16527778158427,0.101388894748172,-0.255647093057633,0.0265726372599602,-0.0574213340878487
5,1.00277780025972,-0.176388892338373,0.0972222251763917,-0.252898216247559,0.0827722400426865,-0.0589484944939613
5,1.00555558402623,-0.18333333959868,0.101388894748172,-0.24862214922905,0.0519235469400883,-0.0607810914516449
5,1.01666671909226,-0.18333333959868,0.102777780553444,-0.264504641294479,0.0448985956609249,-0.0629191175103188
5,1.02500007039179,-0.18333333959868,0.111111119697004,-0.286190360784531,0.04764748737216,-0.0607810914516449
5,1.01805561097552,-0.184722231481934,0.102777780553444,-0.285274058580399,0.0299323964864016,-0.0574213340878487
5,1.01527782720901,-0.19166667874224,0.100000002864918,-0.267558991909027,0.0360410511493683,-0.0653625801205635
5,1.0125000434425,-0.202777789496344,0.0916666697993398,-0.240680903196335,0.0314595587551594,-0.0693332031369209
5,1.00833336779274,-0.204166669223633,0.0847222225390337,-0.215024560689926,0.0207694191485643,-0.0775798857212067
5,1.00555558402623,-0.197222234119292,0.0847222225390337,-0.175318330526352,0.0131336031481624,-0.0739146918058395
5,1.00833336779274,-0.186111123365188,0.0888888921108138,-0.151189148426056,0.019547687843442,-0.0558941699564457
5,1.00416669214298,-0.18333333959868,0.0916666697993398,-0.145691365003586,0.011606439948082,-0.0400116741657257
5,1.00138890837647,-0.187500003092477,0.0916666697993398,-0.133168622851372,0.0152716310694814,-0.0232128798961639
5,1.01944450285877,-0.197222234119292,0.0722222259796579,-0.130419731140137,-0.0400116741657257,-0.00366519158706069
5,1.02916674604155,-0.200000005729836,0.0777777813567098,-0.122478485107422,-0.03176499158144,0.0131336031481624
5,1.02638896227504,-0.188888894975731,0.0750000036681839,-0.131641462445259,-0.0345138870179653,0.0372627787292004
5,1.01527782720901,-0.186111123365188,0.0722222259796579,-0.129197999835014,-0.0442877300083637,0.0494800843298435
5,1.01388893532575,-0.193055558469529,0.0861111144222878,-0.104763388633728,-0.0403171069920063,0.0452040284872055
5,1.02222228662528,-0.194444450352783,0.101388894748172,-0.076052725315094,-0.0232128798961639,0.0351247526705265
5,1.01805561097552,-0.190277786858986,0.0944444474878658,-0.0635299831628799,-0.0192422550171614,0.0226020142436027
5,1.0125000434425,-0.18333333959868,0.0958333393711199,-0.0537561401724815,-0.0122173046693206,0.037568211555481
5,1.01527782720901,-0.161111118090472,0.0986111170596459,-0.0415388382971287,-0.0161879286170006,0.0500909499824047
5,1.01527782720901,-0.150000007336368,0.0944444474878658,-0.0387899428606033,-0.00702495034784079,0.0668897479772568
5,1.00972225967599,-0.151388899219622,0.0930555616825939,-0.0323758572340012,0.011606439948082,0.0720821022987366
5,1.01527782720901,-0.166666673467524,0.104166672436698,-0.0131336031481624,0.0265726372599602,0.0580321997404099
5,1.02083339474202,-0.175000000455119,0.0750000036681839,0.0021380283869803,0.0226020142436027,0.0409279726445675
5,1.02361117850853,-0.176388892338373,0.0805555590452358,0.0232128798961639,0.076052725315094,0.0226020142436027
5,1.01527782720901,-0.179166676104882,0.0875000002275597,0.0229074470698834,0.0601702257990837,-0.000610865245107561
5,1.02361117850853,-0.190277786858986,0.0833333367337618,0.0513126812875271,0.0772744566202164,-0.0232128798961639
5,1.02083339474202,-0.193055558469529,0.0986111170596459,0.0494800843298435,0.081855945289135,-0.0226020142436027
5,1.00833336779274,-0.194444450352783,0.0888888921108138,0.0311541277915239,0.0152716310694814,-0.0201585534960032
5,1.01944450285877,-0.187500003092477,0.0777777813567098,0.0418442711234093,0.0464257597923279,-0.011606439948082
5,1.02500007039179,-0.190277786858986,0.0680555564078778,0.0329867228865623,0.0473420582711697,-0.0109955742955208
5,1.01527782720901,-0.194444450352783,0.0611111152255539,0.0482583530247212,0.0497855171561241,-0.00946841109544039
5,1.00972225967599,-0.193055558469529,0.0694444482911319,0.0378736443817616,0.0177150927484035,0.00427605677396059
5,1.01944450285877,-0.19166667874224,0.0819444448505077,0.0549778714776039,0.0302378293126821,0.00916297826915979
5,1.00694447590948,-0.197222234119292,0.0944444474878658,0.0678060427308083,-0.00824668072164059,0.0140499006956816
5,1.00694447590948,-0.190277786858986,0.0944444474878658,0.0714712366461754,-0.0372627787292004,0.00702495034784079
5,1.00972225967599,-0.187500003092477,0.0847222225390337,0.0549778714776039,-0.0525344125926495,0.0235183127224445
5,1.02638896227504,-0.195833342236038,0.0777777813567098,0.076052725315094,-0.0241291765123606,0.0262672062963247
5,1.02777785415829,-0.200000005729836,0.0666666706026059,0.108734011650086,0.0146607663482428,0.0314595587551594
5,1.0125000434425,-0.200000005729836,0.0736111117849297,0.127670839428902,-0.0219911485910416,0.0262672062963247
5,1.00138890837647,-0.187500003092477,0.0888888921108138,0.142637029290199,-0.0540615729987621,0.0201585534960032
5,1.00277780025972,-0.170833336961321,0.0875000002275597,0.131641462445259,-0.0690277740359306,0.03176499158144
5,0.99583334084345,-0.163888889701015,0.0944444474878658,0.123394779860973,-0.0497855171561241,0.0198531206697226
5,0.993055557076942,-0.158333334323963,0.100000002864918,0.08460483700037,-0.0409279726445675,-0.00519235478714108
5,0.99583334084345,-0.154166670830166,0.0819444448505077,0.0479529201984406,-0.0598647929728031,0.0033597587607801
5,1.0125000434425,-0.134722233088466,0.0819444448505077,-0.01191187184304,-0.0284052342176437,-0.00641408516094089
5,1.03194452980806,-0.131944449321958,0.0722222259796579,-0.113620936870575,-0.0415388382971287,0.0122173046693206
5,1.05277781080915,-0.134722233088466,0.0680555564078778,-0.147218525409698,0.0235183127224445,0.0140499006956816
5,1.03750000009336,-0.161111118090472,0.0763888894734557,-0.156686931848526,0.0219911485910416,0.00916297826915979
5,1.0125000434425,-0.197222234119292,0.0902777839940679,-0.141415297985077,0.0164933614432812,-0.00794124789535999
5,0.997222232726705,-0.216666671860991,0.0986111170596459,-0.0931569486856461,-0.00549778714776039,-0.04764748737216
5,0.993055557076942,-0.208333344873396,0.10972222781375,-0.0561996027827263,-0.0265726372599602,-0.0745255574584007
5,1.00972225967599,-0.19166667874224,0.111111119697004,-0.029626963660121,-0.0311541277915239,-0.0821613743901253
5,1.05555559457566,-0.15555556271342,0.0986111170596459,-0.0641408488154411,-0.0335975885391235,-0.0742201283574104
5,1.05416670269241,-0.144444451959316,0.0833333367337618,-0.0842994004487991,0.0103847095742822,-0.00244346098043024
5,1.01388893532575,-0.170833336961321,0.0916666697993398,-0.0717766657471657,0.0412334054708481,0.0372627787292004
5,0.977777843608863,-0.212499996211229,0.105555564319952,-0.0198531206697226,-0.0033597587607801,0.0311541277915239
5,0.984722303025134,-0.233333350148112,0.0944444474878658,0.0262672062963247,-0.0284052342176437,0.00244346098043024
5,1.00972225967599,-0.223611131277262,0.0902777839940679,0.0800233483314514,-0.0033597587607801,-0.0232128798961639
5,1.01111115155925,-0.200000005729836,0.0902777839940679,0.0842994004487991,0.000305432622553781,-0.0323758572340012
5,1.01944450285877,-0.187500003092477,0.0916666697993398,0.0662788823246956,0.00549778714776039,-0.0335975885391235
5,1.01944450285877,-0.17361112072783,0.0819444448505077,0.0381790772080422,0.0253509078174829,-0.0412334054708481
5,1.02777785415829,-0.163888889701015,0.0819444448505077,0.0510072484612465,0.0351247526705265,-0.0418442711234093
5,1.02777785415829,-0.163888889701015,0.0819444448505077,0.0577267669141293,0.0424551330506802,-0.0491746515035629
5,1.01944450285877,-0.150000007336368,0.106944444047242,0.0488692186772823,0.0305432621389627,-0.0507018156349659
5,1.01527782720901,-0.14722222356986,0.106944444047242,0.0247400421649218,0.0183259565383196,-0.0485637858510017
5,1.00972225967599,-0.148611115453114,0.108333335930496,0.0045814891345799,0.0027488935738802,-0.0445931628346443
5,1.00555558402623,-0.150000007336368,0.105555564319952,0.0027488935738802,-0.000610865245107561,-0.0461203269660473
5,1.02222228662528,-0.158333334323963,0.0819444448505077,-0.0103847095742822,0.0171042270958424,-0.0360410511493683
5,1.02777785415829,-0.16527778158427,0.0819444448505077,-0.0183259565383196,0.017409659922123,-0.0464257597923279
5,1.02222228662528,-0.179166676104882,0.0819444448505077,-0.0448985956609249,0.0189368221908808,-0.0342084541916847
5,1.00000001649321,-0.208333344873396,0.0722222259796579,-0.0277943685650826,-0.00610865233466029,-0.0418442711234093
5,1.00277780025972,-0.208333344873396,0.0847222225390337,-0.0125227374956012,-0.0366519130766392,-0.0412334054708481
5,1.02916674604155,-0.180555567988136,0.0722222259796579,-0.0125227374956012,-0.00244346098043024,-0.0726929605007172
5,1.02083339474202,-0.18333333959868,0.0875000002275597,-0.0305432621389627,0.0345138870179653,-0.0913243517279625
5,1.00972225967599,-0.18333333959868,0.0916666697993398,-0.013744467869401,0.0201585534960032,-0.125532805919647
5,1.01944450285877,-0.159722226207217,0.0958333393711199,-0.0189368221908808,0.0775798857212067,-0.120035022497177
5,1.02500007039179,-0.154166670830166,0.0875000002275597,0.0210748501121998,0.109955742955208,-0.106595985591412
5,1.00972225967599,-0.144444451959316,0.0805555590452358,-0.0222965814173222,0.090408056974411,-0.078801617026329
5,1.00416669214298,-0.122222230451108,0.100000002864918,-0.0311541277915239,-0.0345138870179653,-0.0809396430850029
5,1.01527782720901,-0.116666675074056,0.105555564319952,-0.0418442711234093,-0.0687223374843597,-0.0458148941397667
5,1.00555558402623,-0.125000002061652,0.113888891307548,-0.0873537287116051,-0.0965167060494423,0.0287106670439243
5,1.00138890837647,-0.13750000469901,0.101388894748172,-0.117591559886932,-0.0934623852372169,0.0754418596625328
5,1.01666671909226,-0.140277788465518,0.111111119697004,-0.0751364231109619,-0.01191187184304,0.0769690200686455
5,1.04722224327614,-0.140277788465518,0.0847222225390337,-0.0751364231109619,0.0106901414692402,0.0729983970522881
5,1.05694448645892,-0.13750000469901,0.0916666697993398,-0.0659734457731247,0.058643065392971,0.0839939713478088
5,1.0361111082101,-0.134722233088466,0.101388894748172,-0.0928515195846558,0.0620028227567673,0.123394779860973
5,0.993055557076942,-0.14583334384257,0.104166672436698,-0.148440256714821,-0.00305432616733015,0.182037845253944
5,0.977777843608863,-0.172222228844576,0.0916666697993398,-0.180816113948822,-0.0833831056952477,0.251676470041275
5,0.976388951725609,-0.231944458264858,0.0777777813567098,-0.191506251692772,-0.128892570734024,0.251676470041275
5,0.968055600426084,-0.29166668768514,0.0583333375370279,-0.163101017475128,-0.167987942695618,0.272751331329346
5,0.968055600426084,-0.29166668768514,0.0583333375370279,-0.0320704244077206,-0.18509216606617,0.231212496757507
5,1.06111116210868,-0.358333352209763,0.0236111118719664,0.139888137578964,-0.113010071218014,0.150883719325066
5,1.06111116210868,-0.358333352209763,0.0236111118719664,0.336586743593216,-0.000916297896765172,0.0418442711234093
5,1.09722225382557,-0.272222225631511,0.0513888902767219,0.448069661855698,0.087659165263176,-0.0766635909676552
5,1.02777785415829,-0.150000007336368,0.111111119697004,0.373238652944565,0.00488692196086049,-0.147218525409698
5,0.963888924776322,-0.0472222237439329,0.168055565350778,0.212886542081833,-0.0607810914516449,-0.124616511166096
5,0.959722249126559,-0.0472222237439329,0.13750000469901,0.0229074470698834,-0.0705549344420433,-0.0754418596625328
5,0.993055557076942,-0.00972222266958873,0.120833338567854,-0.143247902393341,-0.0229074470698834,-0.01588249579072
5,1.02361117850853,-0.0666666706026059,0.113888891307548,-0.198531210422516,-0.00855211354792118,0.0277943685650826
5,1.0305556379248,-0.126388893944906,0.0958333393711199,-0.203723564743996,-0.0161879286170006,0.0198531206697226
5,1.03888889197661,-0.179166676104882,0.0819444448505077,-0.1795943826437,0.015577063895762,-0.0021380283869803
5,1.02916674604155,-0.216666671860991,0.0875000002275597,-0.100181899964809,0.0021380283869803,-0.0103847095742822
5,1.02638896227504,-0.236111109602691,0.0916666697993398,-0.0314595587551594,0.0161879286170006,-0.0183259565383196
5,1.0125000434425,-0.238888893369199,0.0916666697993398,0.0513126812875271,0.0192422550171614,-0.00580321997404099
5,1.00277780025972,-0.229166674498349,0.0930555616825939,0.108428582549095,0.0265726372599602,-0.00824668072164059
5,1.00138890837647,-0.216666671860991,0.0888888921108138,0.175318330526352,-0.0229074470698834,-0.019547687843442
5,1.02500007039179,-0.188888894975731,0.0722222259796579,0.204639852046967,-0.0436768643558025,-0.0210748501121998
5,1.0361111082101,-0.17361112072783,0.0569444456537738,0.186313897371292,-0.0293215326964855,-0.0122173046693206
5,1.05833337834217,-0.123611110178398,0.0666666706026059,0.148134827613831,-0.107512280344963,0.0329867228865623
5,1.04166667574312,-0.134722233088466,0.0819444448505077,0.118507854640484,-0.0784961804747581,0.0549778714776039
5,1.02222228662528,-0.150000007336368,0.0986111170596459,0.11636982858181,-0.0439822971820831,0.0430659987032413
5,0.959722249126559,-0.180555567988136,0.111111119697004,0.13744467496872,-0.00977384392172098,0.00733038317412138
5,0.959722249126559,-0.170833336961321,0.0986111170596459,0.153021737933159,-0.0445931628346443,-0.0284052342176437
5,1.00000001649321,-0.154166670830166,0.0652777787193518,0.149967417120934,-0.0507018156349659,-0.0671951770782471
5,1.02500007039179,-0.14722222356986,0.0597222233422998,0.144164204597473,-0.00427605677396059,-0.096211276948452
5,1.04722224327614,-0.12777778582816,0.0583333375370279,0.0681114718317986,0.0500909499824047,-0.106901414692402
5,1.0305556379248,-0.113888891307548,0.0569444456537738,0.0045814891345799,0.0470366254448891,-0.0937678143382072
5,1.02222228662528,-0.111111119697004,0.0583333375370279,-0.0332921557128429,0.0302378293126821,-0.0613919571042061
5,1.0125000434425,-0.125000002061652,0.0583333375370279,-0.0638354197144508,0.0171042270958424,-0.0424551330506802
5,1.00555558402623,-0.151388899219622,0.0847222225390337,-0.078801617026329,0.0323758572340012,-0.0455094613134861
5,1.0125000434425,-0.159722226207217,0.0916666697993398,-0.123394779860973,0.0381790772080422,-0.0815505087375641
5,1.0125000434425,-0.159722226207217,0.0916666697993398,-0.149967417120934,0.013744467869401,-0.0445931628346443
5,1.02638896227504,-0.14722222356986,0.0805555590452358,-0.156992360949516,-0.00427605677396059,-0.0149661982432008
5,1.02361117850853,-0.148611115453114,0.0819444448505077,-0.184481307864189,-0.0106901414692402,-0.0125227374956012
5,1.01527782720901,-0.156944454596674,0.0916666697993398,-0.213497400283814,-0.0403171069920063,-0.00763581553474069
5,1.01527782720901,-0.186111123365188,0.0819444448505077,-0.17989981174469,-0.120035022497177,0.00885754637420177
5,1.02500007039179,-0.202777789496344,0.0833333367337618,-0.176845490932465,-0.119729585945606,0.0280998013913631
5,1.0513889189259,-0.206944452990142,0.0819444448505077,-0.16920967400074,-0.0647517144680023,0.0745255574584007
5,1.04305556762637,-0.206944452990142,0.0694444482911319,-0.140804439783096,-0.0164933614432812,0.0974330082535744
5,1.00138890837647,-0.218055563744246,0.0583333375370279,-0.126449108123779,-0.0387899428606033,0.102014496922493
5,0.984722303025134,-0.2194444556275,0.052777782159976,-0.0852157026529312,-0.0507018156349659,0.0983493030071259
5,1.01388893532575,-0.220833347510754,0.0375000018340919,-0.064446285367012,-0.011606439948082,0.0772744566202164
5,1.02916674604155,-0.2194444556275,0.0416666683668809,-0.0326812900602817,0.0268780700862408,0.064446285367012
5,1.01111115155925,-0.212499996211229,0.0611111152255539,0.0180205255746841,0.0531452745199203,0.0580321997404099
5,0.984722303025134,-0.202777789496344,0.055555559848502,0.0421497002243996,0.0568104684352875,0.0192422550171614
5,0.983333411141879,-0.18333333959868,0.0736111117849297,0.0620028227567673,0.100181899964809,-0.0149661982432008
5,0.969444492309338,-0.163888889701015,0.104166672436698,0.0424551330506802,0.0565050356090069,-0.0565050356090069
5,0.986111194908388,-0.13750000469901,0.102777780553444,-0.0143553335219622,-0.0467311926186085,-0.0934623852372169
5,1.07777786470773,-0.12777778582816,0.0805555590452358,-0.0577267669141293,-0.0445931628346443,-0.090408056974411
5,1.07361118905796,-0.126388893944906,0.0722222259796579,-0.130725160241127,-0.00916297826915979,0.00244346098043024
5,1.02638896227504,-0.131944449321958,0.0666666706026059,-0.171958565711975,-0.0256563406437635,0.0525344125926495
5,1.0125000434425,-0.193055558469529,0.0583333375370279,-0.182954147458077,-0.0021380283869803,0.0519235469400883
5,1.00972225967599,-0.20972223675665,0.0597222233422998,-0.160657554864883,-0.0149661982432008,0.0522289797663689
5,1.00972225967599,-0.216666671860991,0.0597222233422998,-0.108734011650086,-0.0503963828086853,0.0552833043038845
5,1.02222228662528,-0.229166674498349,0.0777777813567098,-0.0366519130766392,-0.0311541277915239,0.037568211555481
5,1.01527782720901,-0.229166674498349,0.0680555564078778,0.0290160998702049,-0.0516181141138077,0.0201585534960032
5,1.01527782720901,-0.237500001485945,0.0611111152255539,0.111482910811901,-0.0106901414692402,0.0268780700862408
5,0.997222232726705,-0.213888888094483,0.0722222259796579,0.175318330526352,0.00977384392172098,0.0192422550171614
5,0.993055557076942,-0.204166669223633,0.0652777787193518,0.201585531234741,0.0510072484612465,-0.00122173049021512
5,1.0125000434425,-0.176388892338373,0.0875000002275597,0.189673662185669,0.0693332031369209,-0.0366519130766392
5,1.0125000434425,-0.176388892338373,0.0875000002275597,0.137139245867729,0.0995710343122482,-0.0491746515035629
5,1.02222228662528,-0.14722222356986,0.0680555564078778,0.0965167060494423,0.0956004112958908,-0.0418442711234093
5,1.06250005399193,-0.13750000469901,0.0861111144222878,0.0513126812875271,0.251676470041275,-0.00671951752156019
5,1.05833337834217,-0.144444451959316,0.0888888921108138,0.0394008085131645,0.229685336351395,-0.0271835029125214
5,1.00138890837647,-0.156944454596674,0.0777777813567098,0.110261179506779,0.142637029290199,-0.0739146918058395
5,0.993055557076942,-0.179166676104882,0.0902777839940679,0.148440256714821,0.120340451598167,-0.0971275717020035
5,0.993055557076942,-0.184722231481934,0.0958333393711199,0.173485726118088,0.149051114916802,-0.118202425539494
5,0.987499989543926,-0.161111118090472,0.100000002864918,0.121867619454861,0.0320704244077206,-0.115453533828259
5,0.993055557076942,-0.150000007336368,0.0833333367337618,0.0708603709936142,-0.00977384392172098,-0.0894917547702789
5,1.03194452980806,-0.125000002061652,0.052777782159976,-0.00366519158706069,0.037568211555481,-0.0635299831628799
5,1.06805562152495,-0.120833338567854,0.0652777787193518,-0.0772744566202164,0.0235183127224445,0.00152716308366507
5,1.05555559457566,-0.150000007336368,0.0791666671619817,-0.0925460830330849,0.00671951752156019,0.0665843114256859
5,1.00972225967599,-0.197222234119292,0.0930555616825939,-0.0241291765123606,-0.0363464802503586,0.0616973899304867
5,0.99583334084345,-0.233333350148112,0.0986111170596459,0.0708603709936142,-0.0494800843298435,0.0290160998702049
5,1.00277780025972,-0.224999998848587,0.111111119697004,0.148134827613831,-0.0769690200686455,0.0189368221908808
5,1.01388893532575,-0.193055558469529,0.104166672436698,0.139582708477974,-0.0949895456433296,0.0229074470698834
5,1.02500007039179,-0.162500009973726,0.0930555616825939,0.107512280344963,-0.113926365971565,0.027488935738802
5,1.02361117850853,-0.144444451959316,0.0875000002275597,0.0534507073462009,-0.124616511166096,0.0620028227567673
5,1.01527782720901,-0.140277788465518,0.0986111170596459,0.0204639863222837,-0.160352125763893,0.0751364231109619
5,1.01944450285877,-0.138888896582264,0.0791666671619817,-0.0290160998702049,-0.0769690200686455,0.0610865242779255
5,1.02500007039179,-0.140277788465518,0.0875000002275597,-0.0583376325666905,0.01588249579072,0.05283984541893
5,1.01388893532575,-0.154166670830166,0.0888888921108138,-0.0873537287116051,0.0128281703218818,0.0470366254448891
5,1.00972225967599,-0.17361112072783,0.0847222225390337,-0.098960168659687,-0.0128281703218818,0.0299323964864016
5,1.01666671909226,-0.190277786858986,0.0777777813567098,-0.0830776765942574,-0.000916297896765172,0.0204639863222837
5,1.00972225967599,-0.181944447715425,0.0805555590452358,-0.0671951770782471,0.00366519158706069,0.000610865245107561
5,1.0125000434425,-0.177777784221628,0.0694444482911319,-0.0574213340878487,0.000610865245107561,-0.00641408516094089
5,1.01944450285877,-0.169444445078067,0.0625000010308258,-0.0626136884093285,-0.00152716308366507,-0.0201585534960032
5,1.02222228662528,-0.168055565350778,0.0652777787193518,-0.076052725315094,-0.00824668072164059,-0.00977384392172098
5,1.01944450285877,-0.166666673467524,0.0680555564078778,-0.0794124826788902,-0.000305432622553781,0.00671951752156019
5,1.0125000434425,-0.172222228844576,0.0652777787193518,-0.08460483700037,-0.01191187184304,0.0189368221908808
5,1.0125000434425,-0.176388892338373,0.0680555564078778,-0.0839939713478088,-0.0335975885391235,0.00977384392172098
5,1.0125000434425,-0.176388892338373,0.0680555564078778,-0.0842994004487991,-0.0815505087375641,0.0143553335219622
5,1.01944450285877,-0.190277786858986,0.0694444482911319,-0.0726929605007172,-0.0879645943641663,0.0235183127224445
5,1.02916674604155,-0.180555567988136,0.0722222259796579,-0.0473420582711697,-0.0751364231109619,-0.000610865245107561
5,1.02916674604155,-0.180555567988136,0.0722222259796579,-0.0448985956609249,-0.0381790772080422,-0.0143553335219622
5,1.02222228662528,-0.176388892338373,0.0708333340964038,-0.037568211555481,-0.0549778714776039,0.0021380283869803
5,1.0125000434425,-0.166666673467524,0.0902777839940679,-0.0632245540618896,-0.00916297826915979,-0.00671951752156019
5,1.01944450285877,-0.154166670830166,0.0888888921108138,-0.0522289797663689,0.0241291765123606,-0.00702495034784079
5,1.00972225967599,-0.14722222356986,0.0972222251763917,-0.0931569486856461,0.0161879286170006,-0.00671951752156019
5,1.00694447590948,-0.159722226207217,0.0750000036681839,-0.0803287774324417,-0.0299323964864016,-0.00488692196086049
5,1.01527782720901,-0.18333333959868,0.0652777787193518,-0.0733038261532784,-0.00610865233466029,-0.0103847095742822
5,1.0333333244436,-0.190277786858986,0.0708333340964038,-0.0470366254448891,-0.00855211354792118,-0.000916297896765172
5,1.02500007039179,-0.176388892338373,0.0708333340964038,-0.0778853222727776,-0.00824668072164059,0.01191187184304
5,1.00694447590948,-0.180555567988136,0.0680555564078778,-0.081855945289135,-0.0192422550171614,0.0204639863222837
5,1.00972225967599,-0.180555567988136,0.0583333375370279,-0.0791070461273193,-0.0198531206697226,0.0250454749912024
5,1.02500007039179,-0.190277786858986,0.0513888902767219,-0.0482583530247212,0.00366519158706069,0.00946841109544039
5,1.02500007039179,-0.18333333959868,0.0694444482911319,-0.0415388382971287,-0.00702495034784079,0.0287106670439243
5,1.01527782720901,-0.180555567988136,0.0750000036681839,-0.0329867228865623,0.00763581553474069,0.0268780700862408
5,1.00694447590948,-0.18333333959868,0.0777777813567098,-0.0345138870179653,0.0146607663482428,0.0207694191485643
5,1.01388893532575,-0.184722231481934,0.0680555564078778,-0.0494800843298435,0.02382374368608,0.00641408516094089
5,1.01944450285877,-0.187500003092477,0.0583333375370279,-0.0641408488154411,0.011606439948082,0.0201585534960032
5,1.02361117850853,-0.180555567988136,0.055555559848502,-0.0540615729987621,0.00122173049021512,0.0244346093386412
5,1.01944450285877,-0.193055558469529,0.0569444456537738,-0.0271835029125214,0.0128281703218818,0.0210748501121998
5,1.0125000434425,-0.202777789496344,0.0541666679652478,0.00549778714776039,-0.0164933614432812,0.00855211354792118
5,1.01527782720901,-0.20138889761309,0.0652777787193518,0.0326812900602817,-0.0265726372599602,0.0103847095742822
5,1.01527782720901,-0.197222234119292,0.0819444448505077,0.029626963660121,-0.0455094613134861,0.0293215326964855
5,1.02500007039179,-0.181944447715425,0.0486111125881959,0.0268780700862408,-0.0448985956609249,0.0323758572340012
5,1.02916674604155,-0.17361112072783,0.055555559848502,0.0152716310694814,-0.0485637858510017,0.0369573459029198
5,1.02222228662528,-0.179166676104882,0.0611111152255539,0.0033597587607801,-0.0497855171561241,0.0430659987032413
5,1.00833336779274,-0.19166667874224,0.0611111152255539,0.02382374368608,-0.0482583530247212,0.0470366254448891
5,1.00138890837647,-0.195833342236038,0.055555559848502,0.0467311926186085,-0.0320704244077206,0.0406225398182869
5,1.00138890837647,-0.202777789496344,0.0541666679652478,0.0720821022987366,-0.0213802829384804,0.0207694191485643
5,1.01111115155925,-0.195833342236038,0.0486111125881959,0.0696386396884918,0.02382374368608,0.00733038317412138
5,1.00555558402623,-0.179166676104882,0.0583333375370279,0.04764748737216,0.0293215326964855,0.00244346098043024
5,1.00555558402623,-0.168055565350778,0.0652777787193518,0.0406225398182869,0.0421497002243996,-0.011606439948082
5,1.00555558402623,-0.180555567988136,0.0625000010308258,0.0146607663482428,0.0280998013913631,-0.0192422550171614
5,1.01111115155925,-0.180555567988136,0.0652777787193518,0.0140499006956816,-0.0109955742955208,-0.0219911485910416
5,1.03888889197661,-0.180555567988136,0.0597222233422998,0.0219911485910416,0.0436768643558025,-0.00152716308366507
5,1.0333333244436,-0.18333333959868,0.0541666679652478,0.027488935738802,0.0339030213654041,0.00824668072164059
5,1.00972225967599,-0.200000005729836,0.055555559848502,0.0348193198442459,0.00977384392172098,0.00610865233466029
5,1.01111115155925,-0.200000005729836,0.0597222233422998,0.0592539273202419,0.0146607663482428,0.0027488935738802
5,1.01388893532575,-0.197222234119292,0.0638888929140799,0.0711658000946045,0.00427605677396059,0.0021380283869803
5,1.00277780025972,-0.197222234119292,0.0694444482911319,0.0806342139840126,0.000916297896765172,0.000610865245107561
5,1.01944450285877,-0.190277786858986,0.0625000010308258,0.0870482996106148,0.00244346098043024,-0.00244346098043024
5,1.01527782720901,-0.180555567988136,0.0541666679652478,0.0897971913218498,-0.0100792767480016,0.00519235478714108
5,1.00972225967599,-0.180555567988136,0.0652777787193518,0.0739146918058395,-0.0161879286170006,-0.00366519158706069
5,1.01111115155925,-0.186111123365188,0.0777777813567098,0.0965167060494423,-0.0152716310694814,-0.0287106670439243
5,1.02222228662528,-0.180555567988136,0.0763888894734557,0.134695783257484,-0.00671951752156019,-0.0574213340878487
5,1.04861113515939,-0.14722222356986,0.0777777813567098,0.111788339912891,0.0134390350431204,-0.0510072484612465
5,1.0361111082101,-0.130555557438704,0.0708333340964038,0.0448985956609249,0.0177150927484035,-0.00427605677396059
5,1.00555558402623,-0.140277788465518,0.0791666671619817,-0.00244346098043024,0.00580321997404099,0.0226020142436027
5,0.998611124609959,-0.169444445078067,0.0777777813567098,-0.0161879286170006,-0.0207694191485643,0.0259617734700441
5,1.00555558402623,-0.190277786858986,0.0652777787193518,-0.00794124789535999,-0.0342084541916847,0.0271835029125214
5,1.03194452980806,-0.194444450352783,0.0569444456537738,0.021685715764761,-0.0180205255746841,0.0183259565383196
5,1.03194452980806,-0.194444450352783,0.0569444456537738,0.0207694191485643,-0.0125227374956012,0.0250454749912024
5,1.01527782720901,-0.190277786858986,0.0541666679652478,0.0280998013913631,-0.0406225398182869,0.0302378293126821
5,1.00555558402623,-0.198611113846581,0.0569444456537738,0.0277943685650826,-0.0421497002243996,0.0180205255746841
5,1.01666671909226,-0.187500003092477,0.0625000010308258,0.0342084541916847,-0.0403171069920063,0.0262672062963247
5,1.01944450285877,-0.181944447715425,0.0625000010308258,0.0229074470698834,-0.0128281703218818,0.0302378293126821
5,1.02222228662528,-0.176388892338373,0.0583333375370279,0.0027488935738802,-0.00855211354792118,0.0293215326964855
5,1.02222228662528,-0.170833336961321,0.0569444456537738,-0.0109955742955208,-0.00183259579353034,0.0406225398182869
5,1.02222228662528,-0.170833336961321,0.0569444456537738,-0.037568211555481,-0.0106901414692402,0.0403171069920063
5,1.01527782720901,-0.188888894975731,0.0652777787193518,-0.0360410511493683,-0.011606439948082,0.0293215326964855
5,1.01111115155925,-0.197222234119292,0.0652777787193518,-0.0244346093386412,-0.00824668072164059,0.0183259565383196
5,1.01111115155925,-0.197222234119292,0.0652777787193518,0.000916297896765172,-0.0192422550171614,0.0027488935738802
5,1.01944450285877,-0.187500003092477,0.0583333375370279,-0.0201585534960032,-0.0045814891345799,0.0177150927484035
5,1.00555558402623,-0.179166676104882,0.0625000010308258,-0.0458148941397667,-0.027488935738802,0.0204639863222837
5,1.00555558402623,-0.179166676104882,0.0625000010308258,-0.0662788823246956,-0.0244346093386412,0.0177150927484035
5,1.00833336779274,-0.176388892338373,0.0625000010308258,-0.0671951770782471,-0.0232128798961639,0.00855211354792118
5,1.01944450285877,-0.193055558469529,0.0722222259796579,-0.0681114718317986,-0.0253509078174829,0.00580321997404099
5,1.01527782720901,-0.193055558469529,0.0541666679652478,-0.0687223374843597,-0.00794124789535999,0.00305432616733015
5,1.02222228662528,-0.188888894975731,0.0541666679652478,-0.0632245540618896,0.0103847095742822,0.00702495034784079
5,1.02222228662528,-0.187500003092477,0.0611111152255539,-0.0748309940099716,0.0201585534960032,0.000916297896765172
5,1.01388893532575,-0.194444450352783,0.0666666706026059,-0.0626136884093285,0.00855211354792118,0.0134390350431204
5,1.00972225967599,-0.202777789496344,0.0680555564078778,-0.0406225398182869,-0.00183259579353034,0.00763581553474069
5,1.01527782720901,-0.212499996211229,0.0611111152255539,-0.0131336031481624,0.00763581553474069,0.000916297896765172
5,1.02638896227504,-0.205555561106887,0.0569444456537738,0.00885754637420177,0.0143553335219622,0.00977384392172098
5,1.02222228662528,-0.194444450352783,0.0541666679652478,-0.00977384392172098,0.0232128798961639,0.0226020142436027
5,1.00555558402623,-0.180555567988136,0.0652777787193518,-0.0277943685650826,0.00824668072164059,0.0103847095742822
5,1.0125000434425,-0.18333333959868,0.0625000010308258,-0.0259617734700441,0.0027488935738802,0.00549778714776039
5,1.01805561097552,-0.193055558469529,0.0583333375370279,-0.0109955742955208,0.00977384392172098,-0.00702495034784079
5,1.02083339474202,-0.193055558469529,0.0652777787193518,-0.0161879286170006,0.0222965814173222,0.00244346098043024
5,1.01805561097552,-0.190277786858986,0.0652777787193518,-0.027488935738802,0.0125227374956012,0.00916297826915979
5,1.01666671909226,-0.193055558469529,0.055555559848502,-0.0219911485910416,0.0198531206697226,0.013744467869401
5,1.01527782720901,-0.200000005729836,0.0513888902767219,-0.00885754637420177,0.00580321997404099,0.0027488935738802
5,1.0125000434425,-0.2194444556275,0.0416666683668809,0.00733038317412138,-0.00824668072164059,0.00824668072164059
5,1.01111115155925,-0.212499996211229,0.0444444460554069,0.0290160998702049,-0.013744467869401,0.00305432616733015
5,1.01527782720901,-0.206944452990142,0.0486111125881959,0.0403171069920063,-0.0247400421649218,0.00641408516094089
5,1.01805561097552,-0.202777789496344,0.0444444460554069,0.0427605658769607,-0.0210748501121998,0.00977384392172098
5,1.01388893532575,-0.197222234119292,0.0583333375370279,0.0387899428606033,-0.0131336031481624,0.00885754637420177
5,1.01805561097552,-0.190277786858986,0.0680555564078778,0.0378736443817616,0.00183259579353034,0.0106901414692402
5,1.01527782720901,-0.197222234119292,0.0652777787193518,0.0366519130766392,0.00580321997404099,0.00855211354792118
5,1.01527782720901,-0.197222234119292,0.0611111152255539,0.0329867228865623,-0.0021380283869803,0.00397062394768
5,1.01944450285877,-0.193055558469529,0.052777782159976,0.0406225398182869,0.00946841109544039,0.00305432616733015
5,1.01388893532575,-0.193055558469529,0.055555559848502,0.0665843114256859,0.0109955742955208,-0.00763581553474069
5,1.01388893532575,-0.195833342236038,0.0597222233422998,0.0733038261532784,-0.00122173049021512,-0.00885754637420177
5,1.02361117850853,-0.190277786858986,0.0583333375370279,0.0601702257990837,-0.0152716310694814,-0.00427605677396059
5,1.01666671909226,-0.190277786858986,0.055555559848502,0.0574213340878487,-0.0186313893646002,0.00824668072164059
5,1.01388893532575,-0.187500003092477,0.0625000010308258,0.0397062413394451,-0.0146607663482428,0.0186313893646002
5,1.00972225967599,-0.193055558469529,0.0541666679652478,0.0241291765123606,0.00733038317412138,0.00641408516094089
5,1.0125000434425,-0.194444450352783,0.0583333375370279,0.0167987942695618,-0.00366519158706069,0.0152716310694814
5,1.01944450285877,-0.195833342236038,0.0472222237439329,0.0222965814173222,0.00763581553474069,0.00366519158706069
5,1.02361117850853,-0.195833342236038,0.0500000014324589,0.0219911485910416,0.00733038317412138,0.000916297896765172
5,1.01388893532575,-0.197222234119292,0.0583333375370279,0.0299323964864016,-0.0106901414692402,0.000916297896765172
5,1.01944450285877,-0.200000005729836,0.0638888929140799,0.0378736443817616,0.00610865233466029,-0.0033597587607801
5,1.01805561097552,-0.197222234119292,0.0611111152255539,0.0479529201984406,0.0045814891345799,-0.00641408516094089
5,1.00972225967599,-0.193055558469529,0.0611111152255539,0.0406225398182869,0.0161879286170006,-0.00305432616733015
5,1.00972225967599,-0.187500003092477,0.0611111152255539,0.0357356183230877,0.0210748501121998,-0.017409659922123
5,1.01388893532575,-0.18333333959868,0.0611111152255539,0.0253509078174829,0.0180205255746841,-0.0235183127224445
5,1.01805561097552,-0.180555567988136,0.0625000010308258,0.0247400421649218,0.0222965814173222,-0.0241291765123606
5,1.01805561097552,-0.180555567988136,0.0625000010308258,-0.00397062394768,0.0180205255746841,-0.0122173046693206
5,1.01388893532575,-0.177777784221628,0.0583333375370279,-0.0146607663482428,0.0103847095742822,-0.015577063895762
5,1.01666671909226,-0.181944447715425,0.0611111152255539,-0.0140499006956816,0.0125227374956012,-0.0106901414692402
5,1.01805561097552,-0.18333333959868,0.0625000010308258,-0.0100792767480016,0.00702495034784079,-0.0167987942695618
5,1.0125000434425,-0.184722231481934,0.0541666679652478,-0.0106901414692402,-0.00244346098043024,-0.0186313893646002
5,1.01388893532575,-0.18333333959868,0.055555559848502,-0.0113010071218014,0.0122173046693206,-0.0247400421649218
5,1.01527782720901,-0.181944447715425,0.0611111152255539,-0.0259617734700441,0.0152716310694814,-0.0167987942695618
5,1.01527782720901,-0.18333333959868,0.0569444456537738,-0.0412334054708481,0.00519235478714108,-0.0222965814173222
5,1.0125000434425,-0.181944447715425,0.0583333375370279,-0.0384845100343227,-0.00397062394768,-0.0152716310694814
5,1.01527782720901,-0.180555567988136,0.0583333375370279,-0.0259617734700441,-0.00549778714776039,-0.0253509078174829
5,1.02083339474202,-0.190277786858986,0.0569444456537738,-0.0219911485910416,0.000305432622553781,-0.0335975885391235
5,1.01388893532575,-0.187500003092477,0.0625000010308258,-0.0335975885391235,0.000610865245107561,-0.02382374368608
5,1.01111115155925,-0.18333333959868,0.0611111152255539,-0.0354301854968071,0.0177150927484035,-0.0229074470698834
5,1.01666671909226,-0.188888894975731,0.052777782159976,-0.0284052342176437,0.01588249579072,-0.019547687843442
5,1.02638896227504,-0.194444450352783,0.055555559848502,-0.00977384392172098,0.0219911485910416,-0.0171042270958424
5,1.02777785415829,-0.18333333959868,0.055555559848502,-0.00641408516094089,0.03176499158144,-0.0164933614432812
5,1.01111115155925,-0.186111123365188,0.0763888894734557,-0.0152716310694814,0.0253509078174829,-0.0027488935738802
5,1.00555558402623,-0.187500003092477,0.0694444482911319,-0.0259617734700441,0.000610865245107561,-0.0033597587607801
5,1.0125000434425,-0.179166676104882,0.0583333375370279,-0.0186313893646002,-0.00305432616733015,-0.00977384392172098
5,1.02361117850853,-0.184722231481934,0.0694444482911319,0.0027488935738802,0.00641408516094089,-0.015577063895762
5,1.02638896227504,-0.187500003092477,0.0652777787193518,0.0027488935738802,0.0180205255746841,-0.00366519158706069
5,1.01388893532575,-0.175000000455119,0.0666666706026059,-0.00549778714776039,0.00549778714776039,0.00733038317412138
5,1.0125000434425,-0.180555567988136,0.0652777787193518,-0.0262672062963247,-0.00794124789535999,0.00733038317412138
5,1.0125000434425,-0.187500003092477,0.0652777787193518,-0.0259617734700441,-0.00763581553474069,-0.00580321997404099
5,1.01944450285877,-0.190277786858986,0.0569444456537738,-0.0171042270958424,0.00794124789535999,-0.0113010071218014
5,1.02222228662528,-0.184722231481934,0.0597222233422998,-0.00702495034784079,0.00885754637420177,-0.00702495034784079
5,1.01388893532575,-0.18333333959868,0.0611111152255539,-0.00366519158706069,0.0122173046693206,-0.0021380283869803
5,1.01944450285877,-0.176388892338373,0.0513888902767219,0.01191187184304,0.0164933614432812,-0.00733038317412138
5,1.02083339474202,-0.179166676104882,0.0513888902767219,0.00763581553474069,0.0268780700862408,-0.00183259579353034
5,1.02500007039179,-0.17361112072783,0.0611111152255539,0.0134390350431204,0.0183259565383196,-0.0167987942695618
5,1.02777785415829,-0.18333333959868,0.0666666706026059,0.037568211555481,0.0134390350431204,-0.0424551330506802
5,1.01388893532575,-0.188888894975731,0.0791666671619817,0.0705549344420433,-0.0418442711234093,-0.0467311926186085
5,1.01388893532575,-0.188888894975731,0.0791666671619817,0.0839939713478088,-0.0354301854968071,-0.0479529201984406
5,1.01805561097552,-0.161111118090472,0.0722222259796579,0.0754418596625328,-0.0335975885391235,-0.00580321997404099
5,1.01805561097552,-0.161111118090472,0.0722222259796579,0.0366519130766392,-0.0109955742955208,0.0250454749912024
5,1.02083339474202,-0.159722226207217,0.052777782159976,-0.0320704244077206,0.0284052342176437,0.0442877300083637
5,1.02222228662528,-0.16527778158427,0.0583333375370279,-0.108734011650086,0.0287106670439243,0.0448985956609249
5,1.00833336779274,-0.180555567988136,0.0666666706026059,-0.154854342341423,0.0143553335219622,0.0406225398182869
5,1.00000001649321,-0.197222234119292,0.0583333375370279,-0.129808858036995,0.015577063895762,0.0247400421649218
5,1.00555558402623,-0.216666671860991,0.0611111152255539,-0.0561996027827263,0.0109955742955208,0.0100792767480016
5,1.00972225967599,-0.226388890731841,0.0680555564078778,0.0125227374956012,-0.0045814891345799,-0.00244346098043024
5,1.02222228662528,-0.216666671860991,0.0652777787193518,0.04764748737216,-0.019547687843442,0.0100792767480016
5,1.02777785415829,-0.20138889761309,0.052777782159976,0.0650571510195732,0.0232128798961639,0.0134390350431204
5,1.02222228662528,-0.193055558469529,0.0638888929140799,0.0891863256692886,0.0268780700862408,-0.00183259579353034
5,1.01388893532575,-0.188888894975731,0.0638888929140799,0.0910189226269722,0.0311541277915239,-0.0149661982432008
5,1.00694447590948,-0.181944447715425,0.0583333375370279,0.0897971913218498,0.0280998013913631,-0.0213802829384804
5,1.01527782720901,-0.163888889701015,0.0625000010308258,0.0491746515035629,0.01588249579072,-0.00824668072164059
5,1.01944450285877,-0.150000007336368,0.0680555564078778,0.000305432622553781,0.0219911485910416,0.00824668072164059
5,1.01944450285877,-0.13750000469901,0.0638888929140799,-0.0390953756868839,0.0302378293126821,0.0106901414692402
5,1.01666671909226,-0.14722222356986,0.0625000010308258,-0.0601702257990837,0.0290160998702049,0.00549778714776039
5,1.01805561097552,-0.162500009973726,0.0666666706026059,-0.0400116741657257,0.0381790772080422,0.00488692196086049
5,1.02083339474202,-0.17361112072783,0.0652777787193518,-0.0229074470698834,0.0198531206697226,-0.00488692196086049
5,1.03194452980806,-0.200000005729836,0.0708333340964038,0.027488935738802,0.0681114718317986,0.0131336031481624
5,1.01944450285877,-0.211111128639904,0.0722222259796579,0.0879645943641663,0.0140499006956816,0.00610865233466029
5,1.0125000434425,-0.2194444556275,0.055555559848502,0.161573857069016,0.00916297826915979,0.00183259579353034
5,1.01527782720901,-0.212499996211229,0.052777782159976,0.217162594199181,-0.0241291765123606,0.0186313893646002
5,1.00972225967599,-0.198611113846581,0.0625000010308258,0.236099421977997,-0.0290160998702049,0.00946841109544039
5,1.00555558402623,-0.18333333959868,0.0708333340964038,0.198531210422516,-0.04764748737216,0.0045814891345799
5,1.00416669214298,-0.166666673467524,0.0819444448505077,0.157297804951668,-0.0601702257990837,0.0198531206697226
5,1.00555558402623,-0.161111118090472,0.0722222259796579,0.139582708477974,-0.0589484944939613,0.0198531206697226
5,1.00277780025972,-0.166666673467524,0.0652777787193518,0.131946891546249,-0.0366519130766392,-0.0021380283869803
5,1.01944450285877,-0.170833336961321,0.0652777787193518,0.119118720293045,-0.0232128798961639,-0.0100792767480016
5,1.02361117850853,-0.170833336961321,0.0666666706026059,0.113010071218014,0.00305432616733015,-0.0143553335219622
5,1.02361117850853,-0.163888889701015,0.0722222259796579,0.0708603709936142,-0.00366519158706069,-0.0189368221908808
5,1.02222228662528,-0.166666673467524,0.0777777813567098,0.0473420582711697,-0.00427605677396059,-0.00763581553474069
5,1.02222228662528,-0.172222228844576,0.0722222259796579,0.0485637858510017,-0.0021380283869803,-0.0201585534960032
5,1.02083339474202,-0.180555567988136,0.0694444482911319,0.04764748737216,0.00916297826915979,-0.0113010071218014
5,1.01666671909226,-0.186111123365188,0.0805555590452358,0.0543670058250427,0.00702495034784079,-0.00549778714776039
5,1.01527782720901,-0.19166667874224,0.0750000036681839,0.0717766657471657,0.00916297826915979,-0.0210748501121998
5,1.0361111082101,-0.204166669223633,0.0722222259796579,0.0821613743901253,0.0763581544160843,-0.0354301854968071
5,1.0125000434425,-0.206944452990142,0.0875000002275597,0.0946841165423393,0.03176499158144,-0.00610865233466029
5,1.00138890837647,-0.197222234119292,0.0805555590452358,0.0769690200686455,0.0134390350431204,-0.00671951752156019
5,1.0125000434425,-0.18333333959868,0.0750000036681839,0.0558941699564457,0.0366519130766392,0.00794124789535999
5,1.01527782720901,-0.175000000455119,0.055555559848502,0.0351247526705265,0.0537561401724815,0.0308486949652433
5,1.00694447590948,-0.17361112072783,0.0652777787193518,-0.00519235478714108,0.0314595587551594,0.0326812900602817
5,1.00277780025972,-0.180555567988136,0.0819444448505077,-0.015577063895762,0.0177150927484035,0.037568211555481
5,1.00000001649321,-0.186111123365188,0.0708333340964038,-0.0027488935738802,0.0186313893646002,0.0210748501121998
5,1.01805561097552,-0.180555567988136,0.0750000036681839,0.000610865245107561,0.0131336031481624,0.00366519158706069
5,1.02500007039179,-0.166666673467524,0.0666666706026059,-0.00641408516094089,0.00580321997404099,-0.0021380283869803
5,1.02638896227504,-0.159722226207217,0.0763888894734557,-0.0290160998702049,0.0189368221908808,-0.00885754637420177
5,1.01527782720901,-0.159722226207217,0.0777777813567098,-0.0308486949652433,0.0109955742955208,-0.0161879286170006
5,1.01388893532575,-0.158333334323963,0.0861111144222878,-0.0339030213654041,0.0164933614432812,-0.0219911485910416
5,1.01527782720901,-0.162500009973726,0.0777777813567098,-0.0277943685650826,0.0122173046693206,-0.0320704244077206
5,1.01666671909226,-0.156944454596674,0.0819444448505077,-0.0378736443817616,0.000916297896765172,-0.0125227374956012
5,1.02222228662528,-0.159722226207217,0.0791666671619817,-0.0510072484612465,-0.0021380283869803,-0.00671951752156019
5,1.01944450285877,-0.168055565350778,0.0902777839940679,-0.0577267669141293,-0.00733038317412138,-0.00610865233466029
5,1.01527782720901,-0.187500003092477,0.0875000002275597,-0.0534507073462009,-0.0045814891345799,-0.00916297826915979
5,1.01111115155925,-0.177777784221628,0.0819444448505077,-0.0198531206697226,-0.00733038317412138,-0.0201585534960032
5,1.01666671909226,-0.187500003092477,0.0750000036681839,-0.00641408516094089,-0.0122173046693206,-0.0219911485910416
5,1.01666671909226,-0.187500003092477,0.0750000036681839,-0.0106901414692402,-0.00916297826915979,-0.0241291765123606
5,1.02083339474202,-0.17361112072783,0.0722222259796579,-0.0149661982432008,-0.00397062394768,-0.00244346098043024
5,1.02083339474202,-0.17361112072783,0.0722222259796579,-0.0171042270958424,-0.00549778714776039,0.0045814891345799
5,1.0125000434425,-0.177777784221628,0.0791666671619817,-0.0143553335219622,-0.0100792767480016,-0.00305432616733015
5,1.01944450285877,-0.18333333959868,0.0736111117849297,0.00366519158706069,-0.00794124789535999,-0.0128281703218818
5,1.01805561097552,-0.190277786858986,0.0722222259796579,0.00763581553474069,-0.00549778714776039,-0.0140499006956816
5,1.01805561097552,-0.190277786858986,0.0722222259796579,0.0125227374956012,-0.0143553335219622,-0.0100792767480016
5,1.01944450285877,-0.176388892338373,0.0819444448505077,0.0192422550171614,0.00488692196086049,-0.0149661982432008
5,1.01944450285877,-0.176388892338373,0.0819444448505077,0.00397062394768,-0.0033597587607801,-0.00641408516094089
5,1.01805561097552,-0.172222228844576,0.0680555564078778,-0.0152716310694814,-0.00122173049021512,-0.00794124789535999
5,1.01944450285877,-0.169444445078067,0.0708333340964038,-0.0213802829384804,-0.00397062394768,0.00427605677396059
5,1.01527782720901,-0.166666673467524,0.0819444448505077,-0.0277943685650826,-0.013744467869401,0.00610865233466029
5,1.0125000434425,-0.176388892338373,0.0819444448505077,-0.0152716310694814,-0.011606439948082,0.00580321997404099
5,1.01944450285877,-0.186111123365188,0.0763888894734557,-0.00244346098043024,-0.000916297896765172,0.00305432616733015
5,1.01944450285877,-0.187500003092477,0.0750000036681839,0.0027488935738802,-0.00488692196086049,0.015577063895762
5,1.01527782720901,-0.190277786858986,0.0652777787193518,0.00671951752156019,-0.00916297826915979,0.0027488935738802
5,1.0125000434425,-0.186111123365188,0.0833333367337618,0.00977384392172098,0.000305432622553781,0.00397062394768
5,1.01388893532575,-0.181944447715425,0.0680555564078778,0.017409659922123,-0.00580321997404099,0.00702495034784079
5,1.02083339474202,-0.177777784221628,0.0652777787193518,0.0161879286170006,0.00580321997404099,0.0021380283869803
5,1.0125000434425,-0.179166676104882,0.0722222259796579,0.021685715764761,-0.00610865233466029,0.00427605677396059
5,1.0125000434425,-0.176388892338373,0.0750000036681839,0.0167987942695618,0.00244346098043024,-0.000916297896765172
5,1.0125000434425,-0.17361112072783,0.0777777813567098,0.00885754637420177,0.00519235478714108,-0.00183259579353034
5,1.01527782720901,-0.17361112072783,0.0694444482911319,0.0180205255746841,0.0143553335219622,-0.00855211354792118
5,1.01944450285877,-0.176388892338373,0.0666666706026059,0.00488692196086049,0.0113010071218014,-0.0103847095742822
5,1.02083339474202,-0.176388892338373,0.0638888929140799,0.0134390350431204,-0.000610865245107561,-0.00488692196086049
5,1.01666671909226,-0.17361112072783,0.0736111117849297,0.00305432616733015,0.00977384392172098,0.000916297896765172
5,1.00972225967599,-0.175000000455119,0.0763888894734557,-0.0103847095742822,-0.00580321997404099,0.0045814891345799
5,1.0125000434425,-0.170833336961321,0.0819444448505077,-0.0027488935738802,-0.000610865245107561,0.00427605677396059
5,1.01666671909226,-0.175000000455119,0.0750000036681839,-0.0045814891345799,0.0122173046693206,-0.000916297896765172
5,1.01527782720901,-0.181944447715425,0.0777777813567098,-0.00427605677396059,0.0045814891345799,-0.00122173049021512
5,1.01388893532575,-0.180555567988136,0.0666666706026059,0.000916297896765172,0.00183259579353034,-0.00702495034784079
5,1.01944450285877,-0.176388892338373,0.0680555564078778,-0.00427605677396059,0.00549778714776039,-0.0045814891345799
5,1.01666671909226,-0.176388892338373,0.0875000002275597,-0.00152716308366507,0.015577063895762,-0.000916297896765172
5,1.00972225967599,-0.17361112072783,0.0875000002275597,-0.00702495034784079,-0.00122173049021512,-0.00549778714776039
5,1.0125000434425,-0.180555567988136,0.0847222225390337,-0.0045814891345799,-0.000305432622553781,-0.00885754637420177
5,1.01666671909226,-0.180555567988136,0.0819444448505077,0.0131336031481624,0.0100792767480016,-0.00641408516094089
5,1.01527782720901,-0.175000000455119,0.0819444448505077,0.00488692196086049,0.011606439948082,-0.00610865233466029
5,1.01666671909226,-0.168055565350778,0.0722222259796579,-0.0100792767480016,0.00427605677396059,0.00305432616733015
5,1.01805561097552,-0.166666673467524,0.0722222259796579,-0.0222965814173222,0.000610865245107561,-0.0021380283869803
5,1.01805561097552,-0.170833336961321,0.0805555590452358,-0.0207694191485643,0.00244346098043024,-0.00122173049021512
5,1.01388893532575,-0.175000000455119,0.0791666671619817,-0.0219911485910416,0.0033597587607801,-0.00427605677396059
5,1.01944450285877,-0.177777784221628,0.0708333340964038,-0.0161879286170006,0.00427605677396059,-0.00305432616733015
5,1.0125000434425,-0.180555567988136,0.0750000036681839,-0.0109955742955208,0.000610865245107561,-0.00488692196086049
5,1.01388893532575,-0.17361112072783,0.0763888894734557,-0.0128281703218818,-0.0021380283869803,0.00183259579353034
5,1.01666671909226,-0.175000000455119,0.0597222233422998,-0.0213802829384804,0.00152716308366507,-0.000610865245107561
5,1.01944450285877,-0.17361112072783,0.0652777787193518,-0.0128281703218818,0.0131336031481624,-0.00397062394768
5,1.01527782720901,-0.172222228844576,0.0680555564078778,-0.0204639863222837,0.00977384392172098,-0.000916297896765172
5,1.01111115155925,-0.176388892338373,0.0666666706026059,-0.0106901414692402,0.00610865233466029,-0.00702495034784079
5,1.01388893532575,-0.180555567988136,0.0708333340964038,-0.000305432622553781,0.00244346098043024,-0.00610865233466029
5,1.0125000434425,-0.166666673467524,0.0722222259796579,-0.00244346098043024,-0.00305432616733015,0.00152716308366507
5,1.01111115155925,-0.163888889701015,0.0638888929140799,-0.00977384392172098,0.00641408516094089,-0.00488692196086049
5,1.0125000434425,-0.169444445078067,0.0666666706026059,-0.0204639863222837,0.00427605677396059,-0.0033597587607801
5,1.01666671909226,-0.169444445078067,0.0611111152255539,-0.0113010071218014,-0.00397062394768,-0.00610865233466029
5,1.01944450285877,-0.17361112072783,0.0680555564078778,-0.0183259565383196,0.00549778714776039,-0.00427605677396059
5,1.01944450285877,-0.177777784221628,0.0750000036681839,-0.0125227374956012,0.011606439948082,-0.00733038317412138
5,1.01527782720901,-0.177777784221628,0.0819444448505077,-0.0226020142436027,0.0033597587607801,-0.0027488935738802
5,1.01527782720901,-0.17361112072783,0.0638888929140799,-0.0226020142436027,0.000305432622553781,-0.00122173049021512
5,1.01944450285877,-0.175000000455119,0.0694444482911319,-0.0277943685650826,0.00122173049021512,-0.0100792767480016
5,1.01944450285877,-0.175000000455119,0.0694444482911319,-0.0186313893646002,0.00397062394768,0.00152716308366507
5,1.02083339474202,-0.17361112072783,0.0652777787193518,-0.0189368221908808,-0.000305432622553781,0.000610865245107561
5,1.01805561097552,-0.17361112072783,0.0694444482911319,-0.01191187184304,0.011606439948082,0.000305432622553781
5,1.0125000434425,-0.168055565350778,0.0652777787193518,-0.0171042270958424,-0.0103847095742822,0.00549778714776039
5,1.02222228662528,-0.170833336961321,0.0722222259796579,-0.0247400421649218,-0.00427605677396059,0.0134390350431204
5,1.02083339474202,-0.17361112072783,0.0680555564078778,-0.00946841109544039,-0.00916297826915979,0.011606439948082
5,1.00972225967599,-0.176388892338373,0.0680555564078778,-0.0140499006956816,0.00397062394768,0.013744467869401
5,1.01527782720901,-0.175000000455119,0.0763888894734557,-0.0134390350431204,-0.00519235478714108,0.015577063895762
5,1.01527782720901,-0.175000000455119,0.0763888894734557,-0.00641408516094089,-0.011606439948082,0.000610865245107561
5,1.01805561097552,-0.175000000455119,0.0750000036681839,-0.00397062394768,-0.00244346098043024,0.00855211354792118
5,1.01666671909226,-0.176388892338373,0.0722222259796579,0.00183259579353034,-0.00305432616733015,0.0106901414692402
5,1.01666671909226,-0.176388892338373,0.0722222259796579,0.00183259579353034,0.00366519158706069,0.00244346098043024
5,1.0125000434425,-0.181944447715425,0.0819444448505077,-0.0033597587607801,-0.0125227374956012,-0.00152716308366507
5,1.01527782720901,-0.177777784221628,0.0652777787193518,0.00427605677396059,0.0021380283869803,0.00488692196086049
5,1.0125000434425,-0.175000000455119,0.0625000010308258,0.0125227374956012,0.00885754637420177,0.000610865245107561
5,1.02083339474202,-0.17361112072783,0.0750000036681839,0.00427605677396059,-0.000305432622553781,0.00305432616733015
5,1.01944450285877,-0.172222228844576,0.0722222259796579,0.000916297896765172,0.00305432616733015,0.0033597587607801
5,1.01111115155925,-0.168055565350778,0.0750000036681839,-0.0045814891345799,-0.00397062394768,0.013744467869401
5,1.01527782720901,-0.170833336961321,0.0750000036681839,-0.00183259579353034,0.0027488935738802,-0.00733038317412138
5,1.02222228662528,-0.17361112072783,0.0652777787193518,0.0128281703218818,-0.00397062394768,0.000916297896765172
5,1.01666671909226,-0.176388892338373,0.0666666706026059,0.0100792767480016,-0.0027488935738802,0.0027488935738802
5,1.0125000434425,-0.172222228844576,0.0750000036681839,0.00183259579353034,-0.00152716308366507,0.00244346098043024
5,1.00833336779274,-0.176388892338373,0.0736111117849297,0.0122173046693206,0.000305432622553781,0.00794124789535999
5,1.01527782720901,-0.17361112072783,0.0680555564078778,0.00397062394768,0.00610865233466029,0.00641408516094089
5,1.01527782720901,-0.170833336961321,0.0680555564078778,0.0103847095742822,-0.00519235478714108,-0.00519235478714108
5,1.01944450285877,-0.175000000455119,0.0611111152255539,0.0109955742955208,-0.000305432622553781,-0.0027488935738802
5,1.01944450285877,-0.170833336961321,0.0750000036681839,0.00977384392172098,0.00244346098043024,-0.00763581553474069
5,1.01805561097552,-0.176388892338373,0.0638888929140799,0.00916297826915979,0.000916297896765172,-0.00580321997404099
5,1.01527782720901,-0.17361112072783,0.0652777787193518,0.00733038317412138,-0.0027488935738802,-0.000610865245107561
5,1.02083339474202,-0.175000000455119,0.0944444474878658,-0.00152716308366507,0.00122173049021512,-0.0103847095742822
5,1.01944450285877,-0.177777784221628,0.0819444448505077,-0.000610865245107561,0.000916297896765172,0.00183259579353034
5,1.0125000434425,-0.177777784221628,0.0777777813567098,-0.00183259579353034,0.00183259579353034,-0.00610865233466029
5,1.01388893532575,-0.180555567988136,0.0777777813567098,0.00794124789535999,-0.000305432622553781,-0.00946841109544039
5,1.01944450285877,-0.176388892338373,0.0722222259796579,0.0027488935738802,0.00794124789535999,-0.00702495034784079
5,1.01805561097552,-0.175000000455119,0.0680555564078778,0.00122173049021512,0.00855211354792118,-0.0161879286170006
5,1.0125000434425,-0.180555567988136,0.0680555564078778,-0.000305432622553781,0.0131336031481624,-0.00855211354792118
5,1.01388893532575,-0.184722231481934,0.0750000036681839,0.00427605677396059,0.00855211354792118,-0.01588249579072
5,1.01944450285877,-0.186111123365188,0.0652777787193518,0.0106901414692402,0.0146607663482428,-0.0201585534960032
5,1.02500007039179,-0.18333333959868,0.0722222259796579,0.015577063895762,0.0149661982432008,-0.013744467869401
5,1.01527782720901,-0.180555567988136,0.0666666706026059,0.00671951752156019,0.0122173046693206,0.0027488935738802
5,1.00972225967599,-0.17361112072783,0.0736111117849297,0.000610865245107561,-0.0027488935738802,0.00122173049021512
5,1.01527782720901,-0.177777784221628,0.0750000036681839,0.000305432622553781,-0.0027488935738802,0.00763581553474069
5,1.0125000434425,-0.17361112072783,0.0819444448505077,0.0146607663482428,-0.00580321997404099,0.0210748501121998
5,1.0125000434425,-0.175000000455119,0.0763888894734557,0.00580321997404099,-0.0177150927484035,0.0342084541916847
5,1.01388893532575,-0.172222228844576,0.0791666671619817,0.0100792767480016,-0.0308486949652433,0.0458148941397667
5,1.02083339474202,-0.166666673467524,0.0819444448505077,0.0186313893646002,-0.02382374368608,0.0537561401724815
5,1.01527782720901,-0.163888889701015,0.0777777813567098,0.00733038317412138,-0.0125227374956012,0.0351247526705265
5,1.0125000434425,-0.166666673467524,0.0833333367337618,0.0021380283869803,-0.0210748501121998,0.0253509078174829
5,1.01944450285877,-0.170833336961321,0.0763888894734557,0.011606439948082,-0.0171042270958424,0.0226020142436027
5,1.02361117850853,-0.166666673467524,0.0750000036681839,0.0207694191485643,-0.00977384392172098,0.00122173049021512
5,1.02083339474202,-0.158333334323963,0.0847222225390337,0.00855211354792118,-0.0021380283869803,-0.00397062394768
5,1.02361117850853,-0.159722226207217,0.0777777813567098,0.00702495034784079,0.00824668072164059,-0.00916297826915979
5,1.01527782720901,-0.170833336961321,0.0875000002275597,-0.0045814891345799,0.00702495034784079,-0.0177150927484035
5,1.01805561097552,-0.17361112072783,0.0833333367337618,-0.0125227374956012,0.0128281703218818,-0.0140499006956816
5,1.01527782720901,-0.175000000455119,0.0791666671619817,-0.00916297826915979,0.0226020142436027,-0.0247400421649218
5,1.01388893532575,-0.176388892338373,0.0777777813567098,-0.00763581553474069,0.015577063895762,-0.0171042270958424
5,1.01527782720901,-0.177777784221628,0.0763888894734557,-0.00763581553474069,0.0146607663482428,-0.0134390350431204
5,1.01527782720901,-0.18333333959868,0.0722222259796579,-0.00488692196086049,0.01191187184304,-0.0134390350431204
5,1.01527782720901,-0.18333333959868,0.0722222259796579,-0.00397062394768,0.013744467869401,-0.000305432622553781
5,1.01944450285877,-0.186111123365188,0.0708333340964038,0.00244346098043024,0.013744467869401,-0.00549778714776039
5,1.02083339474202,-0.184722231481934,0.0680555564078778,-0.00244346098043024,-0.00488692196086049,-0.0125227374956012
5,1.02222228662528,-0.179166676104882,0.0680555564078778,-0.00641408516094089,0.00305432616733015,-0.00183259579353034
5,1.01527782720901,-0.177777784221628,0.0722222259796579,-0.00824668072164059,0.00244346098043024,0.00152716308366507
5,1.01111115155925,-0.177777784221628,0.0708333340964038,-0.00824668072164059,0.00366519158706069,0.000305432622553781
5,1.01111115155925,-0.179166676104882,0.0680555564078778,0.0045814891345799,0.00488692196086049,-0.00702495034784079
5,1.01805561097552,-0.180555567988136,0.0652777787193518,0.0125227374956012,0.011606439948082,0.00733038317412138
5,1.01666671909226,-0.177777784221628,0.0680555564078778,0.013744467869401,-0.000305432622553781,0.00580321997404099
5,1.01111115155925,-0.179166676104882,0.0847222225390337,0.00855211354792118,0.000610865245107561,0.0131336031481624
5,1.01527782720901,-0.180555567988136,0.0750000036681839,0.00824668072164059,-0.00183259579353034,0.017409659922123
5,1.01527782720901,-0.179166676104882,0.0694444482911319,0.0106901414692402,0.0045814891345799,0.0103847095742822
5,1.02777785415829,-0.170833336961321,0.0666666706026059,0.01588249579072,0.00397062394768,0.00671951752156019
5,1.02638896227504,-0.169444445078067,0.0638888929140799,0.0198531206697226,0.0128281703218818,0.0177150927484035
5,1.01805561097552,-0.170833336961321,0.0666666706026059,0.0189368221908808,0.00305432616733015,0.021685715764761
5,1.02500007039179,-0.169444445078067,0.0597222233422998,0.0290160998702049,-0.0180205255746841,0.0241291765123606
5,1.02500007039179,-0.17361112072783,0.0666666706026059,0.0305432621389627,-0.00580321997404099,0.0302378293126821
5,1.02500007039179,-0.179166676104882,0.0736111117849297,0.0369573459029198,-0.00794124789535999,0.0287106670439243
5,1.01527782720901,-0.18333333959868,0.0777777813567098,0.0565050356090069,0.0149661982432008,0.01191187184304
5,1.0125000434425,-0.181944447715425,0.0694444482911319,0.076052725315094,0.0033597587607801,0.000610865245107561
5,1.0125000434425,-0.181944447715425,0.0694444482911319,0.0891863256692886,0.00733038317412138,-0.0045814891345799
5,1.02222228662528,-0.180555567988136,0.0722222259796579,0.101403631269932,0.0103847095742822,-0.0125227374956012
5,1.02222228662528,-0.177777784221628,0.0763888894734557,0.115758962929249,0.0021380283869803,-0.00122173049021512
5,1.01666671909226,-0.168055565350778,0.0763888894734557,0.112093769013882,0.029626963660121,-0.00397062394768
5,1.0125000434425,-0.17361112072783,0.0819444448505077,0.104457959532738,0.0167987942695618,-0.00916297826915979
5,1.01527782720901,-0.176388892338373,0.0652777787193518,0.110261179506779,0.019547687843442,-0.013744467869401
5,1.0125000434425,-0.175000000455119,0.0680555564078778,0.120035022497177,0.0149661982432008,-0.013744467869401
5,1.00694447590948,-0.176388892338373,0.0666666706026059,0.113315500319004,-0.00488692196086049,-0.0247400421649218
5,1.0125000434425,-0.170833336961321,0.0763888894734557,0.0983493030071259,-0.00855211354792118,-0.0284052342176437
5,1.0125000434425,-0.170833336961321,0.0763888894734557,0.0897971913218498,-0.00794124789535999,-0.021685715764761
5,1.01944450285877,-0.16527778158427,0.0722222259796579,0.0781907513737679,-0.0045814891345799,-0.015577063895762
5,1.01944450285877,-0.166666673467524,0.0722222259796579,0.08460483700037,-0.00916297826915979,-0.00977384392172098
5,1.0125000434425,-0.17361112072783,0.0750000036681839,0.0879645943641663,-0.0183259565383196,-0.00824668072164059
5,1.00694447590948,-0.18333333959868,0.0805555590452358,0.106595985591412,-0.0354301854968071,0.000305432622553781
5,1.00833336779274,-0.175000000455119,0.0777777813567098,0.104763388633728,-0.0479529201984406,-0.000916297896765172
5,1.01666671909226,-0.163888889701015,0.0736111117849297,0.0949895456433296,-0.0256563406437635,0.00794124789535999
5,1.02222228662528,-0.154166670830166,0.0750000036681839,0.0592539273202419,-0.0250454749912024,0.0232128798961639
5,1.02083339474202,-0.144444451959316,0.0694444482911319,0.00733038317412138,-0.0293215326964855,0.0219911485910416
5,1.01805561097552,-0.15555556271342,0.0750000036681839,-0.0045814891345799,-0.0348193198442459,0.0183259565383196
5,1.02083339474202,-0.161111118090472,0.0750000036681839,-0.00183259579353034,-0.0259617734700441,0.0027488935738802
5,1.02222228662528,-0.166666673467524,0.0722222259796579,-0.0106901414692402,-0.0250454749912024,0.00824668072164059
5,1.01944450285877,-0.163888889701015,0.0777777813567098,-0.0256563406437635,-0.0167987942695618,0.0152716310694814
5,1.01666671909226,-0.161111118090472,0.0763888894734557,-0.0653625801205635,-0.019547687843442,0.029626963660121
5,1.01666671909226,-0.170833336961321,0.0819444448505077,-0.0882700309157372,-0.0177150927484035,0.0418442711234093
5,1.01944450285877,-0.181944447715425,0.0722222259796579,-0.0891863256692886,-0.00580321997404099,0.0354301854968071
5,1.01527782720901,-0.188888894975731,0.0750000036681839,-0.0772744566202164,-0.00549778714776039,0.02382374368608
5,1.01805561097552,-0.193055558469529,0.0791666671619817,-0.070249505341053,-0.00183259579353034,0.015577063895762
5,1.01111115155925,-0.187500003092477,0.0763888894734557,-0.0705549344420433,0.0131336031481624,0.0109955742955208
5,1.01944450285877,-0.179166676104882,0.0805555590452358,-0.0711658000946045,0.0134390350431204,-0.00244346098043024
5,1.0125000434425,-0.175000000455119,0.0694444482911319,-0.0791070461273193,0.021685715764761,-0.0198531206697226
5,1.01805561097552,-0.170833336961321,0.0805555590452358,-0.081855945289135,0.0027488935738802,-0.0177150927484035
5,1.02222228662528,-0.163888889701015,0.0847222225390337,-0.100792765617371,0.00122173049021512,0.000305432622553781
5,1.01944450285877,-0.159722226207217,0.0777777813567098,-0.0998764708638191,0.00855211354792118,0.00519235478714108
5,1.01944450285877,-0.166666673467524,0.0833333367337618,-0.102625362575054,0.0146607663482428,0.00733038317412138
5,1.01388893532575,-0.170833336961321,0.0777777813567098,-0.0980438739061356,0.00580321997404099,0.00580321997404099
5,1.01388893532575,-0.17361112072783,0.0791666671619817,-0.0901026204228401,0.00152716308366507,0.0122173046693206
5,1.01527782720901,-0.175000000455119,0.0722222259796579,-0.0934623852372169,0.000916297896765172,0.0027488935738802
5,1.01805561097552,-0.179166676104882,0.0652777787193518,-0.0861319974064827,0.00305432616733015,0.0100792767480016
5,1.01805561097552,-0.179166676104882,0.0652777787193518,-0.0977384373545647,-0.0113010071218014,0.0106901414692402
5,1.02361117850853,-0.181944447715425,0.0611111152255539,-0.0897971913218498,-0.00824668072164059,0.00855211354792118
5,1.02222228662528,-0.190277786858986,0.0652777787193518,-0.0534507073462009,0.00519235478714108,0.000916297896765172
5,1.01527782720901,-0.190277786858986,0.0694444482911319,-0.0253509078174829,-0.00122173049021512,0.00122173049021512
5,1.0125000434425,-0.188888894975731,0.0694444482911319,-0.0143553335219622,-0.0021380283869803,0.000916297896765172
5,1.02222228662528,-0.186111123365188,0.0638888929140799,-0.00519235478714108,0.00671951752156019,-0.00305432616733015
5,1.02222228662528,-0.18333333959868,0.0638888929140799,-0.0152716310694814,0.0113010071218014,0.00702495034784079
5,1.00972225967599,-0.187500003092477,0.0777777813567098,-0.0180205255746841,-0.0183259565383196,0.0033597587607801
5,1.01111115155925,-0.187500003092477,0.0722222259796579,-0.013744467869401,-0.00977384392172098,0.0128281703218818
5,1.01388893532575,-0.193055558469529,0.0569444456537738,-0.00610865233466029,-0.00366519158706069,0.00855211354792118
5,1.02222228662528,-0.190277786858986,0.052777782159976,0.0213802829384804,-0.0033597587607801,0.0134390350431204
5,1.01805561097552,-0.188888894975731,0.0625000010308258,0.0293215326964855,-0.0021380283869803,0.00549778714776039
5,1.01111115155925,-0.176388892338373,0.0666666706026059,0.0308486949652433,-0.00488692196086049,0.00733038317412138
5,1.01388893532575,-0.175000000455119,0.0694444482911319,0.0265726372599602,-0.0134390350431204,0.011606439948082
5,1.02222228662528,-0.176388892338373,0.0611111152255539,0.0192422550171614,-0.0021380283869803,0.00702495034784079
5,1.02083339474202,-0.18333333959868,0.0583333375370279,0.0210748501121998,-0.0033597587607801,0.0122173046693206
5,1.01527782720901,-0.187500003092477,0.0652777787193518,0.0183259565383196,-0.00824668072164059,0.0143553335219622
5,1.0125000434425,-0.187500003092477,0.0708333340964038,0.0290160998702049,0.000305432622553781,0.00366519158706069
5,1.01944450285877,-0.186111123365188,0.0611111152255539,0.0427605658769607,-0.00152716308366507,0.00549778714776039
5,1.02222228662528,-0.18333333959868,0.0625000010308258,0.0497855171561241,0.0122173046693206,-0.00427605677396059
5,1.0125000434425,-0.186111123365188,0.0680555564078778,0.0549778714776039,0.00580321997404099,0.00885754637420177
5,1.01388893532575,-0.181944447715425,0.0694444482911319,0.0546724386513233,0.0106901414692402,0.00519235478714108
5,1.01666671909226,-0.177777784221628,0.0722222259796579,0.0598647929728031,0.00397062394768,0.00427605677396059
5,1.01805561097552,-0.177777784221628,0.0694444482911319,0.0470366254448891,0.0143553335219622,-0.0027488935738802
5,1.01111115155925,-0.17361112072783,0.0597222233422998,0.0372627787292004,0.00580321997404099,-0.00122173049021512
5,1.01666671909226,-0.180555567988136,0.055555559848502,0.0421497002243996,0.013744467869401,-0.000916297896765172
5,1.01666671909226,-0.177777784221628,0.0625000010308258,0.0525344125926495,0.0143553335219622,-0.00366519158706069
5,1.01944450285877,-0.175000000455119,0.0680555564078778,0.0485637858510017,0.017409659922123,-0.00519235478714108
5,1.01944450285877,-0.175000000455119,0.0680555564078778,0.0323758572340012,0.00549778714776039,0.0103847095742822
5,1.00972225967599,-0.177777784221628,0.0750000036681839,0.029626963660121,-0.00641408516094089,0.00366519158706069
5,1.00555558402623,-0.18333333959868,0.0708333340964038,0.0406225398182869,0.00183259579353034,0.000305432622553781
5,1.01527782720901,-0.187500003092477,0.0708333340964038,0.0433714315295219,0.00610865233466029,-0.0122173046693206
5,1.01944450285877,-0.18333333959868,0.0625000010308258,0.0430659987032413,-0.00152716308366507,-0.00916297826915979
5,1.01666671909226,-0.177777784221628,0.0611111152255539,0.0323758572340012,-0.00763581553474069,-0.00641408516094089
5,1.01388893532575,-0.17361112072783,0.0625000010308258,0.0290160998702049,-0.00519235478714108,0.00366519158706069
5,1.00833336779274,-0.169444445078067,0.0736111117849297,0.0134390350431204,-0.00305432616733015,0.00427605677396059
5,1.01111115155925,-0.17361112072783,0.0750000036681839,0.0113010071218014,0.000610865245107561,-0.0045814891345799
5,1.01111115155925,-0.176388892338373,0.0680555564078778,0.00641408516094089,0.0167987942695618,-0.000916297896765172
5,1.01388893532575,-0.17361112072783,0.0777777813567098,0.0143553335219622,0.00366519158706069,0.00122173049021512
5,1.0125000434425,-0.176388892338373,0.0805555590452358,0.00122173049021512,0.011606439948082,0.00152716308366507
5,1.01527782720901,-0.170833336961321,0.0750000036681839,0.00183259579353034,0.0149661982432008,-0.00946841109544039
5,1.01944450285877,-0.170833336961321,0.0763888894734557,-0.00702495034784079,0.00977384392172098,-0.000916297896765172
5,1.01944450285877,-0.172222228844576,0.0708333340964038,-0.013744467869401,0.0180205255746841,-0.0021380283869803
5,1.01527782720901,-0.170833336961321,0.0708333340964038,-0.0219911485910416,0.0164933614432812,-0.0045814891345799
5,1.01666671909226,-0.17361112072783,0.0791666671619817,-0.0152716310694814,0.013744467869401,-0.00671951752156019
5,1.01527782720901,-0.181944447715425,0.0722222259796579,-0.00641408516094089,0.00885754637420177,0.000305432622553781
5,1.01944450285877,-0.175000000455119,0.0736111117849297,-0.00519235478714108,-0.0027488935738802,0.00916297826915979
5,1.0125000434425,-0.168055565350778,0.0763888894734557,-0.00855211354792118,-0.0122173046693206,0.0345138870179653
5,1.0125000434425,-0.169444445078067,0.0694444482911319,-0.0247400421649218,0.000610865245107561,0.0198531206697226
5,1.0125000434425,-0.170833336961321,0.0722222259796579,-0.02382374368608,-0.0134390350431204,0.0287106670439243
5,1.01527782720901,-0.180555567988136,0.0750000036681839,-0.0332921557128429,-0.0253509078174829,0.0400116741657257
5,1.01527782720901,-0.188888894975731,0.0611111152255539,-0.0335975885391235,-0.0219911485910416,0.0418442711234093
5,1.02083339474202,-0.188888894975731,0.0625000010308258,-0.0342084541916847,-0.00671951752156019,0.0452040284872055
5,1.01944450285877,-0.180555567988136,0.052777782159976,-0.0537561401724815,-0.0045814891345799,0.0442877300083637
5,1.01388893532575,-0.179166676104882,0.0569444456537738,-0.0571159012615681,-0.00641408516094089,0.0403171069920063
5,1.0125000434425,-0.187500003092477,0.0652777787193518,-0.0540615729987621,-0.0189368221908808,0.0332921557128429
5,1.00972225967599,-0.197222234119292,0.0722222259796579,-0.0323758572340012,-0.013744467869401,0.0226020142436027
5,1.01944450285877,-0.198611113846581,0.0652777787193518,-0.00397062394768,-0.0021380283869803,0.013744467869401
5,1.02222228662528,-0.197222234119292,0.0652777787193518,0.00641408516094089,0.0167987942695618,0.0021380283869803
5,1.02083339474202,-0.181944447715425,0.0736111117849297,0.00610865233466029,0.0229074470698834,0.00641408516094089
5,1.01805561097552,-0.176388892338373,0.0652777787193518,-0.01588249579072,0.0122173046693206,0.00916297826915979
5,1.01805561097552,-0.181944447715425,0.0680555564078778,-0.0284052342176437,-0.000916297896765172,-0.00366519158706069
