Activity,acc_x,acc_y,acc_z,gyro_x,gyro_y,gyro_z
0,0.530555581054339,0.0944444474878658,0.836111163260091,0.271835029125214,-0.0152716310694814,-0.0797179117798805
0,0.525000013521323,0.0986111170596459,0.82916670384382,0.234572261571884,-0.0879645943641663,-0.0415388382971287
0,0.53750004047061,0.113888891307548,0.859722228027695,0.193644285202026,-0.0565050356090069,-0.00519235478714108
0,0.545833343146276,0.118055554801345,0.863888903677457,0.213191971182823,0.33841934800148,-0.119424156844616
0,0.545833343146276,0.118055554801345,0.863888903677457,0.25411993265152,0.132557764649391,-0.0879645943641663
0,0.512500035195893,0.113888891307548,0.877777822509998,0.241902634501457,-0.0140499006956816,0.00152716308366507
0,0.502777792013115,0.111111119697004,0.844444514559616,0.236404851078987,-0.10598511993885,0.0604756586253643
0,0.502777792013115,0.111111119697004,0.844444514559616,0.209221348166466,-0.247094988822937,0.103541657328606
0,0.516666662221798,0.113888891307548,0.838888947026599,0.201585531234741,-0.127670839428902,0.0858265683054924
0,0.533333364820847,0.118055554801345,0.825000028194058,0.126449108123779,-0.0729983970522881,0.109650313854218
0,0.545833343146276,0.126388893944906,0.812500049868629,0.00427605677396059,-0.0723875313997269,0.107817716896534
0,0.545833343146276,0.126388893944906,0.812500049868629,0.029626963660121,-0.177456349134445,0.149356558918953
0,0.538888932353864,0.12777778582816,0.847222298326124,0.125532805919647,-0.193338856101036,0.16890424489975
0,0.54027777561326,0.118055554801345,0.843055622676362,0.17409659922123,-0.268780708312988,0.193338856101036
0,0.54027777561326,0.118055554801345,0.843055622676362,0.176540061831474,-0.23273965716362,0.197614908218384
0,0.556944478212309,0.125000002061652,0.84583340644287,0.0888808965682983,-0.158824965357781,0.171042263507843
0,0.572222240304247,0.126388893944906,0.820833352544296,0.0152716310694814,-0.0424551330506802,0.129197999835014
0,0.580555591603771,0.115277783190802,0.820833352544296,-0.0497855171561241,-0.0149661982432008,0.122783914208412
0,0.561111153862072,0.111111119697004,0.819444460661041,-0.058643065392971,-0.125838235020638,0.124921940267086
0,0.561111153862072,0.113888891307548,0.831944487610329,-0.00641408516094089,-0.11117747426033,0.110566608607769
0,0.568055564654484,0.0986111170596459,0.841666730793107,0.037568211555481,-0.0589484944939613,0.090408056974411
0,0.572222240304247,0.104166672436698,0.833333379493583,0.0519235469400883,-0.0342084541916847,0.0723875313997269
0,0.565277780887976,0.118055554801345,0.831944487610329,0.0565050356090069,0.00702495034784079,0.0589484944939613
0,0.568055564654484,0.111111119697004,0.812500049868629,0.0635299831628799,0.0192422550171614,0.0378736443817616
0,0.576388915954009,0.101388894748172,0.801388914802596,0.00977384392172098,0.0360410511493683,0.0265726372599602
0,0.569444456537738,0.102777780553444,0.795833347269579,-0.0400116741657257,0.0409279726445675,0.0027488935738802
0,0.570833348420992,0.100000002864918,0.805555590452358,-0.0711658000946045,0.0552833043038845,-0.0152716310694814
0,0.565277780887976,0.101388894748172,0.815277785011279,-0.0684169083833694,0.0653625801205635,-0.0204639863222837
0,0.559722261978817,0.0972222251763917,0.837500055143345,-0.0262672062963247,0.140193566679955,-0.0409279726445675
0,0.551388910679293,0.0763888894734557,0.841666730793107,0.0222965814173222,0.142942473292351,-0.0259617734700441
0,0.54722223502953,0.0902777839940679,0.85138887672817,0.0351247526705265,0.0568104684352875,-0.0180205255746841
0,0.550000018796039,0.0972222251763917,0.858333336144441,0.0620028227567673,0.0705549344420433,-0.0479529201984406
0,0.554166694445801,0.0944444474878658,0.858333336144441,0.0998764708638191,0.109955742955208,-0.107817716896534
0,0.538888932353864,0.0958333393711199,0.833333379493583,0.0595593601465225,0.0189368221908808,-0.0494800843298435
0,0.536111148587356,0.101388894748172,0.82916670384382,0.0552833043038845,0.00977384392172098,-0.0287106670439243
0,0.53750004047061,0.10972222781375,0.834722271376837,0.0726929605007172,-0.111482910811901,0.0229074470698834
0,0.551388910679293,0.0986111170596459,0.837500055143345,0.0293215326964855,-0.230601623654366,0.0525344125926495
0,0.555555586329055,0.0986111170596459,0.82222224442755,-0.0113010071218014,-0.00763581553474069,-0.00824668072164059
0,0.575000024070755,0.111111119697004,0.811111157985375,-0.0507018156349659,-0.0534507073462009,-0.0256563406437635
0,0.572222240304247,0.118055554801345,0.825000028194058,-0.0500909499824047,0.0250454749912024,-0.0571159012615681
0,0.580555591603771,0.115277783190802,0.833333379493583,-0.0546724386513233,0.0171042270958424,-0.125838235020638
0,0.575000024070755,0.116666675074056,0.831944487610329,-0.0995710343122482,-0.180510684847832,-0.119424156844616
0,0.554166694445801,0.113888891307548,0.841666730793107,-0.0864374339580536,-0.201890960335732,-0.106290549039841
0,0.554166694445801,0.113888891307548,0.841666730793107,-0.0280998013913631,-0.118202425539494,-0.101403631269932
0,0.552777802562547,0.0986111170596459,0.818055568777787,-0.0262672062963247,-0.0745255574584007,-0.107817716896534
0,0.551388910679293,0.100000002864918,0.806944482335612,-0.0531452745199203,-0.0842994004487991,-0.116980694234371
0,0.558333370095563,0.0986111170596459,0.816666676894533,-0.01191187184304,0.0690277740359306,-0.151800006628036
0,0.554166694445801,0.104166672436698,0.804166698569104,0.0256563406437635,0.210748508572578,-0.1750128865242
0,0.536111148587356,0.102777780553444,0.794444455386325,-0.00824668072164059,0.156686931848526,-0.138971850275993
0,0.534722256704101,0.0986111170596459,0.808333374218867,-0.015577063895762,0.118202425539494,-0.12705996632576
0,0.534722256704101,0.111111119697004,0.815277785011279,-0.0852157026529312,0.296880513429642,-0.152716308832169
0,0.536111148587356,0.115277783190802,0.819444460661041,-0.267558991909027,0.261755764484406,-0.0977384373545647
0,0.545833343146276,0.105555564319952,0.827777811960566,-0.430660009384155,0.523206055164337,-0.208305045962334
0,0.522222229754814,0.10972222781375,0.858333336144441,-0.580932855606079,0.463035851716995,-0.323453158140182
0,0.488888921804431,0.0666666706026059,0.909722238577127,-0.277638256549835,0.346055150032044,-0.412028610706329
0,0.479166678621653,0.0861111144222878,0.926388941176177,0.0421497002243996,-0.0736092627048492,-0.297185927629471
0,0.529166689171085,0.1194444466846,0.886111173809523,0.166460782289505,-0.277027398347855,-0.230296194553375
0,0.54027777561326,0.120833338567854,0.863888903677457,0.0424551330506802,-0.238542884588242,-0.265726387500763
0,0.580555591603771,0.125000002061652,0.844444514559616,-0.131336033344269,-0.193644285202026,-0.482583552598953
0,0.559722261978817,0.100000002864918,0.837500055143345,-0.25411993265152,-0.0418442711234093,-0.850629866123199
0,0.551388910679293,0.102777780553444,0.825000028194058,-0.298102229833603,-0.546418964862823,-0.984409332275391
0,0.526388905404577,0.12916666555545,0.827777811960566,-0.0708603709936142,-0.794735670089722,-0.901942551136017
0,0.526388905404577,0.12916666555545,0.827777811960566,0.00488692196086049,-0.587652385234833,-1.01770150661469
0,0.616666683320662,0.151388899219622,0.823611136310804,-0.194560587406159,-0.942565083503723,-1.45172131061554
0,0.531944472937593,0.213888888094483,0.847222298326124,-0.432492583990097,-1.49875783920288,-1.2623530626297
0,0.531944472937593,0.213888888094483,0.847222298326124,-0.658512711524963,-0.836579978466034,-0.721431851387024
0,0.544444451263022,0.212499996211229,0.844444514559616,-0.721737265586853,-0.421191573143005,-0.518319189548492
0,0.562499997121468,0.19166667874224,0.87500003874349,-0.384234249591827,-1.38880217075348,-0.417220950126648
0,0.562499997121468,0.19166667874224,0.87500003874349,-0.324980318546295,-1.13712561130524,-0.373544096946716
0,0.511111143312639,0.223611131277262,0.858333336144441,-0.372933238744736,0.341779112815857,-0.323147714138031
0,0.618055575203916,0.176388892338373,0.818055568777787,-0.0598647929728031,-0.058643065392971,-0.504574716091156
0,0.534722256704101,0.170833336961321,0.780555585177642,-0.0302378293126821,-1.30694615840912,0.292604446411133
0,0.580555591603771,0.180555567988136,0.744444493460751,-0.423024177551269,-1.06718158721924,0.0558941699564457
0,0.623611142736933,0.162500009973726,0.769444450111609,-0.251981914043427,0.0167987942695618,0.193338856101036
0,0.648611148011649,0.16527778158427,0.84583340644287,0.339946508407593,-0.4544837474823,0.377514719963074
0,0.676388937052873,0.104166672436698,0.827777811960566,0.486554175615311,-0.990823447704315,0.529925584793091
0,0.675000045169619,0.12777778582816,0.741666709694243,0.390953749418259,-0.929126024246216,0.519846320152283
0,0.808333374218867,0.101388894748172,0.611111115787646,-0.0125227374956012,-0.204945296049118,0.037568211555481
0,0.82916670384382,0.134722233088466,0.54722223502953,-0.444404453039169,0.147218525409698,-0.126143679022789
0,0.772222233878117,0.130555557438704,0.654166666920807,-0.116675265133381,0.200669229030609,-0.0956004112958908
0,0.712500028769764,0.1194444466846,0.80277780668585,0.553138494491577,0.0302378293126821,0.0507018156349659
0,0.723611115211939,0.143055560076062,0.769444450111609,0.840550601482391,-0.111788339912891,0.107512280344963
0,0.769444450111609,0.140277788465518,0.66527780198684,0.839634299278259,-0.321315109729767,0.070249505341053
0,0.768055606852213,0.151388899219622,0.622222250853679,0.864985167980194,-0.167071640491486,0.0345138870179653
0,0.758333363669434,0.13750000469901,0.6125000076709,0.738536059856415,-0.106901414692402,-0.0113010071218014
0,0.697222266677827,0.179166676104882,0.572222240304247,0.361021369695664,0.231823354959488,0.0418442711234093
0,0.729166682744956,0.20972223675665,0.609722223904392,0.277332812547684,0.447153359651566,-0.0369573459029198
0,0.715277812536273,0.200000005729836,0.652777823661411,0.359494209289551,0.297185927629471,0.0314595587551594
0,0.73055557462821,0.211111128639904,0.650000039894903,0.513432264328003,0.10567969083786,0.0287106670439243
0,0.719444488186035,0.200000005729836,0.65833334257057,0.687223374843597,-0.251065611839294,0.0259617734700441
0,0.680555564078778,0.20972223675665,0.673611153286365,0.658207297325134,-0.228769034147263,0.0161879286170006
0,0.697222266677827,0.220833347510754,0.676388937052873,0.427300244569778,0.0342084541916847,-0.0412334054708481
0,0.706944461236748,0.226388890731841,0.690277807261557,0.146607652306557,0.192117124795914,-0.0265726372599602
0,0.713888920653019,0.215277779977737,0.680555564078778,0.00702495034784079,0.0607810914516449,-0.0235183127224445
0,0.736111142161226,0.222222239394008,0.680555564078778,-0.0409279726445675,0.00519235478714108,-0.0103847095742822
0,0.695833374794573,0.227777782615095,0.673611153286365,0.0232128798961639,0.00733038317412138,0.0791070461273193
0,0.675000045169619,0.197222234119292,0.706944461236748,-0.0177150927484035,0.325896620750427,0.0494800843298435
0,0.668055585753349,0.238888893369199,0.680555564078778,-0.181732416152954,0.691804885864258,0.087659165263176
0,0.673611153286365,0.240277785252453,0.709722245003256,-0.0717766657471657,0.549473285675049,0.122478485107422
0,0.633333337295854,0.229166674498349,0.722222271952543,0.142637029290199,0.273056775331497,0.182037845253944
0,0.676388937052873,0.215277779977737,0.693055591028065,-0.0271835029125214,0.539394021034241,0.0885754600167274
0,0.712500028769764,0.212499996211229,0.713888920653019,-0.164933621883392,0.821613729000092,0.0198531206697226
0,0.683333347845286,0.222222239394008,0.755555579902926,-0.193644285202026,0.945619404315948,0.0033597587607801
0,0.662500018220332,0.2194444556275,0.765277823085705,-0.200669229030609,1.1701123714447,0.0180205255746841
0,0.6319444454126,0.223611131277262,0.797222239152834,-0.0852157026529312,1.32496666908264,0.0607810914516449
0,0.604166704995233,0.218055563744246,0.797222239152834,0.00122173049021512,1.34481978416443,0.0733038261532784
0,0.611111115787646,0.190277786858986,0.759722255552688,-0.0339030213654041,0.91507613658905,0.102319926023483
0,0.647222256128395,0.190277786858986,0.737500034044481,-0.0555887371301651,0.340862810611725,0.0259617734700441
0,0.625000034620187,0.17361112072783,0.691666699144811,-0.0751364231109619,-0.476780325174332,0.0543670058250427
0,0.588888894279438,0.2194444556275,0.705555569353494,-0.0406225398182869,-1.53999125957489,0.0122173046693206
0,0.569444456537738,0.216666671860991,0.843055622676362,0.244040668010712,-1.02991878986359,-0.00610865233466029
0,0.584722267253534,0.2194444556275,0.843055622676362,0.146302223205566,-0.0931569486856461,-0.0513126812875271
0,0.608333332021137,0.236111109602691,0.804166698569104,-0.0308486949652433,0.542448341846466,-0.139582708477974
0,0.608333332021137,0.236111109602691,0.804166698569104,-0.224492982029915,0.752280533313751,-0.115148097276688
0,0.572222240304247,0.230555566381603,0.775000017644626,-0.204945296049118,0.400116741657257,0.0320704244077206
0,0.577777807837263,0.226388890731841,0.772222233878117,-0.111788339912891,0.05283984541893,0.109039448201656
0,0.595833353695709,0.2194444556275,0.766666714968959,-0.117286130785942,0.0696386396884918,0.0650571510195732
0,0.602777813111979,0.211111128639904,0.780555585177642,-0.0998764708638191,0.30146199464798,-0.0534507073462009
0,0.604166704995233,0.197222234119292,0.781944477060896,-0.0974330082535744,0.309708684682846,-0.087659165263176
0,0.591666678045946,0.190277786858986,0.787500044593913,-0.0314595587551594,0.0549778714776039,-0.00855211354792118
0,0.58333337537028,0.188888894975731,0.791666671619817,0.0717766657471657,-0.114231802523136,0.0201585534960032
0,0.581944483487025,0.200000005729836,0.787500044593913,0.17440202832222,-0.00427605677396059,0.0510072484612465
0,0.579166699720517,0.181944447715425,0.772222233878117,0.157603234052658,0.098960168659687,0.0687223374843597
0,0.558333370095563,0.195833342236038,0.786111152710659,0.0901026204228401,0.356134444475174,0.0800233483314514
0,0.558333370095563,0.195833342236038,0.786111152710659,-0.0314595587551594,0.431270867586136,0.0445931628346443
0,0.551388910679293,0.206944452990142,0.791666671619817,-0.0503963828086853,0.302683740854263,0.0684169083833694
0,0.398611119576417,0.208333344873396,0.841666730793107,-0.0125227374956012,-0.0931569486856461,0.0742201283574104
0,0.398611119576417,0.208333344873396,0.841666730793107,0.0445931628346443,-0.226020142436027,0.0232128798961639
0,0.604166704995233,0.206944452990142,0.830555595727074,0.0522289797663689,-0.212886542081833,-0.0235183127224445
0,0.577777807837263,0.240277785252453,0.880555606276507,0.0106901414692402,-0.180510684847832,-0.0714712366461754
0,0.645833364245141,0.168055565350778,0.986111194908388,-0.0455094613134861,-0.115453533828259,-0.12705996632576
0,0.645833364245141,0.168055565350778,0.986111194908388,-0.259923160076141,0.0332921557128429,-0.11117747426033
0,0.693055591028065,0.216666671860991,0.426388884305712,-0.346971452236175,0.442266434431076,-0.262977480888367
0,0.550000018796039,0.2194444556275,0.479166678621653,-0.415082931518555,0.373849540948868,-0.314595609903336
0,0.550000018796039,0.2194444556275,0.479166678621653,-0.535117983818054,0.494800835847855,-0.191200822591782
0,0.511111143312639,0.202777789496344,1.23888893417434,-0.515570282936096,0.425467640161514,-0.141109868884087
0,0.493055597454194,0.20138889761309,1.46250004113967,-0.350331217050552,0.259312301874161,-0.0638354197144508
0,0.509722251429385,0.213888888094483,1.00277780025972,-0.149661988019943,0.184175878763199,-0.0332921557128429
0,0.562499997121468,0.20972223675665,-0.0680555564078778,-0.0390953756868839,0.159130394458771,0.00519235478714108
0,0.587500002396184,0.180555567988136,0.488888921804431,-0.146607652306557,0.0873537287116051,0.0045814891345799
0,0.534722256704101,0.131944449321958,1.68888902911923,-0.172263994812965,0.0952949747443199,0.00427605677396059
0,0.493055597454194,0.144444451959316,1.31666668514114,-0.124005645513535,0.110261179506779,0.0271835029125214
0,0.519444445988306,0.156944454596674,0.0416666683668809,-0.0342084541916847,0.076052725315094,0.0314595587551594
0,0.559722261978817,0.187500003092477,0.0736111117849297,0.0198531206697226,0.0400116741657257,0.0305432621389627
0,0.531944472937593,0.154166670830166,1.63750002943883,0.0204639863222837,0.0213802829384804,0.0308486949652433
0,0.504166683896369,0.141666668192807,1.26249999894194,0.0433714315295219,-0.00946841109544039,0.0308486949652433
0,0.512500035195893,0.158333334323963,0.655555558804062,0.03176499158144,0.0372627787292004,0.0397062413394451
0,0.584722267253534,0.180555567988136,0.140277788465518,0.0354301854968071,0.141415297985077,0.0314595587551594
0,0.584722267253534,0.180555567988136,0.140277788465518,-0.00519235478714108,0.177761793136597,-0.00610865233466029
0,0.531944472937593,0.156944454596674,1.26527778270845,0.00122173049021512,0.172569438815117,-0.0109955742955208
0,0.531944472937593,0.156944454596674,1.26527778270845,0.00122173049021512,0.172569438815117,-0.0109955742955208
0,0.531944472937593,0.156944454596674,1.26527778270845,0.0427605658769607,0.00397062394768,0.0125227374956012
0,0.541666667496514,0.169444445078067,0.752777796136418,0.0577267669141293,0.0332921557128429,0.00488692196086049
0,0.525000013521323,0.15555556271342,0.884722281926269,0.0568104684352875,0.0519235469400883,-0.00733038317412138
0,0.519444445988306,0.152777778946911,0.89722221162784,0.070249505341053,0.03176499158144,-0.00580321997404099
0,0.519444445988306,0.152777778946911,0.89722221162784,0.0277943685650826,-0.00488692196086049,0.00733038317412138
0,0.533333364820847,0.163888889701015,0.793055563503071,0.0134390350431204,0.0299323964864016,0.0177150927484035
0,0.529166689171085,0.166666673467524,0.793055563503071,0.0167987942695618,0.0910189226269722,0.00244346098043024
0,0.512500035195893,0.166666673467524,0.841666730793107,0.0671951770782471,0.0867428630590439,0.0131336031481624
0,0.515277818962402,0.169444445078067,0.854166660494678,0.0348193198442459,0.00763581553474069,0.00519235478714108
0,0.519444445988306,0.166666673467524,0.837500055143345,0.0125227374956012,0.0311541277915239,-0.00733038317412138
0,0.525000013521323,0.166666673467524,0.82222224442755,0.00580321997404099,0.0571159012615681,-0.0164933614432812
0,0.523611121638068,0.163888889701015,0.854166660494678,0.0360410511493683,0.0574213340878487,-0.00794124789535999
0,0.519444445988306,0.161111118090472,0.85138887672817,0.0351247526705265,0.0378736443817616,-0.00397062394768
0,0.525000013521323,0.159722226207217,0.852777768611424,0.0363464802503586,0.0616973899304867,0.000305432622553781
0,0.526388905404577,0.161111118090472,0.849999984844916,0.0357356183230877,0.0626136884093285,-0.000916297896765172
0,0.511111143312639,0.163888889701015,0.861111119910949,0.0271835029125214,0.0183259565383196,0.00366519158706069
0,0.506944467662877,0.166666673467524,0.861111119910949,0.0152716310694814,0.00916297826915979,-0.000610865245107561
0,0.516666662221798,0.162500009973726,0.858333336144441,-0.00519235478714108,0.0143553335219622,0.00580321997404099
0,0.516666662221798,0.162500009973726,0.858333336144441,-0.017409659922123,0.0164933614432812,0.00152716308366507
0,0.519444445988306,0.169444445078067,0.834722271376837,-0.0180205255746841,0.0522289797663689,0.0021380283869803
0,0.518055554105052,0.172222228844576,0.831944487610329,-0.00610865233466029,0.0424551330506802,-0.00794124789535999
0,0.512500035195893,0.175000000455119,0.834722271376837,0.0140499006956816,0.021685715764761,-0.0183259565383196
0,0.515277818962402,0.172222228844576,0.827777811960566,0.0128281703218818,-0.00519235478714108,-0.021685715764761
0,0.512500035195893,0.166666673467524,0.844444514559616,-0.00183259579353034,0.0372627787292004,-0.0284052342176437
0,0.508333359546131,0.163888889701015,0.863888903677457,-0.00733038317412138,0.0583376325666905,-0.011606439948082
0,0.515277818962402,0.17361112072783,0.855555552377932,-0.00122173049021512,0.0458148941397667,-0.0177150927484035
0,0.515277818962402,0.17361112072783,0.844444514559616,0.02382374368608,0.0348193198442459,-0.0128281703218818
0,0.515277818962402,0.17361112072783,0.830555595727074,0.0372627787292004,0.0290160998702049,-0.0103847095742822
0,0.515277818962402,0.170833336961321,0.837500055143345,0.0314595587551594,0.0583376325666905,-0.0210748501121998
0,0.511111143312639,0.170833336961321,0.837500055143345,0.0143553335219622,0.0613919571042061,-0.0161879286170006
0,0.509722251429385,0.17361112072783,0.847222298326124,0.0164933614432812,0.0577267669141293,-0.0167987942695618
0,0.505555575779623,0.172222228844576,0.848611190209378,0.0360410511493683,0.0458148941397667,-0.017409659922123
0,0.500000008246606,0.180555567988136,0.85138887672817,0.0433714315295219,0.0256563406437635,-0.0180205255746841
0,0.502777792013115,0.177777784221628,0.848611190209378,0.0180205255746841,0.0461203269660473,-0.01191187184304
0,0.509722251429385,0.17361112072783,0.854166660494678,-0.0122173046693206,0.0601702257990837,-0.0265726372599602
0,0.509722251429385,0.181944447715425,0.87500003874349,-0.00946841109544039,0.0351247526705265,-0.017409659922123
0,0.509722251429385,0.181944447715425,0.865277795560711,-0.00794124789535999,0.0171042270958424,-0.0164933614432812
0,0.504166683896369,0.187500003092477,0.86805557932722,0.00488692196086049,0.00671951752156019,-0.0103847095742822
0,0.505555575779623,0.187500003092477,0.86805557932722,0.000305432622553781,-0.00183259579353034,-0.00794124789535999
0,0.498611116363352,0.176388892338373,0.859722228027695,-0.00855211354792118,0.0256563406437635,-0.0189368221908808
0,0.509722251429385,0.17361112072783,0.841666730793107,0.00427605677396059,0.00305432616733015,-0.00580321997404099
0,0.515277818962402,0.179166676104882,0.841666730793107,0.0100792767480016,0.0122173046693206,0.00397062394768
0,0.509722251429385,0.17361112072783,0.849999984844916,-0.01588249579072,-0.00549778714776039,0.00977384392172098
0,0.502777792013115,0.17361112072783,0.861111119910949,-0.0403171069920063,0.0519235469400883,-0.0027488935738802
0,0.500000008246606,0.175000000455119,0.86805557932722,-0.0418442711234093,0.0540615729987621,0.00733038317412138
0,0.500000008246606,0.180555567988136,0.858333336144441,-0.0409279726445675,0.0372627787292004,0.0164933614432812
0,0.500000008246606,0.180555567988136,0.858333336144441,-0.011606439948082,0.0103847095742822,0.017409659922123
0,0.505555575779623,0.175000000455119,0.843055622676362,-0.0219911485910416,-0.00427605677396059,0.0198531206697226
0,0.505555575779623,0.175000000455119,0.843055622676362,-0.0552833043038845,0.0308486949652433,0.00916297826915979
0,0.502777792013115,0.172222228844576,0.844444514559616,-0.0751364231109619,0.0675006061792374,-0.00488692196086049
0,0.502777792013115,0.172222228844576,0.844444514559616,-0.0534507073462009,0.0387899428606033,-0.0045814891345799
0,0.498611116363352,0.168055565350778,0.859722228027695,0.00397062394768,0.00671951752156019,0.0140499006956816
0,0.495833332596844,0.168055565350778,0.863888903677457,-0.000305432622553781,0.0100792767480016,0.013744467869401
0,0.498611116363352,0.166666673467524,0.865277795560711,-0.0198531206697226,0.0348193198442459,-0.00183259579353034
0,0.504166683896369,0.166666673467524,0.840277838909853,-0.0815505087375641,0.113926365971565,-0.0271835029125214
0,0.500000008246606,0.172222228844576,0.856944444261187,-0.0656680166721344,0.112399205565453,-0.021685715764761
0,0.500000008246606,0.172222228844576,0.856944444261187,-0.02382374368608,0.0549778714776039,0.0027488935738802
0,0.500000008246606,0.172222228844576,0.856944444261187,0.00152716308366507,-0.00885754637420177,0.0210748501121998
0,0.493055597454194,0.166666673467524,0.870833363093728,-0.0128281703218818,-0.00519235478714108,0.00824668072164059
0,0.500000008246606,0.162500009973726,0.873611146860236,-0.02382374368608,0.0128281703218818,-0.00702495034784079
0,0.495833332596844,0.156944454596674,0.862500011794203,0.000305432622553781,0.000305432622553781,-0.0045814891345799
0,0.495833332596844,0.156944454596674,0.862500011794203,0.0381790772080422,0.00610865233466029,0.000610865245107561
0,0.495833332596844,0.15555556271342,0.863888903677457,0.0308486949652433,-0.00152716308366507,0.00580321997404099
0,0.495833332596844,0.15555556271342,0.863888903677457,0.0171042270958424,0.00946841109544039,0.00427605677396059
0,0.493055597454194,0.161111118090472,0.866666687443965,0.0171042270958424,0.0134390350431204,0.00183259579353034
0,0.497222224480098,0.159722226207217,0.866666687443965,-0.00427605677396059,0.00855211354792118,0.0045814891345799
0,0.493055597454194,0.161111118090472,0.854166660494678,0.01588249579072,0.00885754637420177,0.00824668072164059
0,0.493055597454194,0.162500009973726,0.852777768611424,0.0299323964864016,0.0360410511493683,0.0021380283869803
0,0.488888921804431,0.162500009973726,0.837500055143345,0.0461203269660473,0.0482583530247212,0.00244346098043024
0,0.49166670557094,0.166666673467524,0.841666730793107,0.0494800843298435,0.0613919571042061,0.00305432616733015
0,0.490277813687686,0.163888889701015,0.849999984844916,0.0620028227567673,0.0311541277915239,-0.000610865245107561
0,0.484722246154669,0.166666673467524,0.858333336144441,0.0491746515035629,0.0369573459029198,0.000916297896765172
0,0.493055597454194,0.175000000455119,0.863888903677457,0.037568211555481,0.0772744566202164,-0.0122173046693206
0,0.493055597454194,0.179166676104882,0.863888903677457,0.0537561401724815,0.109650313854218,-0.00244346098043024
0,0.495833332596844,0.176388892338373,0.84583340644287,0.0397062413394451,0.177456349134445,-0.00183259579353034
0,0.495833332596844,0.168055565350778,0.838888947026599,-0.0430659987032413,0.201585531234741,-0.0394008085131645
0,0.483333354271415,0.163888889701015,0.85138887672817,-0.0455094613134861,0.0659734457731247,-0.0244346093386412
0,0.477777786738398,0.156944454596674,0.872222254976982,-0.087659165263176,0.0299323964864016,-0.017409659922123
0,0.483333354271415,0.161111118090472,0.854166660494678,-0.160962998867035,0.136222943663597,-0.0311541277915239
0,0.498611116363352,0.156944454596674,0.884722281926269,-0.0956004112958908,0.17409659922123,-0.117591559886932
0,0.518055554105052,0.15555556271342,0.87500003874349,-0.157603234052658,0.11606439948082,-0.194866016507149
0,0.462500024646461,0.13750000469901,0.870833363093728,-0.255036234855652,0.0284052342176437,0.00519235478714108
0,0.481944462388161,0.150000007336368,0.87500003874349,-0.272751331329346,-0.0613919571042061,-0.029626963660121
0,0.497222224480098,0.158333334323963,0.906944454810619,-0.156686931848526,-0.2379320114851,-0.0830776765942574
0,0.543055559379768,0.148611115453114,0.947222222177272,0.294131606817245,-0.541532039642334,-0.22174409031868
0,0.536111148587356,0.140277788465518,0.872222254976982,0.441655576229096,-0.358883321285248,-0.266642689704895
0,0.545833343146276,0.158333334323963,0.775000017644626,0.299934834241867,-0.775798857212067,-0.20616702735424
0,0.561111153862072,0.176388892338373,0.770833341994863,0.430049121379852,-0.974024653434753,-0.329256355762482
0,0.430555559955475,0.150000007336368,0.791666671619817,0.473115146160126,-0.390953749418259,-0.353385537862778
0,0.463888916529715,0.170833336961321,0.729166682744956,-0.0943786799907684,0.113010071218014,0.0671951770782471
0,0.508333359546131,0.243055569018962,0.690277807261557,-1.25746607780456,-0.439212113618851,0.427911102771759
0,0.502777792013115,0.14583334384257,0.818055568777787,-0.974024653434753,0.451429426670075,0.17409659922123
0,0.490277813687686,0.12916666555545,0.951388897827035,-0.358883321285248,1.19943392276764,0.0027488935738802
0,0.456944457113445,0.13750000469901,0.954166681593543,-0.138360977172852,0.995099484920502,0.0555887371301651
0,0.476388894855144,0.152777778946911,0.925000049292922,-0.292299032211304,0.826195240020752,0.16890424489975
0,0.452777781463682,0.156944454596674,0.884722281926269,0.230296194553375,-0.112399205565453,0.260534018278122
0,0.440277803138253,0.0708333340964038,0.827777811960566,0.698219001293182,-0.487775892019272,0.26419922709465
0,0.480555570504907,0.130555557438704,0.844444514559616,0.617584764957428,-0.0928515195846558,0.376903861761093
0,0.437500019371745,0.180555567988136,0.916666697993398,0.184175878763199,-0.0668897479772568,0.0629191175103188
0,0.454166673346937,0.120833338567854,0.977777843608863,-0.251065611839294,0.597120761871338,-0.118202425539494
0,0.452777781463682,0.106944444047242,0.954166681593543,-0.0812450796365738,0.603840291500092,-0.0693332031369209
0,0.458333348996699,0.0986111170596459,0.904166671044111,0.163101017475128,0.281303435564041,0.0345138870179653
0,0.472222219205382,0.123611110178398,0.89722221162784,0.329867243766785,0.144775062799454,0.0699440687894821
0,0.472222219205382,0.123611110178398,0.89722221162784,0.221133217215538,0.128587126731873,0.0180205255746841
0,0.469444484062732,0.186111123365188,0.888888957576031,0.123394779860973,0.166766211390495,0.000916297896765172
0,0.486111138037923,0.184722231481934,0.858333336144441,0.141109868884087,0.0314595587551594,0.0497855171561241
0,0.462500024646461,0.20138889761309,0.834722271376837,0.273667633533478,-0.366519153118133,0.164933621883392
0,0.470833327322128,0.193055558469529,0.906944454810619,0.188451930880547,-0.410196006298065,0.0922406539320946
0,0.470833327322128,0.193055558469529,0.906944454810619,0.130725160241127,-0.17470745742321,0.0574213340878487
0,0.46527780841297,0.20972223675665,0.899999995394348,-0.0983493030071259,-0.138360977172852,0.00549778714776039
0,0.46527780841297,0.20972223675665,0.899999995394348,-0.184481307864189,-0.0302378293126821,-0.00855211354792118
0,0.473611111088636,0.200000005729836,0.888888957576031,-0.160046696662903,-0.111482910811901,0.0219911485910416
0,0.459722240879953,0.162500009973726,0.899999995394348,-0.0345138870179653,-0.259006857872009,0.0134390350431204
0,0.472222219205382,0.130555557438704,0.863888903677457,-0.0421497002243996,-0.0983493030071259,-0.0763581544160843
0,0.472222219205382,0.130555557438704,0.863888903677457,-0.418442696332932,-0.130725160241127,0.131336033344269
0,0.416666689746791,0.18333333959868,0.798611131036088,-0.154548913240433,-0.187230199575424,-0.102319926023483
0,0.477777786738398,0.150000007336368,0.862500011794203,-0.142026171088219,-0.113010071218014,-0.0864374339580536
0,0.477777786738398,0.150000007336368,0.862500011794203,0.0812450796365738,-0.502742111682892,-0.0100792767480016
0,0.487500029921177,0.13750000469901,0.865277795560711,0.195171445608139,-0.650571465492249,0.0879645943641663
0,0.522222229754814,0.170833336961321,0.847222298326124,0.23304508626461,-0.763276100158691,0.123700208961964
0,0.522222229754814,0.170833336961321,0.847222298326124,0.229379892349243,-0.825584352016449,0.114842668175697
0,0.543055559379768,0.154166670830166,0.831944487610329,0.142026171088219,-0.38026362657547,0.0442877300083637
0,0.555555586329055,0.158333334323963,0.827777811960566,0.163101017475128,-0.157908663153648,0.0207694191485643
0,0.555555586329055,0.158333334323963,0.811111157985375,0.0461203269660473,0.00763581553474069,-0.000916297896765172
0,0.554166694445801,0.163888889701015,0.818055568777787,0.0244346093386412,0.0882700309157372,-0.00824668072164059
0,0.529166689171085,0.154166670830166,0.841666730793107,-0.0641408488154411,0.268169850111008,-0.0445931628346443
0,0.529166689171085,0.154166670830166,0.841666730793107,-0.138971850275993,0.543059229850769,-0.0629191175103188
0,0.526388905404577,0.141666668192807,0.849999984844916,-0.109344877302647,0.60261857509613,-0.0415388382971287
0,0.522222229754814,0.168055565350778,0.793055563503071,-0.0320704244077206,0.454178303480148,-0.00763581553474069
0,0.506944467662877,0.156944454596674,0.827777811960566,-0.0149661982432008,0.415999233722687,-0.021685715764761
0,0.52083333787156,0.18333333959868,0.820833352544296,0.01191187184304,0.239153742790222,-0.00977384392172098
0,0.52083333787156,0.186111123365188,0.827777811960566,-0.05283984541893,0.114537231624126,-0.0302378293126821
0,0.500000008246606,0.17361112072783,0.848611190209378,0.00733038317412138,0.249538451433182,-0.0201585534960032
0,0.495833332596844,0.16527778158427,0.85138887672817,0.0830776765942574,0.0956004112958908,0.027488935738802
0,0.495833332596844,0.163888889701015,0.861111119910949,0.145996794104576,0.0601702257990837,0.0467311926186085
0,0.486111138037923,0.156944454596674,0.863888903677457,0.140193566679955,0.058643065392971,0.0363464802503586
0,0.486111138037923,0.158333334323963,0.858333336144441,0.128587126731873,0.0503963828086853,0.0488692186772823
0,0.493055597454194,0.17361112072783,0.858333336144441,0.104457959532738,0.0519235469400883,0.0540615729987621
0,0.497222224480098,0.180555567988136,0.86805557932722,0.0745255574584007,0.112399205565453,0.0885754600167274
0,0.512500035195893,0.186111123365188,0.86805557932722,0.0678060427308083,0.0433714315295219,0.113926365971565
0,0.486111138037923,0.179166676104882,0.877777822509998,0.136222943663597,0.0543670058250427,0.0830776765942574
0,0.493055597454194,0.170833336961321,0.870833363093728,0.134695783257484,0.0290160998702049,0.0629191175103188
0,0.483333354271415,0.166666673467524,0.872222254976982,0.117896988987923,-0.01588249579072,0.0681114718317986
0,0.486111138037923,0.17361112072783,0.870833363093728,0.0769690200686455,-0.0164933614432812,0.0534507073462009
0,0.488888921804431,0.177777784221628,0.880555606276507,0.0561996027827263,0.0320704244077206,0.0427605658769607
0,0.495833332596844,0.17361112072783,0.869444471210474,0.0384845100343227,0.0946841165423393,0.0189368221908808
0,0.488888921804431,0.172222228844576,0.854166660494678,0.0470366254448891,0.0464257597923279,-0.0189368221908808
0,0.468055592179478,0.150000007336368,0.852777768611424,0.127365410327911,-0.0189368221908808,-0.0729983970522881
0,0.469444484062732,0.161111118090472,0.870833363093728,0.0873537287116051,-0.0995710343122482,-0.0717766657471657
0,0.483333354271415,0.17361112072783,0.870833363093728,-0.0284052342176437,0.0167987942695618,-0.0626136884093285
0,0.488888921804431,0.186111123365188,0.883333390043015,-0.0882700309157372,0.021685715764761,-0.0232128798961639
0,0.486111138037923,0.190277786858986,0.884722281926269,-0.0754418596625328,-0.0595593601465225,-0.00244346098043024
0,0.486111138037923,0.176388892338373,0.880555606276507,-0.0455094613134861,-0.108123145997524,-0.0482583530247212
0,0.47500000297189,0.156944454596674,0.865277795560711,-0.0293215326964855,-0.0797179117798805,-0.121867619454861
0,0.484722246154669,0.163888889701015,0.87500003874349,-0.00671951752156019,0.0198531206697226,-0.0864374339580536
0,0.52083333787156,0.204166669223633,0.861111119910949,-0.0482583530247212,-0.0565050356090069,0.0293215326964855
0,0.506944467662877,0.206944452990142,0.854166660494678,-0.0956004112958908,-0.0256563406437635,0.00885754637420177
0,0.487500029921177,0.187500003092477,0.870833363093728,-0.0708603709936142,-0.04764748737216,-0.0207694191485643
0,0.483333354271415,0.181944447715425,0.87500003874349,0.0109955742955208,-0.0800233483314514,0.00183259579353034
0,0.493055597454194,0.177777784221628,0.872222254976982,-0.00610865233466029,-0.0653625801205635,0.0164933614432812
0,0.486111138037923,0.16527778158427,0.844444514559616,0.011606439948082,-0.230601623654366,-0.0280998013913631
0,0.493055597454194,0.170833336961321,0.833333379493583,0.104763388633728,-0.205250725150108,0.0045814891345799
0,0.495833332596844,0.176388892338373,0.841666730793107,0.0668897479772568,-0.178678080439568,-0.0164933614432812
0,0.49166670557094,0.176388892338373,0.843055622676362,0.0852157026529312,-0.222965821623802,-0.0363464802503586
0,0.500000008246606,0.17361112072783,0.85138887672817,0.131336033344269,-0.257785141468048,-0.0610865242779255
0,0.505555575779623,0.181944447715425,0.841666730793107,0.164628177881241,-0.251065611839294,-0.0629191175103188
0,0.505555575779623,0.177777784221628,0.843055622676362,0.214108273386955,-0.341168224811554,-0.109344877302647
0,0.500000008246606,0.175000000455119,0.863888903677457,0.244956970214844,-0.32192599773407,-0.164322748780251
0,0.500000008246606,0.175000000455119,0.863888903677457,0.109955742955208,-0.377820163965225,-0.222965821623802
0,0.508333359546131,0.177777784221628,0.880555606276507,-0.109650313854218,-0.305432617664337,-0.333532422780991
0,0.519444445988306,0.170833336961321,0.861111119910949,-0.155770644545555,-0.201585531234741,-0.293826192617416
0,0.543055559379768,0.190277786858986,0.826388920077312,-0.0671951770782471,-0.134695783257484,-0.210137650370598
0,0.551388910679293,0.205555561106887,0.805555590452358,-0.00916297826915979,-0.13225232064724,-0.16371189057827
0,0.551388910679293,0.212499996211229,0.795833347269579,-0.017409659922123,-0.103236228227615,-0.125532805919647
0,0.555555586329055,0.2194444556275,0.797222239152834,-0.0381790772080422,-0.0726929605007172,-0.0897971913218498
0,0.558333370095563,0.222222239394008,0.791666671619817,-0.0668897479772568,-0.0146607663482428,-0.0470366254448891
0,0.54722223502953,0.212499996211229,0.791666671619817,-0.0180205255746841,0.0491746515035629,-0.0201585534960032
0,0.531944472937593,0.202777789496344,0.795833347269579,-0.01191187184304,0.0470366254448891,-0.0482583530247212
0,0.536111148587356,0.20972223675665,0.805555590452358,-0.0259617734700441,0.104152522981167,-0.0946841165423393
0,0.54027777561326,0.2194444556275,0.813888941751883,-0.0485637858510017,0.154854342341423,-0.0910189226269722
0,0.533333364820847,0.218055563744246,0.827777811960566,-0.0613919571042061,0.0571159012615681,-0.0638354197144508
0,0.543055559379768,0.2194444556275,0.825000028194058,-0.0268780700862408,0.111482910811901,-0.0574213340878487
0,0.541666667496514,0.2194444556275,0.825000028194058,-0.0253509078174829,0.131336033344269,-0.0268780700862408
0,0.541666667496514,0.2194444556275,0.825000028194058,-0.0335975885391235,0.159741267561913,-0.00519235478714108
0,0.545833343146276,0.2194444556275,0.818055568777787,-0.0427605658769607,0.220216915011406,0.0320704244077206
0,0.54722223502953,0.218055563744246,0.816666676894533,-0.0201585534960032,0.276721954345703,0.0470366254448891
0,0.530555581054339,0.211111128639904,0.826388920077312,0.0152716310694814,0.194560587406159,0.0357356183230877
0,0.52083333787156,0.20972223675665,0.834722271376837,0.0284052342176437,0.0620028227567673,0.00427605677396059
0,0.525000013521323,0.212499996211229,0.833333379493583,-0.0167987942695618,0.0827722400426865,0.0167987942695618
0,0.531944472937593,0.20972223675665,0.831944487610329,-0.0604756586253643,0.16890424489975,0.0213802829384804
0,0.529166689171085,0.206944452990142,0.834722271376837,-0.0897971913218498,0.110261179506779,0.0198531206697226
0,0.515277818962402,0.200000005729836,0.847222298326124,-0.113315500319004,0.0574213340878487,0.0253509078174829
0,0.509722251429385,0.194444450352783,0.862500011794203,-0.146607652306557,0.0717766657471657,-0.011606439948082
0,0.509722251429385,0.194444450352783,0.862500011794203,-0.177761793136597,0.0525344125926495,-0.0027488935738802
0,0.518055554105052,0.188888894975731,0.85138887672817,-0.17989981174469,0.0189368221908808,0.0201585534960032
0,0.518055554105052,0.188888894975731,0.85138887672817,-0.114842668175697,0.229990765452385,0.0507018156349659
0,0.519444445988306,0.190277786858986,0.848611190209378,-0.123089343309402,0.255952537059784,0.0467311926186085
0,0.512500035195893,0.193055558469529,0.849999984844916,-0.116675265133381,0.118813291192055,0.0577267669141293
0,0.500000008246606,0.184722231481934,0.858333336144441,-0.0858265683054924,0.0959058403968811,0.0412334054708481
0,0.502777792013115,0.181944447715425,0.825000028194058,-0.0335975885391235,0.121867619454861,0.0571159012615681
0,0.505555575779623,0.17361112072783,0.825000028194058,0.0167987942695618,0.0867428630590439,0.087659165263176
0,0.500000008246606,0.175000000455119,0.844444514559616,0.0381790772080422,0.0913243517279625,0.107512280344963
0,0.497222224480098,0.181944447715425,0.856944444261187,-0.0229074470698834,0.0736092627048492,0.0971275717020035
0,0.49166670557094,0.180555567988136,0.87500003874349,-0.0488692186772823,0.0696386396884918,0.0980438739061356
0,0.49166670557094,0.17361112072783,0.893055633225794,-0.0491746515035629,-0.015577063895762,0.125532805919647
0,0.495833332596844,0.166666673467524,0.884722281926269,-0.0235183127224445,-0.0445931628346443,0.141415297985077
0,0.49166670557094,0.154166670830166,0.884722281926269,-0.0131336031481624,-0.0488692186772823,0.12675453722477
0,0.487500029921177,0.15555556271342,0.87500003874349,-0.0284052342176437,-0.0757472887635231,0.11606439948082
0,0.495833332596844,0.156944454596674,0.866666687443965,-0.0675006061792374,-0.0998764708638191,0.138360977172852
0,0.502777792013115,0.161111118090472,0.863888903677457,-0.0992656052112579,-0.0690277740359306,0.13744467496872
0,0.508333359546131,0.150000007336368,0.858333336144441,-0.10567969083786,-0.0134390350431204,0.115453533828259
0,0.512500035195893,0.152777778946911,0.852777768611424,-0.0543670058250427,0.0128281703218818,0.103236228227615
0,0.509722251429385,0.154166670830166,0.848611190209378,-0.037568211555481,-0.0250454749912024,0.0946841165423393
0,0.502777792013115,0.138888896582264,0.854166660494678,-0.04764748737216,-0.00152716308366507,0.0485637858510017
0,0.497222224480098,0.133333341205212,0.865277795560711,-0.0415388382971287,-0.00946841109544039,0.0140499006956816
0,0.500000008246606,0.134722233088466,0.859722228027695,0.0109955742955208,0.017409659922123,0.0488692186772823
0,0.508333359546131,0.144444451959316,0.852777768611424,0.0167987942695618,0.01191187184304,0.0806342139840126
0,0.512500035195893,0.143055560076062,0.847222298326124,-0.00305432616733015,0.0253509078174829,0.0781907513737679
0,0.502777792013115,0.151388899219622,0.848611190209378,-0.0198531206697226,0.0314595587551594,0.0589484944939613
0,0.500000008246606,0.144444451959316,0.862500011794203,-0.0106901414692402,-0.0290160998702049,0.0503963828086853
0,0.500000008246606,0.144444451959316,0.862500011794203,-0.000610865245107561,-0.0149661982432008,0.0241291765123606
0,0.50138890012986,0.144444451959316,0.870833363093728,0.00397062394768,0.0021380283869803,0.0152716310694814
0,0.502777792013115,0.144444451959316,0.861111119910949,-0.0143553335219622,0.029626963660121,0.0204639863222837
0,0.504166683896369,0.14583334384257,0.856944444261187,-0.027488935738802,0.0381790772080422,0.0229074470698834
0,0.502777792013115,0.143055560076062,0.858333336144441,-0.0387899428606033,0.00427605677396059,0.0326812900602817
0,0.498611116363352,0.13750000469901,0.861111119910949,-0.0045814891345799,0.00916297826915979,0.0149661982432008
0,0.497222224480098,0.136111112815755,0.862500011794203,0.0378736443817616,-0.0259617734700441,0.0293215326964855
0,0.500000008246606,0.140277788465518,0.861111119910949,0.0522289797663689,-0.0500909499824047,0.037568211555481
0,0.498611116363352,0.140277788465518,0.861111119910949,0.0146607663482428,-0.0277943685650826,0.0244346093386412
0,0.502777792013115,0.141666668192807,0.869444471210474,-0.0198531206697226,0.015577063895762,0.0027488935738802
0,0.505555575779623,0.134722233088466,0.861111119910949,-0.00427605677396059,0.00641408516094089,-0.013744467869401
0,0.513888927079148,0.134722233088466,0.863888903677457,0.021685715764761,-0.0167987942695618,0.0100792767480016
0,0.506944467662877,0.14722222356986,0.861111119910949,0.0351247526705265,0.01588249579072,0.0412334054708481
0,0.500000008246606,0.151388899219622,0.876388930626744,-0.0027488935738802,0.00488692196086049,0.0510072484612465
0,0.502777792013115,0.140277788465518,0.87500003874349,-0.0372627787292004,-0.0192422550171614,0.0305432621389627
0,0.504166683896369,0.140277788465518,0.872222254976982,-0.0424551330506802,-0.0109955742955208,0.0183259565383196
0,0.505555575779623,0.133333341205212,0.862500011794203,0.0125227374956012,0.0106901414692402,0.0106901414692402
0,0.505555575779623,0.13750000469901,0.865277795560711,0.0311541277915239,-0.0418442711234093,0.0320704244077206
0,0.508333359546131,0.144444451959316,0.858333336144441,0.00610865233466029,-0.0284052342176437,0.0433714315295219
0,0.508333359546131,0.143055560076062,0.861111119910949,-0.0290160998702049,-0.00183259579353034,0.0433714315295219
0,0.511111143312639,0.138888896582264,0.861111119910949,-0.0430659987032413,-0.0253509078174829,0.0381790772080422
0,0.516666662221798,0.131944449321958,0.852777768611424,-0.00855211354792118,0.00488692196086049,0.0494800843298435
0,0.52083333787156,0.133333341205212,0.858333336144441,0.0100792767480016,-0.0201585534960032,0.0775798857212067
0,0.526388905404577,0.144444451959316,0.85138887672817,-0.0568104684352875,-0.00183259579353034,0.124311074614525
0,0.522222229754814,0.14583334384257,0.849999984844916,-0.078801617026329,-0.0180205255746841,0.160962998867035
0,0.515277818962402,0.134722233088466,0.866666687443965,-0.0323758572340012,-0.0244346093386412,0.173791155219078
0,0.515277818962402,0.12916666555545,0.884722281926269,-0.0244346093386412,-0.00916297826915979,0.12156218290329
0,0.519444445988306,0.126388893944906,0.87500003874349,-0.037568211555481,-0.0842994004487991,0.11117747426033
0,0.534722256704101,0.123611110178398,0.862500011794203,-0.0021380283869803,-0.0977384373545647,0.12156218290329
0,0.538888932353864,0.123611110178398,0.866666687443965,0.0390953756868839,-0.121256753802299,0.17440202832222
0,0.523611121638068,0.113888891307548,0.866666687443965,0.00763581553474069,-0.149661988019943,0.182037845253944
0,0.50138890012986,0.0916666697993398,0.859722228027695,-0.0167987942695618,-0.150883719325066,0.104763388633728
0,0.479166678621653,0.0777777813567098,0.84583340644287,-0.0427605658769607,-0.159435823559761,0.0229074470698834
0,0.459722240879953,0.0750000036681839,0.82222224442755,-0.0513126812875271,-0.23243422806263,-0.0433714315295219
0,0.458333348996699,0.0847222225390337,0.80277780668585,-0.00122173049021512,-0.16371189057827,-0.114537231624126
0,0.470833327322128,0.104166672436698,0.781944477060896,0.0140499006956816,-0.0473420582711697,-0.146913096308708
0,0.490277813687686,0.111111119697004,0.781944477060896,-0.00610865233466029,0.0473420582711697,-0.163101017475128
0,0.486111138037923,0.118055554801345,0.784722260827405,0.0113010071218014,0.190895393490791,-0.19578230381012
0,0.498611116363352,0.118055554801345,0.800000022919342,-0.00916297826915979,0.123089343309402,-0.215024560689926
0,0.498611116363352,0.118055554801345,0.800000022919342,0.00794124789535999,0.0913243517279625,-0.195476874709129
0,0.541666667496514,0.120833338567854,0.859722228027695,0.02382374368608,0.193338856101036,-0.191811680793762
0,0.558333370095563,0.12777778582816,0.880555606276507,0.0592539273202419,0.143858760595322,-0.152410879731178
0,0.558333370095563,0.12777778582816,0.880555606276507,0.0253509078174829,0.135917514562607,-0.113926365971565
0,0.588888894279438,0.131944449321958,0.915277806110144,-0.0598647929728031,0.171653136610985,-0.0733038261532784
0,0.575000024070755,0.12916666555545,0.947222222177272,-0.150272846221924,0.140193566679955,-0.0351247526705265
0,0.575000024070755,0.12916666555545,0.947222222177272,-0.0842994004487991,-0.123089343309402,0.00122173049021512
0,0.558333370095563,0.0958333393711199,0.912500022343635,0.0653625801205635,-0.282830595970154,0.0488692186772823
0,0.558333370095563,0.0958333393711199,0.912500022343635,0.0852157026529312,-0.295353353023529,0.0329867228865623
0,0.533333364820847,0.126388893944906,0.888888957576031,-0.0128281703218818,-0.34941491484642,-0.0290160998702049
0,0.515277818962402,0.140277788465518,0.880555606276507,-0.221438646316528,-0.683863639831543,-0.138666406273842
0,0.523611121638068,0.130555557438704,0.843055622676362,-0.13744467496872,-0.252592772245407,-0.153632611036301
0,0.523611121638068,0.130555557438704,0.843055622676362,-0.211664810776711,-0.0552833043038845,-0.140499010682106
0,0.522222229754814,0.131944449321958,0.812500049868629,-0.141109868884087,0.0977384373545647,-0.0207694191485643
0,0.50138890012986,0.126388893944906,0.825000028194058,-0.0705549344420433,-0.0864374339580536,-0.00946841109544039
0,0.50138890012986,0.126388893944906,0.825000028194058,-0.00763581553474069,0.0250454749912024,0.0345138870179653
0,0.506944467662877,0.101388894748172,0.826388920077312,0.0250454749912024,0.0913243517279625,0.037568211555481
0,0.50138890012986,0.101388894748172,0.825000028194058,0.0894917547702789,0.245262399315834,0.222965821623802
0,0.513888927079148,0.140277788465518,0.843055622676362,0.0229074470698834,0.248011291027069,0.11636982858181
0,0.544444451263022,0.101388894748172,0.827777811960566,0.0549778714776039,-0.096211276948452,0.0503963828086853
0,0.562499997121468,0.108333335930496,0.801388914802596,0.0192422550171614,-0.127365410327911,0.0109955742955208
0,0.558333370095563,0.118055554801345,0.804166698569104,0.00397062394768,0.0335975885391235,0.000916297896765172
0,0.551388910679293,0.125000002061652,0.815277785011279,0.0415388382971287,0.0500909499824047,0.0143553335219622
0,0.538888932353864,0.118055554801345,0.833333379493583,0.021685715764761,0.064446285367012,0.0302378293126821
0,0.525000013521323,0.122222230451108,0.819444460661041,0.0106901414692402,0.058643065392971,-0.00702495034784079
0,0.541666667496514,0.120833338567854,0.836111163260091,-0.00152716308366507,0.0943786799907684,-0.0033597587607801
0,0.556944478212309,0.115277783190802,0.841666730793107,0.0226020142436027,0.0305432621389627,0.0033597587607801
0,0.551388910679293,0.10972222781375,0.844444514559616,0.0742201283574104,0.00733038317412138,0.0204639863222837
0,0.531944472937593,0.108333335930496,0.85138887672817,0.0928515195846558,-0.0513126812875271,0.0268780700862408
0,0.527777797287831,0.113888891307548,0.85138887672817,0.0943786799907684,-0.0678060427308083,0.021685715764761
0,0.531944472937593,0.115277783190802,0.858333336144441,0.0830776765942574,-0.0620028227567673,0.0222965814173222
0,0.531944472937593,0.131944449321958,0.861111119910949,0.107206851243973,-0.108428582549095,0.037568211555481
0,0.529166689171085,0.134722233088466,0.869444471210474,0.137750118970871,-0.124616511166096,0.0754418596625328
0,0.531944472937593,0.118055554801345,0.843055622676362,0.140499010682106,-0.0894917547702789,0.0952949747443199
0,0.53750004047061,0.125000002061652,0.812500049868629,0.113315500319004,-0.144164204597473,0.0473420582711697
0,0.536111148587356,0.120833338567854,0.806944482335612,0.0934623852372169,-0.0720821022987366,0.0262672062963247
0,0.53750004047061,0.12916666555545,0.831944487610329,0.0516181141138077,0.0161879286170006,0.019547687843442
0,0.545833343146276,0.140277788465518,0.830555595727074,0.0290160998702049,0.058643065392971,0.0678060427308083
0,0.545833343146276,0.140277788465518,0.830555595727074,0.0681114718317986,-0.0742201283574104,0.070249505341053
0,0.529166689171085,0.141666668192807,0.818055568777787,0.0372627787292004,-0.0485637858510017,0.0766635909676552
0,0.548611126912784,0.130555557438704,0.830555595727074,-0.01588249579072,-0.260839462280273,0.117591559886932
0,0.54027777561326,0.118055554801345,0.808333374218867,-0.0717766657471657,-0.0580321997404099,0.0366519130766392
0,0.559722261978817,0.122222230451108,0.812500049868629,-0.0940732508897781,0.0280998013913631,0.00549778714776039
0,0.556944478212309,0.106944444047242,0.818055568777787,-0.0986547395586967,0.114537231624126,-0.0335975885391235
0,0.558333370095563,0.112499999424294,0.834722271376837,0.01588249579072,0.0394008085131645,-0.0027488935738802
0,0.534722256704101,0.118055554801345,0.844444514559616,0.104457959532738,-0.027488935738802,0.0113010071218014
0,0.541666667496514,0.116666675074056,0.834722271376837,0.128281697630882,-0.04764748737216,-0.00641408516094089
0,0.541666667496514,0.116666675074056,0.834722271376837,0.0977384373545647,-0.0384845100343227,-0.0103847095742822
0,0.527777797287831,0.118055554801345,0.82916670384382,0.0510072484612465,0.0436768643558025,0.00519235478714108
0,0.545833343146276,0.126388893944906,0.827777811960566,0.0143553335219622,0.0198531206697226,0.0100792767480016
0,0.562499997121468,0.125000002061652,0.844444514559616,0.00977384392172098,0.00549778714776039,0.01588249579072
0,0.562499997121468,0.125000002061652,0.844444514559616,0.0290160998702049,-0.0675006061792374,0.0415388382971287
0,0.559722261978817,0.125000002061652,0.859722228027695,0.0491746515035629,-0.155465200543404,0.0733038261532784
0,0.555555586329055,0.123611110178398,0.844444514559616,0.0357356183230877,-0.0452040284872055,0.0552833043038845
0,0.572222240304247,0.125000002061652,0.815277785011279,-0.000916297896765172,-0.00549778714776039,0.0513126812875271
0,0.570833348420992,0.122222230451108,0.808333374218867,0.00946841109544039,-0.0235183127224445,0.0485637858510017
0,0.550000018796039,0.122222230451108,0.815277785011279,0.00397062394768,0.0143553335219622,0.0320704244077206
0,0.558333370095563,0.122222230451108,0.818055568777787,-0.00794124789535999,0.00855211354792118,0.0381790772080422
0,0.555555586329055,0.120833338567854,0.82222224442755,-0.00641408516094089,0.0152716310694814,0.0424551330506802
0,0.555555586329055,0.120833338567854,0.82222224442755,-0.0134390350431204,0.0705549344420433,0.0314595587551594
0,0.555555586329055,0.120833338567854,0.82222224442755,0.0284052342176437,0.00397062394768,0.0430659987032413
0,0.554166694445801,0.116666675074056,0.827777811960566,0.0803287774324417,-0.00366519158706069,0.0507018156349659
0,0.548611126912784,0.120833338567854,0.836111163260091,0.10598511993885,-0.064446285367012,0.0540615729987621
0,0.545833343146276,0.12916666555545,0.827777811960566,0.0519235469400883,-0.00794124789535999,0.029626963660121
0,0.545833343146276,0.12916666555545,0.827777811960566,0.0164933614432812,0.0113010071218014,0.017409659922123
0,0.561111153862072,0.134722233088466,0.82916670384382,0.0207694191485643,0.00702495034784079,0.019547687843442
0,0.559722261978817,0.12777778582816,0.825000028194058,-0.0106901414692402,-0.0226020142436027,0.0210748501121998
0,0.559722261978817,0.12916666555545,0.834722271376837,-0.00580321997404099,-0.0323758572340012,0.0412334054708481
0,0.569444456537738,0.116666675074056,0.834722271376837,-0.000610865245107561,-0.00427605677396059,0.0540615729987621
0,0.568055564654484,0.106944444047242,0.80277780668585,0.00580321997404099,0.141415297985077,0.0290160998702049
0,0.569444456537738,0.112499999424294,0.811111157985375,0.015577063895762,0.165849909186363,0.0140499006956816
0,0.555555586329055,0.112499999424294,0.82222224442755,0.058643065392971,-0.0433714315295219,0.0250454749912024
0,0.551388910679293,0.118055554801345,0.841666730793107,0.0516181141138077,-0.0934623852372169,0.0146607663482428
0,0.558333370095563,0.1194444466846,0.837500055143345,0.017409659922123,-0.161573857069016,0.00885754637420177
0,0.573611132187501,0.1194444466846,0.844444514559616,-0.00427605677396059,-0.325896620750427,0.0684169083833694
0,0.569444456537738,0.113888891307548,0.840277838909853,-0.0204639863222837,-0.449291378259659,0.135001212358475
0,0.568055564654484,0.112499999424294,0.820833352544296,-0.0549778714776039,-0.340557366609573,0.0986547395586967
0,0.573611132187501,0.111111119697004,0.801388914802596,-0.0949895456433296,0.0305432621389627,0.000610865245107561
0,0.584722267253534,0.123611110178398,0.773611125761372,-0.145385921001434,0.251676470041275,-0.0650571510195732
0,0.584722267253534,0.123611110178398,0.773611125761372,-0.196087747812271,0.263282924890518,-0.154243469238281
0,0.559722261978817,0.113888891307548,0.78333336894415,-0.235183119773865,0.276111096143722,-0.176234617829323
0,0.541666667496514,0.113888891307548,0.816666676894533,-0.272445887327194,0.149356558918953,-0.186924770474434
0,0.531944472937593,0.136111112815755,0.809722266102121,-0.320704251527786,0.140193566679955,-0.198836639523506
0,0.529166689171085,0.115277783190802,0.827777811960566,-0.366824567317963,0.207388743758202,-0.19578230381012
0,0.56666667277123,0.0763888894734557,0.788888936477167,-0.611476123332977,0.437684953212738,-0.0821613743901253
0,0.572222240304247,0.0916666697993398,0.775000017644626,-0.977384388446808,0.165239050984383,-0.171958565711975
0,0.579166699720517,0.0819444448505077,0.837500055143345,-0.930042326450348,-0.279470860958099,-0.250454753637314
0,0.666666693870094,0.0500000014324589,0.718055596302781,-0.810007333755493,-0.552222192287445,-0.274889349937439
0,0.666666693870094,0.0500000014324589,0.718055596302781,-1.0534371137619,-0.219300627708435,-0.379652738571167
0,0.666666693870094,0.0500000014324589,0.718055596302781,-1.10963666439056,-0.333532422780991,-0.498771458864212
0,0.561111153862072,0.0513888902767219,0.725000007095193,-1.27884638309479,-0.843299448490143,-0.715934038162231
0,0.543055559379768,-0.0375000018340919,0.663888910103586,-1.33810031414032,-1.38666415214539,-0.409890592098236
0,0.550000018796039,0.105555564319952,0.587500002396184,-1.6869044303894,-2.06838965415955,-0.40775254368782
0,0.522222229754814,0.0777777813567098,0.572222240304247,-2.00760865211487,-2.12122964859009,-0.197614908218384
0,0.49444444071359,0.0444444460554069,0.573611132187501,-2.16551733016968,-2.08610486984253,-0.081855945289135
0,0.52083333787156,0.03194444645704,0.54722223502953,-2.32617473602295,-2.45415115356445,-0.0149661982432008
0,0.534722256704101,-0.0152777788063885,0.54722223502953,-2.70979833602905,-2.64779543876648,0.178678080439568
0,0.600000029345471,-0.0444444460554069,0.552777802562547,-2.6178629398346,-2.84541034698486,0.349720358848572
0,0.436111127488491,-0.125000002061652,1.07638897282447,-0.928820610046387,-1.96454262733459,1.16156029701233
0,0.659722234453824,-0.0541666679652478,0.887500065692777,-1.06351637840271,-3.75193428993225,0.587346911430359
0,0.883333390043015,-0.170833336961321,0.404166687109433,-1.59069311618805,-4.48375082015991,0.23273965716362
0,0.877777822509998,-0.206944452990142,0.436111127488491,-1.81579697132111,-2.84877014160156,0.390953749418259
0,0.82222224442755,-0.259722222994153,0.565277780887976,-1.45599734783173,-3.04149794578552,0.665537655353546
0,0.908333346693873,-0.288888903918631,0.693055591028065,-0.790154218673706,-2.71529603004456,0.677449584007263
0,1.06805562152495,-0.336111130701556,0.545833343146276,-0.0293215326964855,-3.95351982116699,0.523206055164337
0,1.10138892947533,-0.380555573717971,0.313888909193348,0.135001212358475,-3.84203696250915,0.401949346065521
0,1.15277783190802,-0.397222227693163,0.204166669223633,0.361937671899795,-3.49323296546936,0.0629191175103188
0,1.1236111996074,-0.504166683896369,0.03194444645704,0.0742201283574104,-3.53232836723328,0.0763581544160843
0,0.933333400592447,-0.452777781463682,-0.177777784221628,-0.352469235658646,-2.41627740859985,0.324674874544144
0,0.879166714393253,-0.363888895430851,-0.252777787889811,-0.812145352363586,-1.38238799571991,0.463341295719147
0,0.872222254976982,-0.361111135976272,-0.262500006760661,-1.22967171669006,-0.384234249591827,0.693942904472351
0,0.925000049292922,-0.400000011459671,-0.140277788465518,-0.697608113288879,0.0394008085131645,0.964861631393433
0,1.00277780025972,-0.322222236180943,-0.126388893944906,-0.823140919208527,-0.733649134635925,1.39063477516174
0,1.07083340529146,0.0666666706026059,-0.0722222259796579,-1.1701123714447,-1.90651047229767,-0.235488548874855
0,1.29861118790655,-0.308333341660331,0.00694444498106275,-0.0500909499824047,-0.344833433628082,-0.996321201324463
0,1.20000005869094,-0.336111130701556,-0.0944444474878658,0.675922393798828,0.699746131896973,-2.25714707374573
0,1.19583338304118,-0.281944444502361,-0.0777777813567098,1.01037108898163,0.826500654220581,-2.63130211830139
0,1.11250006454136,-0.243055569018962,-0.00972222266958873,0.578183948993683,0.591317534446716,-1.76112449169159
0,1.00416669214298,-0.243055569018962,0.027777779924251,0.517708301544189,0.416915535926819,-1.27701377868652
0,0.976388951725609,-0.275000009398019,0.0152777788063885,0.557719945907593,0.668897449970245,-1.3078625202179
0,0.894444525109048,-0.377777789951463,-0.161111118090472,0.314901024103165,0.971581161022186,-1.37658488750458
0,0.904166671044111,-0.413888905980283,-0.263888898643915,-1.17469382286072,0.911716401576996,-1.29747772216797
0,0.916666697993398,-0.433333343721983,-0.177777784221628,-1.45538640022278,1.21317839622498,-0.953560650348663
0,0.934722292475701,-0.322222236180943,-0.0819444448505077,-1.07665002346039,1.03052961826325,-0.664010524749756
0,0.979166735492117,-0.250000004123303,-0.101388894748172,-0.718988418579102,1.01189827919006,-0.91996306180954
0,0.979166735492117,-0.29166668768514,-0.14722222356986,-0.937983572483063,1.38819122314453,-1.13376593589783
0,0.994444448960196,-0.313888909193348,-0.262500006760661,-1.47340703010559,1.33657312393188,-1.06626534461975
0,0.961111141009813,-0.295833339022973,-0.244444460902216,-2.13772296905518,1.10872042179108,-0.398284137248993
0,1.00000001649321,-0.287500012035377,-0.181944447715425,-2.55433297157288,1.166752576828,0.0638354197144508
0,1.02361117850853,-0.294444447139719,-0.108333335930496,-2.38023638725281,1.52960658073425,0.23273965716362
0,1.03472221632685,-0.284722228268869,-0.055555559848502,-2.09282422065735,1.63650798797607,0.247094988822937
0,1.04166667574312,-0.265277790527169,-0.0152777788063885,-1.84634017944336,1.59160935878754,0.090408056974411
0,1.04166667574312,-0.265277790527169,-0.0152777788063885,-2.0234911441803,1.01770150661469,0.125532805919647
0,1.04166667574312,-0.265277790527169,-0.0152777788063885,-1.94010806083679,1.20309913158417,0.591012120246887
0,1.09166668629255,-0.0486111125881959,0.0486111125881959,-2.02410197257996,0.2165517359972,0.720820963382721
0,1.09166668629255,-0.0486111125881959,0.0486111125881959,-2.70552206039429,-0.123089343309402,0.794124841690063
0,1.07083340529146,-0.247222220356795,0.00833333382532574,-3.20337724685669,-0.195476874709129,1.16033852100372
0,1.07083340529146,-0.247222220356795,0.00833333382532574,-2.71926665306091,0.000305432622553781,1.04060900211334
0,1.0333333244436,-0.159722226207217,0.0138888899621255,-2.14749670028686,0.353690981864929,0.631329238414764
0,1.0333333244436,-0.159722226207217,0.0138888899621255,-1.71714222431183,0.273973047733307,-0.10048733651638
0,1.12083341584089,-0.0944444474878658,0.0416666683668809,-1.18752205371857,0.0045814891345799,-0.435546934604645
0,1.09861114570882,-0.115277783190802,0.133333341205212,-0.416610091924667,0.0247400421649218,-0.199142068624496
0,1.01805561097552,-0.134722233088466,0.163888889701015,-0.0965167060494423,0.0213802829384804,0.172569438815117
0,0.990277773310434,-0.125000002061652,0.125000002061652,-0.667981147766113,0.0577267669141293,0.250760197639465
0,1.02361117850853,-0.111111119697004,0.138888896582264,-1.03266775608063,-0.399505883455276,0.0690277740359306
0,1.05833337834217,-0.140277788465518,0.0986111170596459,-1.08947813510895,-0.662788808345795,0.0534507073462009
0,1.02083339474202,-0.176388892338373,0.0986111170596459,-1.03663837909699,-0.757472932338715,0.178678080439568
0,0.981944519258625,-0.17361112072783,0.108333335930496,-1.01922869682312,-0.673478960990906,0.387899428606033
0,1.08194444310977,-0.186111123365188,0.0847222225390337,-0.936150968074799,-0.411723166704178,0.443793594837189
0,1.12638888612619,-0.172222228844576,0.0472222237439329,-0.810007333755493,-0.163406446576118,0.229685336351395
0,1.10416671324184,-0.197222234119292,0.0361111129898289,-0.751975119113922,0.117286130785942,0.131641462445259
0,1.06388894587519,-0.200000005729836,0.0652777787193518,-0.59162300825119,0.193644285202026,0.133474051952362
0,1.03194452980806,-0.198611113846581,0.0680555564078778,-0.252898216247559,0.0647517144680023,0.143858760595322
0,1.03888889197661,-0.229166674498349,0.0194444453391775,-0.299934834241867,-0.112093769013882,-0.0757472887635231
0,1.07222229717471,-0.286111120152123,-0.0347222241455659,-0.617584764957428,0.0757472887635231,0.218384325504303
0,1.02916674604155,-0.300000014672736,-0.0208333341834404,-0.750447928905487,-0.081855945289135,0.404087364673615
0,0.993055557076942,-0.281944444502361,-0.00833333382532574,-0.711963415145874,-0.256563395261765,0.434936046600342
0,1.01527782720901,-0.269444466176932,-0.0388888906783549,-0.64537912607193,-0.608727216720581,0.41263946890831
0,1.02500007039179,-0.283333336385615,-0.0597222233422998,-0.625220596790314,-0.566882967948914,0.438906669616699
0,1.00555558402623,-0.302777798439244,-0.0958333393711199,-0.810007333755493,-0.40164390206337,0.351858377456665
0,1.00555558402623,-0.302777798439244,-0.0958333393711199,-1.20370995998383,-0.185703039169311,0.248927593231201
0,1.00555558402623,-0.359722244093018,-0.154166670830166,-1.25868785381317,-0.029626963660121,0.196087747812271
0,1.00694447590948,-0.325000019947452,-0.106944444047242,-1.2000447511673,-0.135917514562607,0.181426972150803
0,1.00694447590948,-0.325000019947452,-0.106944444047242,-1.05282628536224,-0.311846703290939,0.122173048555851
0,0.963888924776322,-0.302777798439244,-0.052777782159976,-0.675311505794525,-0.56169056892395,0.194866016507149
0,0.94305554652751,-0.298611122789481,-0.0750000036681839,-0.341779112815857,-0.780380368232727,0.181732416152954
0,0.94305554652751,-0.298611122789481,-0.0750000036681839,-0.246178686618805,-0.394924372434616,-0.00733038317412138
0,0.94305554652751,-0.298611122789481,-0.0750000036681839,-0.439822971820831,-0.0229074470698834,-0.132863193750381
0,0.958333357243305,-0.308333341660331,-0.108333335930496,-0.60750550031662,0.0305432621389627,-0.332310706377029
0,0.956944465360051,-0.281944444502361,-0.0944444474878658,-0.224492982029915,-0.356134444475174,-0.396451532840729
0,0.990277773310434,-0.327777779402031,-0.163888889701015,0.645684540271759,-1.17316675186157,-0.0152716310694814
0,0.990277773310434,-0.327777779402031,-0.163888889701015,0.880562245845795,-1.01831233501434,0.204028993844986
0,1.0513889189259,-0.234722242031366,-0.0708333340964038,0.637437880039215,-0.109039448201656,0.0247400421649218
0,1.147222264375,-0.231944458264858,-0.0500000014324589,-0.328645497560501,0.221133217215538,-0.258395999670029
0,1.27500002589123,-0.187500003092477,-0.116666675074056,-1.09069991111755,0.533896207809448,-0.46059238910675
0,1.23333336664132,-0.252777787889811,-0.131944449321958,-1.06748700141907,0.191506251692772,-0.670424580574036
0,0.938888968125464,-0.284722228268869,-0.295833339022973,0.0439822971820831,-0.298102229833603,-0.5555819272995
0,1.07916665934326,-0.176388892338373,-0.166666673467524,-0.353690981864929,-0.123700208961964,-0.747393608093262
0,1.11666674019113,-0.16527778158427,-0.161111118090472,-0.822224617004395,0.193644285202026,-1.39399445056915
0,1.00833336779274,-0.241666677135707,-0.172222228844576,-0.965472519397736,0.096211276948452,-1.55037593841553
0,0.938888968125464,-0.295833339022973,-0.223611131277262,-0.316733628511429,-0.346971452236175,-0.930653214454651
0,0.866666687443965,-0.340277782039389,-0.323611128064198,0.447764217853546,-1.54029667377472,-0.177456349134445
0,0.929166724942685,-0.301388906555989,-0.500000008246606,0.504269242286682,-2.68780708312988,0.500298619270325
0,1.05555559457566,-0.244444460902216,-0.556944478212309,0.142942473292351,-2.8356363773346,0.497549742460251
0,1.08888890252604,-0.206944452990142,-0.698611158561081,-0.642935693264008,-2.3124303817749,0.0525344125926495
0,0.952777789710289,-0.265277790527169,-0.725000007095193,-1.82984685897827,-1.23058807849884,-0.0314595587551594
0,0.825000028194058,-0.327777779402031,-0.708333353120002,-2.59373378753662,-0.570548117160797,0.16920967400074
0,0.834722271376837,-0.266666682410424,-0.719444488186035,-2.97521924972534,0.159435823559761,0.203723564743996
0,0.894444525109048,-0.202777789496344,-0.622222250853679,-3.19177079200745,0.648433446884155,-0.0815505087375641
0,0.899999995394348,-0.0791666671619817,-0.411111122213775,-3.02317214012146,0.660650789737701,-0.29107728600502
0,0.909722238577127,-0.00972222266958873,-0.154166670830166,-2.19209003448486,0.218995183706284,-0.44409903883934
0,0.926388941176177,0.0361111129898289,-0.113888891307548,-1.24708139896393,0.263893783092499,-1.01617431640625
0,0.926388941176177,-0.0125000003581147,-0.288888903918631,-1.38513696193695,0.776715159416199,-1.63742423057556
0,0.906944454810619,-0.0388888906783549,-0.251388896006557,-1.86985850334168,1.26846170425415,-1.6123788356781
0,0.869444471210474,-0.00277777787846293,-0.13750000469901,-1.92300379276276,1.23852932453155,-1.28159523010254
0,0.858333336144441,0.0138888899621255,-0.120833338567854,-1.67407619953155,0.737008929252625,-1.06412720680237
0,0.911111130460381,-0.00416666691266287,-0.177777784221628,-2.10381984710693,0.483194410800934,-0.479834645986557
0,0.911111130460381,-0.00416666691266287,-0.177777784221628,-2.2513439655304,1.50517201423645,-0.129503428936005
0,0.956944465360051,0.0791666671619817,-0.152777778946911,-1.92147660255432,2.04151153564453,-0.500298619270325
0,0.956944465360051,0.0791666671619817,-0.152777778946911,-1.61421144008636,1.63711881637573,0.230296194553375
0,0.984722303025134,0.140277788465518,-0.151388899219622,-1.71439325809479,1.79227864742279,0.259312301874161
0,0.975000059842355,0.151388899219622,-0.193055558469529,-2.20064210891724,2.30509996414185,0.0213802829384804
0,0.975000059842355,0.151388899219622,-0.193055558469529,-2.32067704200745,2.15818691253662,0.0824668109416962
0,0.938888968125464,0.148611115453114,-0.0569444456537738,-1.87718892097473,1.70034337043762,0.251371055841446
0,0.998611124609959,0.281944444502361,0.0847222225390337,-1.42667579650879,0.481056392192841,0.211970239877701
0,0.880555606276507,0.197222234119292,0.156944454596674,-1.08734011650085,0.160046696662903,0.173791155219078
0,0.880555606276507,0.197222234119292,0.156944454596674,-0.421802461147308,0.268780708312988,0.270918726921081
0,0.740277817810989,0.148611115453114,0.029166668768514,-0.103847093880177,0.208610475063324,-0.0397062413394451
0,0.740277817810989,0.148611115453114,0.029166668768514,-0.586430609226227,0.342389971017838,0.584598064422607
0,0.823611136310804,0.0569444456537738,-0.0625000010308258,-1.32649385929108,0.768163025379181,0.377209275960922
0,1.36666669569057,0.302777798439244,0.0875000002275597,-0.616973876953125,0.081855945289135,-0.219300627708435
0,1.23333336664132,0.275000009398019,0.279166685047782,-0.0720821022987366,-0.341168224811554,-0.324369430541992
0,1.08333333499303,0.25555557165632,0.298611122789481,0.457843512296677,0.40225476026535,-0.146607652306557
0,0.820833352544296,0.101388894748172,0.118055554801345,0.309403240680695,0.356134444475174,-0.317344486713409
0,0.990277773310434,0.140277788465518,-0.0111111115138517,0.0222965814173222,0.201890960335732,-0.603229403495789
0,1.02638896227504,0.190277786858986,0.0361111129898289,-0.114231802523136,-0.070249505341053,-0.531452775001526
0,0.94305554652751,0.193055558469529,0.0930555616825939,0.223576679825783,0.679282128810883,-0.349109500646591
0,0.880555606276507,0.2194444556275,0.14583334384257,0.466090172529221,1.54487824440002,-0.209526777267456
0,0.930555616825939,0.252777787889811,0.0958333393711199,0.196087747812271,1.32466125488281,-0.262672066688538
0,1.02222228662528,0.305555557893823,0.0361111129898289,-0.208610475063324,0.254425376653671,-0.489608496427536
0,1.09166668629255,0.268055574293678,0.12777778582816,0.170736834406853,0.545502662658691,-0.0500909499824047
0,0.991666665193688,0.259722222994153,0.236111109602691,0.506407260894775,-0.297185927629471,0.445626199245453
0,0.809722266102121,-0.0125000003581147,0.126388893944906,0.096211276948452,0.56016343832016,0.754418551921844
0,1.00277780025972,0.305555557893823,0.118055554801345,-0.037568211555481,0.306654363870621,0.249233022332191
0,1.0305556379248,0.233333350148112,0.0986111170596459,-0.226020142436027,-0.186008468270302,0.520457208156586
0,0.958333357243305,0.179166676104882,0.18333333959868,-0.0910189226269722,0.210443079471588,0.56657749414444
0,1.0333333244436,0.261111114877407,0.180555567988136,-0.0213802829384804,0.364991992712021,0.350636661052704
0,1.0333333244436,0.261111114877407,0.180555567988136,0.297796815633774,0.406225383281708,0.11117747426033
0,1.07916665934326,0.330555563168539,0.212499996211229,0.0931569486856461,0.154548913240433,-0.0332921557128429
0,1.0361111082101,0.20972223675665,0.0875000002275597,-0.128281697630882,0.0879645943641663,-0.0427605658769607
0,0.956944465360051,0.208333344873396,0.190277786858986,0.0387899428606033,0.0351247526705265,0.0757472887635231
0,0.972222276075846,0.206944452990142,0.202777789496344,0.105374254286289,-0.0986547395586967,0.0287106670439243
0,0.970833384192592,0.208333344873396,0.190277786858986,0.145385921001434,-0.0345138870179653,0.0103847095742822
0,0.841666730793107,0.125000002061652,0.17361112072783,0.076052725315094,0.0910189226269722,0.33292156457901
0,0.931944508709193,0.18333333959868,0.212499996211229,0.0992656052112579,0.492968261241913,0.226325571537018
0,1.04861113515939,0.230555566381603,0.24583335278547,0.363464832305908,0.537866830825806,0.0952949747443199
0,1.02916674604155,0.2194444556275,0.172222228844576,0.384234249591827,0.323147714138031,0.0943786799907684
0,0.976388951725609,0.197222234119292,0.204166669223633,0.303294599056244,-0.270613312721252,0.30757063627243
0,0.837500055143345,0.0847222225390337,-0.0833333367337618,-0.462730437517166,-2.15299463272095,0.946535706520081
0,0.870833363093728,0.120833338567854,-0.0750000036681839,-1.10627698898315,-0.61850106716156,0.985020220279694
0,1.13472223742571,0.126388893944906,0.238888893369199,-1.05252087116241,-0.500909507274628,0.468839079141617
0,1.04166667574312,0.187500003092477,0.259722222994153,-0.452040284872055,-0.416610091924667,0.259006857872009
0,0.98888888142718,0.113888891307548,0.187500003092477,-0.317955374717712,-0.486248731613159,0.164628177881241
0,0.969444492309338,0.0208333341834404,-0.0138888899621255,-0.614225029945374,-0.450513124465942,0.173791155219078
0,0.983333411141879,0.0902777839940679,-0.00833333382532574,-0.693637490272522,-0.0864374339580536,0.334754168987274
0,1.02500007039179,0.188888894975731,0.202777789496344,0.0027488935738802,-0.0433714315295219,0.365602850914002
0,1.03888889197661,0.206944452990142,0.204166669223633,0.108428582549095,-0.0519235469400883,0.231212496757507
0,1.03888889197661,0.180555567988136,0.131944449321958,-0.108123145997524,-0.198531210422516,0.177150920033455
0,0.998611124609959,0.131944449321958,0.130555557438704,-0.198225766420364,-0.533590793609619,0.24862214922905
0,0.98888888142718,0.111111119697004,0.133333341205212,-0.0995710343122482,-0.810312747955322,0.386677712202072
0,0.919444481759906,0.14583334384257,0.14722222356986,-0.177761793136597,-1.19943392276764,0.718072116374969
0,0.847222298326124,0.12916666555545,0.0777777813567098,-0.161879286170006,-1.27487576007843,1.07451200485229
0,1.00555558402623,0.125000002061652,-0.0750000036681839,-0.337197601795196,-0.341168224811554,1.05893492698669
0,1.1708333291426,-0.0152777788063885,-0.0902777839940679,-0.0781907513737679,0.495411723852158,0.602313160896301
0,1.147222264375,-0.03194444645704,0.0833333367337618,-0.0592539273202419,0.133779495954514,0.238848313689232
0,1.11388895642462,-0.0347222241455659,0.0597222233422998,0.264504641294479,0.138666406273842,0.109344877302647
0,1.11111117265811,-0.0347222241455659,0.0458333348996699,0.208610475063324,-0.104152522981167,0.0757472887635231
0,0.968055600426084,0.0152777788063885,0.0736111117849297,0.614835858345032,0.0167987942695618,0.285274058580399
0,0.825000028194058,0.0972222251763917,0.0513888902767219,0.587652385234833,0.295047909021378,1.03602743148804
0,0.997222232726705,-0.0486111125881959,0.0916666697993398,0.399200439453125,-0.151494577527046,0.839328825473785
0,0.98888888142718,-0.027777779924251,0.0625000010308258,0.231212496757507,-0.333837866783142,0.889725208282471
0,0.938888968125464,-0.00972222266958873,0.0902777839940679,0.182648703455925,-0.717155814170837,1.13254415988922
0,0.808333374218867,-0.00277777787846293,0.140277788465518,0.336892187595367,-1.58336269855499,1.99172616004944
0,0.433333343721983,0.166666673467524,0.0750000036681839,0.2379320114851,-1.72935950756073,3.56562042236328
0,0.768055606852213,0.052777782159976,-0.0708333340964038,0.313373863697052,0.00519235478714108,3.29470181465149
0,1.24722228547387,-0.493055597454194,-0.111111119697004,-0.05283984541893,0.120645888149738,1.70003795623779
0,1.29305562037354,-0.486111138037923,-0.0125000003581147,0.0464257597923279,0.712574303150177,0.382401645183563
0,1.27916670154099,-0.340277782039389,0.0722222259796579,0.151494577527046,0.100181899964809,0.229379892349243
0,1.19444449115793,-0.212499996211229,0.0625000010308258,0.308792382478714,-0.479834645986557,0.0671951770782471
0,1.03472221632685,-0.229166674498349,-0.0222222230277034,0.0595593601465225,-0.602007687091827,0.19058994948864
0,0.837500055143345,-0.205555561106887,-0.03194444645704,-0.0372627787292004,-0.220522359013557,0.2165517359972
0,0.972222276075846,-0.243055569018962,-0.0416666683668809,-0.0143553335219622,0.0201585534960032,0.29046642780304
0,1.06250005399193,-0.311111125426839,-0.0125000003581147,-0.119729585945606,-0.249843880534172,-0.110566608607769
0,0.987499989543926,-0.272222225631511,0.0194444453391775,-0.312763005495071,-0.790765047073364,-0.230296194553375
0,0.986111194908388,-0.319444452414435,-0.0750000036681839,-0.536950528621674,-0.683558225631714,0.228769034147263
0,0.911111130460381,-0.401388903342925,-0.00555555575692586,-0.170431405305862,-0.75594574213028,-0.304516315460205
0,0.954166681593543,-0.344444457689151,-0.03194444645704,0.0723875313997269,-0.71959924697876,-0.589484989643097
0,0.954166681593543,-0.279166685047782,-0.12916666555545,-0.264810085296631,-0.615446746349335,-1.23364233970642
0,1.04583335139288,-0.277777793164528,-0.163888889701015,0.130419731140137,-0.163101017475128,-1.17133414745331
0,1.04583335139288,-0.277777793164528,-0.163888889701015,-0.0778853222727776,0.186619326472282,-0.371100634336472
0,1.13888891307548,-0.272222225631511,-0.193055558469529,0.279776275157929,1.17591559886932,-0.369268029928207
0,1.08888890252604,-0.233333350148112,-0.0972222251763917,0.144164204597473,1.53663146495819,-0.558025419712067
0,1.08888890252604,-0.233333350148112,-0.0972222251763917,0.0531452745199203,1.24494338035583,-0.572991609573364
0,0.990277773310434,-0.236111109602691,-0.0208333341834404,-0.0827722400426865,0.607810914516449,-0.515570282936096
0,0.955555573476797,-0.212499996211229,0.00277777787846293,-0.292604446411133,0.0833831056952477,-0.433714330196381
0,0.99583334084345,-0.176388892338373,0.0361111129898289,-0.176540061831474,-0.463952153921127,-0.264504641294479
0,0.916666697993398,-0.0666666706026059,-0.176388892338373,-0.221438646316528,0.507629036903381,0.3378084897995
0,0.976388951725609,-0.14722222356986,-0.125000002061652,-0.119118720293045,0.249233022332191,0.220216915011406
0,0.981944519258625,-0.216666671860991,0.0375000018340919,0.139582708477974,-0.204945296049118,0.130114302039146
0,1.01527782720901,-0.200000005729836,0.0375000018340919,0.171347707509995,-0.304516315460205,0.209221348166466
0,0.844444514559616,-0.161111118090472,-0.0402777795226179,0.0629191175103188,-0.494800835847855,0.758694648742676
0,0.795833347269579,-0.172222228844576,-0.0194444453391775,0.0803287774324417,-0.295658767223358,1.22906088829041
0,0.96666670854283,-0.226388890731841,-0.0652777787193518,0.0620028227567673,-0.0430659987032413,0.894001305103302
0,1.02777785415829,-0.224999998848587,-0.0833333367337618,-0.184481307864189,0.0659734457731247,0.442266434431076
0,1.10416671324184,-0.248611112240049,-0.113888891307548,-0.329561799764633,0.323758572340012,0.27000242471695
0,1.07777786470773,-0.272222225631511,-0.0902777839940679,-0.327118337154388,0.681114733219147,0.147218525409698
0,0.881944498159761,-0.251388896006557,-0.0805555590452358,-0.316122770309448,0.875064492225647,0.202196389436722
0,0.931944508709193,-0.272222225631511,-0.0416666683668809,-0.295353353023529,1.08825647830963,0.0113010071218014
0,1.00833336779274,-0.269444466176932,0.0819444448505077,-0.294742494821549,0.437379509210587,-0.22174409031868
0,1.23888893417434,-0.263888898643915,-0.00277777787846293,-0.295353353023529,0.480750948190689,-0.328340083360672
0,1.09166668629255,-0.256944463539574,0.029166668768514,-0.0757472887635231,0.373238652944565,-0.405614525079727
0,1.04583335139288,-0.265277790527169,-0.0236111118719664,-0.272751331329346,0.705549359321594,-0.362853944301605
0,1.03888889197661,-0.259722222994153,0.00138888893923146,-0.196393176913261,0.597731649875641,-0.404087364673615
0,1.01388893532575,-0.243055569018962,0.0472222237439329,-0.189062789082527,0.386372268199921,-0.305127203464508
0,0.977777843608863,-0.200000005729836,0.052777782159976,-0.172569438815117,0.261450320482254,-0.10598511993885
0,0.975000059842355,-0.180555567988136,0.0513888902767219,-0.0167987942695618,0.105068825185299,0.0125227374956012
0,1.0333333244436,-0.195833342236038,0.0847222225390337,0.200974673032761,-0.138055548071861,0.162184715270996
0,1.03888889197661,-0.186111123365188,0.0638888929140799,0.122478485107422,-0.23823744058609,0.305432617664337
0,0.93750007624221,-0.195833342236038,0.0652777787193518,0.110261179506779,-0.483499854803085,0.441044718027115
0,0.970833384192592,-0.220833347510754,0.0138888899621255,0.0513126812875271,-0.336892187595367,0.470671683549881
0,1.03750000009336,-0.256944463539574,0.0208333341834404,-0.0106901414692402,-0.107817716896534,0.338113903999329
0,1.02777785415829,-0.272222225631511,0.0250000007162294,-0.0565050356090069,0.0186313893646002,0.153021737933159
0,1.05833337834217,-0.262500006760661,0.0125000003581147,-0.0113010071218014,0.213191971182823,0.0458148941397667
0,1.02083339474202,-0.273611117514765,0.0222222230277034,-0.0323758572340012,0.267558991909027,0.0253509078174829
0,1.00277780025972,-0.288888903918631,0.0250000007162294,-0.280387133359909,0.260228604078293,-0.262672066688538
0,0.962500032893068,-0.294444447139719,0.0486111125881959,-0.268169850111008,0.206777885556221,-0.31154128909111
0,0.962500032893068,-0.269444466176932,0.0388888906783549,-0.178678080439568,0.376903861761093,-0.288022965192795
0,0.986111194908388,-0.240277785252453,0.0694444482911319,-0.0879645943641663,0.401033043861389,-0.266337245702743
0,1.02638896227504,-0.233333350148112,0.0611111152255539,0.0106901414692402,0.375376701354981,-0.323758572340012
0,1.02916674604155,-0.234722242031366,0.0930555616825939,0.0803287774324417,0.284663200378418,-0.278554558753967
0,1.06666672964169,-0.226388890731841,0.0541666679652478,-0.138971850275993,0.261144906282425,-0.288022965192795
0,1.02638896227504,-0.197222234119292,0.0666666706026059,-0.212275668978691,0.186008468270302,-0.236404851078987
0,1.00555558402623,-0.197222234119292,0.0930555616825939,-0.0830776765942574,0.262061178684235,-0.132557764649391
0,0.993055557076942,-0.20972223675665,0.101388894748172,0.0311541277915239,0.310930401086807,-0.05283984541893
0,0.98888888142718,-0.227777782615095,0.111111119697004,0.125227376818657,0.162795588374138,0.0241291765123606
0,1.00555558402623,-0.180555567988136,0.0736111117849297,-0.0507018156349659,0.0027488935738802,0.0259617734700441
0,0.994444448960196,-0.180555567988136,0.0819444448505077,-0.0708603709936142,-0.105068825185299,0.0427605658769607
0,0.969444492309338,-0.200000005729836,0.1194444466846,0.0513126812875271,-0.22693644464016,-0.00610865233466029
0,0.981944519258625,-0.238888893369199,0.122222230451108,0.0589484944939613,-0.419664412736893,0.0241291765123606
0,1.02500007039179,-0.215277779977737,0.0694444482911319,0.017409659922123,-0.302378296852112,0.0369573459029198
0,1.02500007039179,-0.205555561106887,0.055555559848502,-0.119729585945606,-0.172569438815117,-0.0568104684352875
0,0.991666665193688,-0.197222234119292,0.0625000010308258,-0.0620028227567673,-0.16920967400074,-0.0192422550171614
0,1.01944450285877,-0.200000005729836,0.0416666683668809,-0.058643065392971,-0.00794124789535999,-0.0198531206697226
0,1.03194452980806,-0.206944452990142,0.0625000010308258,-0.0549778714776039,-0.0424551330506802,0.0027488935738802
0,1.02638896227504,-0.215277779977737,0.055555559848502,0.0589484944939613,-0.134695783257484,0.0192422550171614
0,1.00555558402623,-0.223611131277262,0.0888888921108138,0.0580321997404099,-0.150272846221924,0.0222965814173222
0,1.00972225967599,-0.20972223675665,0.0458333348996699,-0.00824668072164059,-0.0430659987032413,-0.00885754637420177
0,1.01944450285877,-0.216666671860991,0.0486111125881959,-0.00733038317412138,0.119118720293045,-0.0339030213654041
0,1.02222228662528,-0.2194444556275,0.0388888906783549,-0.0100792767480016,0.11087204515934,-0.0415388382971287
0,1.01666671909226,-0.213888888094483,0.055555559848502,-0.0781907513737679,0.198836639523506,-0.0372627787292004
0,1.01666671909226,-0.213888888094483,0.055555559848502,-0.0308486949652433,0.00855211354792118,-0.00977384392172098
0,0.981944519258625,-0.194444450352783,0.0805555590452358,0.0693332031369209,-0.107512280344963,-0.0241291765123606
0,1.00000001649321,-0.215277779977737,0.055555559848502,-0.114537231624126,-0.333837866783142,-0.0143553335219622
0,1.02500007039179,-0.229166674498349,-0.03194444645704,-0.209221348166466,-0.48685958981514,-0.0400116741657257
0,1.02361117850853,-0.231944458264858,0.0388888906783549,-0.0134390350431204,-0.106290549039841,0.0827722400426865
0,1.01805561097552,-0.190277786858986,0.0194444453391775,0.0919352173805237,0.0974330082535744,0.037568211555481
0,1.02222228662528,-0.20138889761309,0.0347222241455659,0.0387899428606033,0.237321153283119,-0.0253509078174829
0,1.00694447590948,-0.202777789496344,0.03194444645704,-0.0268780700862408,0.264504641294479,-0.0280998013913631
0,1.00000001649321,-0.19166667874224,0.0638888929140799,0.00855211354792118,0.250760197639465,-0.0500909499824047
0,1.00972225967599,-0.2194444556275,0.0708333340964038,0.0571159012615681,0.0653625801205635,-0.0629191175103188
0,1.03888889197661,-0.233333350148112,0.0708333340964038,0.0968221426010132,0.0797179117798805,-0.122478485107422
0,1.0361111082101,-0.222222239394008,0.055555559848502,0.0103847095742822,0.0797179117798805,-0.128892570734024
0,1.0305556379248,-0.200000005729836,0.055555559848502,0.0601702257990837,0.0323758572340012,-0.161573857069016
0,1.01944450285877,-0.175000000455119,0.0388888906783549,-0.19058994948864,-0.0589484944939613,-0.182648703455925
0,1.03888889197661,-0.198611113846581,0.0638888929140799,-0.144164204597473,-0.0332921557128429,-0.183259576559067
0,1.04861113515939,-0.211111128639904,0.0944444474878658,-0.113926365971565,-0.290160983800888,-0.236099421977997
0,1.05833337834217,-0.211111128639904,0.0986111170596459,0.262672066688538,-0.199142068624496,-0.197309479117393
0,1.04027778385987,-0.206944452990142,0.0986111170596459,0.6722571849823,-0.217468023300171,-0.121256753802299
0,0.968055600426084,-0.187500003092477,0.0638888929140799,0.561385154724121,-0.22754730284214,0.0171042270958424
0,0.956944465360051,-0.169444445078067,0.0166666676506515,0.342389971017838,0.0812450796365738,0.153632611036301
0,0.96666670854283,-0.14722222356986,0.170833336961321,0.557109117507935,0.538477718830109,0.213802829384804
0,0.986111194908388,-0.18333333959868,0.00555555575692586,0.0164933614432812,0.0226020142436027,0.0974330082535744
0,1.00000001649321,-0.180555567988136,0.055555559848502,-0.16951510310173,-0.0998764708638191,0.0665843114256859
0,0.997222232726705,-0.176388892338373,0.0625000010308258,-0.164322748780251,0.0308486949652433,0.128892570734024
0,1.02777785415829,-0.18333333959868,0.0513888902767219,-0.113010071218014,0.158824965357781,0.183259576559067
0,1.08333333499303,-0.243055569018962,0.0819444448505077,0.239764615893364,0.182343274354935,0.213497400283814
0,1.06250005399193,-0.230555566381603,0.0819444448505077,0.280998021364212,0.164628177881241,0.0284052342176437
0,1.00000001649321,-0.226388890731841,0.0652777787193518,0.210137650370598,-0.111482910811901,0.109039448201656
0,0.887500065692777,-0.212499996211229,0.0152777788063885,-0.151189148426056,-0.131030589342117,0.160962998867035
0,0.993055557076942,-0.223611131277262,0.0750000036681839,-0.0656680166721344,-0.134695783257484,0.133779495954514
0,1.0513889189259,-0.2194444556275,0.0694444482911319,0.116980694234371,-0.03176499158144,0.0684169083833694
0,1.02222228662528,-0.218055563744246,0.108333335930496,0.100792765617371,-1.1612548828125,-0.0821613743901253
0,1.02222228662528,-0.218055563744246,0.108333335930496,0.229990765452385,-1.20279371738434,-0.147218525409698
0,0.919444481759906,-0.227777782615095,0.0763888894734557,0.252287358045578,-1.18080246448517,-0.429743707180023
0,0.944444438410764,-0.202777789496344,0.0194444453391775,0.0436768643558025,-0.806342124938965,-0.0946841165423393
0,1.1291666698927,-0.200000005729836,-0.0791666671619817,0.171653136610985,0.0128281703218818,-0.271529614925385
0,1.05555559457566,-0.172222228844576,-0.0458333348996699,0.0598647929728031,0.131946891546249,-0.280998021364212
0,0.944444438410764,-0.156944454596674,0.00555555575692586,0.0598647929728031,-0.0467311926186085,-0.19028452038765
0,0.969444492309338,-0.252777787889811,-0.0500000014324589,0.102319926023483,0.32253685593605,-0.23273965716362
0,0.970833384192592,-0.186111123365188,0.00416666691266287,0.0418442711234093,0.336892187595367,0.19058994948864
0,0.99583334084345,-0.163888889701015,-0.00555555575692586,0.0775798857212067,0.413250327110291,0.36529740691185
0,1.02500007039179,-0.166666673467524,0.0125000003581147,0.156076073646545,0.495411723852158,0.278859972953796
0,1.0513889189259,-0.118055554801345,0.224999998848587,-0.00366519158706069,-0.549473285675049,0.465173870325089
0,1.0513889189259,-0.176388892338373,0.194444450352783,0.442877292633057,-0.0507018156349659,0.144775062799454
0,0.980555627375371,-0.156944454596674,0.0250000007162294,-0.161268427968025,-0.603534877300262,0.253203630447388
0,1.12083341584089,-0.269444466176932,-0.238888893369199,-1.38024997711182,0.611170649528503,-0.655152976512909
0,0.980555627375371,-0.0750000036681839,0.212499996211229,-0.289550125598908,-0.586430609226227,-0.383012503385544
0,1.01527782720901,-0.120833338567854,-0.0583333375370279,-0.156686931848526,-0.125532805919647,-0.346055150032044
0,1.03888889197661,-0.176388892338373,-0.0944444474878658,0.112399205565453,-0.117286130785942,-0.436768651008606
0,0.95000000594378,-0.162500009973726,0.0486111125881959,0.0931569486856461,-0.737619757652283,-0.165544480085373
0,1.03750000009336,-0.176388892338373,-0.0375000018340919,-0.233350530266762,-0.469449937343597,-0.0171042270958424
0,1.08472222687628,-0.131944449321958,-0.0736111117849297,-0.151189148426056,-0.0965167060494423,0.128281697630882
0,1.05833337834217,-0.150000007336368,-0.0388888906783549,0.00427605677396059,-0.131336033344269,0.257174253463745
0,1.00555558402623,-0.169444445078067,-0.0611111152255539,0.0290160998702049,-0.0247400421649218,0.264810085296631
0,1.00277780025972,-0.218055563744246,-0.0194444453391775,-0.0510072484612465,-0.0934623852372169,0.0198531206697226
0,0.449999997697174,-0.262500006760661,-0.340277782039389,-0.245567828416824,-0.687223374843597,0.0531452745199203
0,0.983333411141879,-0.195833342236038,-0.154166670830166,0.308181524276733,-1.16369831562042,0.0543670058250427
0,1.07777786470773,-0.150000007336368,-0.15555556271342,0.13225232064724,-0.278249114751816,0.0164933614432812
0,1.07777786470773,-0.161111118090472,-0.190277786858986,-0.0598647929728031,0.372933238744736,0.140804439783096
0,1.04305556762637,-0.202777789496344,-0.0861111144222878,-0.0433714315295219,0.868344962596893,0.0827722400426865
0,1.02916674604155,-0.216666671860991,-0.0708333340964038,-0.0045814891345799,0.518013715744019,-0.0992656052112579
0,1.05000002704265,-0.200000005729836,-0.108333335930496,-0.146607652306557,1.19943392276764,-0.166766211390495
0,1.05000002704265,-0.200000005729836,-0.108333335930496,-0.153021737933159,1.00945484638214,-0.153021737933159
0,1.03194452980806,-0.177777784221628,-0.00694444498106275,-0.0705549344420433,1.00059723854065,-0.150272846221924
0,0.965277816659576,-0.176388892338373,0.026388891079988,-0.0439822971820831,0.52870386838913,-0.0513126812875271
0,0.947222222177272,-0.200000005729836,0.0541666679652478,0.0253509078174829,0.46059238910675,-0.234877690672875
0,0.972222276075846,-0.154166670830166,0.03194444645704,0.0372627787292004,-0.0913243517279625,-0.155159771442413
0,1.03194452980806,-0.176388892338373,0.0250000007162294,0.0384845100343227,0.00519235478714108,-0.124311074614525
0,1.01527782720901,-0.158333334323963,0.033333335301303,0.0720821022987366,-0.0543670058250427,-0.00366519158706069
0,1.0305556379248,-0.144444451959316,0.0152777788063885,0.138971850275993,-0.0140499006956816,0.0861319974064827
0,1.05694448645892,-0.150000007336368,0.00833333382532574,0.254730820655823,0.12675453722477,0.123089343309402
0,1.03750000009336,-0.152777778946911,-0.00138888893923146,0.244956970214844,0.21135938167572,0.125227376818657
0,1.00000001649321,-0.158333334323963,0.00277777787846293,0.0284052342176437,0.0381790772080422,0.0934623852372169
0,1.02916674604155,-0.175000000455119,0.0444444460554069,0.120035022497177,0.00977384392172098,0.0687223374843597
0,1.0361111082101,-0.184722231481934,0.0361111129898289,0.313984721899033,0.0345138870179653,0.0784961804747581
0,1.00833336779274,-0.195833342236038,-0.116666675074056,0.499687761068344,0.0574213340878487,-0.0167987942695618
0,1.00277780025972,-0.190277786858986,-0.0819444448505077,0.205250725150108,-0.0543670058250427,0.000610865245107561
0,1.00555558402623,-0.175000000455119,-0.0194444453391775,0.17989981174469,-0.0510072484612465,0.013744467869401
0,1.02083339474202,-0.14583334384257,0.0194444453391775,0.145996794104576,-0.0531452745199203,0.118202425539494
0,1.02083339474202,-0.163888889701015,0.0194444453391775,0.181121543049812,0.0791070461273193,0.141109868884087
0,1.02500007039179,-0.170833336961321,0.0152777788063885,0.0100792767480016,0.0458148941397667,0.145080491900444
0,1.04305556762637,-0.12777778582816,-0.00833333382532574,-0.0534507073462009,-0.161268427968025,0.0943786799907684
0,0.959722249126559,-0.134722233088466,-0.00555555575692586,-0.213497400283814,-0.358577907085419,0.0510072484612465
0,1.00138890837647,-0.187500003092477,0.0125000003581147,-0.315817326307297,-0.228463605046272,-0.0323758572340012
0,1.05555559457566,-0.194444450352783,0.0250000007162294,-0.0763581544160843,-0.224492982029915,0.0134390350431204
5,1.02777785415829,-0.194444450352783,0.026388891079988,0.0329867228865623,-0.215024560689926,-0.00488692196086049
5,0.963888924776322,-0.187500003092477,0.026388891079988,-0.190895393490791,-0.457538068294525,-0.027488935738802
5,0.976388951725609,-0.226388890731841,0.0125000003581147,-0.162184715270996,-0.584598064422607,-0.0537561401724815
5,1.00277780025972,-0.180555567988136,-0.00833333382532574,-0.011606439948082,-0.400422155857086,0.0580321997404099
5,1.02222228662528,-0.156944454596674,-0.0416666683668809,-0.0265726372599602,-0.193644285202026,0.143553331494331
5,1.05833337834217,-0.161111118090472,-0.0500000014324589,-0.0109955742955208,0.0161879286170006,0.21135938167572
5,1.05833337834217,-0.161111118090472,-0.0500000014324589,-0.105068825185299,0.22174409031868,0.124921940267086
5,0.991666665193688,-0.224999998848587,-0.0375000018340919,-0.183565005660057,0.0671951770782471,-0.0464257597923279
5,0.958333357243305,-0.223611131277262,-0.0250000007162294,-0.327729195356369,-0.31245756149292,-0.154548913240433
5,0.98888888142718,-0.190277786858986,-0.0361111129898289,-0.268169850111008,-0.166155353188515,-0.00305432616733015
5,1.04305556762637,-0.190277786858986,-0.0347222241455659,-0.0925460830330849,0.00794124789535999,-0.0287106670439243
5,1.07500008094122,-0.186111123365188,-0.0250000007162294,0.123089343309402,0.264504641294479,0.0268780700862408
5,1.05416670269241,-0.193055558469529,-0.033333335301303,0.00885754637420177,0.180816113948822,-0.0329867228865623
5,0.936111184358955,-0.184722231481934,-0.166666673467524,-0.992961466312408,-0.279470860958099,-0.0763581544160843
5,0.991666665193688,-0.130555557438704,-0.00277777787846293,0.0852157026529312,0.101709060370922,0.0974330082535744
5,1.05833337834217,-0.204166669223633,-0.0944444474878658,0.128281697630882,0.247705861926079,0.00794124789535999
5,1.02500007039179,-0.188888894975731,-0.029166668768514,0.259923160076141,0.117591559886932,0.285884946584701
5,0.98888888142718,-0.2194444556275,-0.0847222225390337,-0.0745255574584007,0.0668897479772568,0.0284052342176437
5,0.998611124609959,-0.223611131277262,-0.0430555572111439,-0.0723875313997269,0.0348193198442459,-0.108734011650086
5,1.02222228662528,-0.211111128639904,-0.029166668768514,-0.0800233483314514,0.0949895456433296,-0.162490159273148
5,1.03750000009336,-0.172222228844576,-0.0138888899621255,0.0177150927484035,0.0852157026529312,-0.108123145997524
5,1.02083339474202,-0.158333334323963,-0.0458333348996699,-0.139888137578964,0.181732416152954,0.0339030213654041
5,1.02222228662528,-0.136111112815755,-0.0500000014324589,-0.387899428606033,0.230907067656517,0.164628177881241
5,1.01527782720901,-0.194444450352783,-0.027777779924251,-0.56169056892395,0.198836639523506,0.0485637858510017
5,1.04861113515939,-0.198611113846581,-0.0166666676506515,-0.605367481708527,0.163406446576118,-0.0339030213654041
5,0.948611114060526,-0.19166667874224,0.0125000003581147,-0.416610091924667,-0.139888137578964,-0.0378736443817616
5,1.00972225967599,-0.179166676104882,-0.00277777787846293,-0.157603234052658,-0.0974330082535744,0.019547687843442
5,1.01527782720901,-0.198611113846581,-0.0180555564949145,-0.101403631269932,-0.149967417120934,-0.0284052342176437
5,1.01111115155925,-0.223611131277262,-0.027777779924251,-0.0800233483314514,-0.0986547395586967,-0.0354301854968071
5,1.0333333244436,-0.237500001485945,-0.00416666691266287,0.145996794104576,0.0329867228865623,-0.0791070461273193
5,1.01666671909226,-0.187500003092477,-0.0416666683668809,0.058643065392971,-0.0241291765123606,-0.0149661982432008
5,0.981944519258625,-0.154166670830166,-0.0444444460554069,-0.0632245540618896,-0.153021737933159,0.00549778714776039
5,0.990277773310434,-0.161111118090472,-0.03194444645704,-0.0357356183230877,-0.287717521190643,0.0717766657471657
5,1.00833336779274,-0.176388892338373,-0.030555557612777,0.0109955742955208,-0.285274058580399,0.0791070461273193
5,1.05694448645892,-0.206944452990142,-0.0625000010308258,0.0293215326964855,-0.0693332031369209,0.0632245540618896
5,1.02638896227504,-0.197222234119292,-0.0597222233422998,-0.0113010071218014,-0.0626136884093285,0.0167987942695618
5,1.02638896227504,-0.197222234119292,-0.0597222233422998,0.0739146918058395,-0.0131336031481624,0.0180205255746841
5,1.00972225967599,-0.193055558469529,-0.0444444460554069,0.0919352173805237,0.0323758572340012,0.00763581553474069
5,1.01805561097552,-0.20972223675665,-0.0513888902767219,0.0769690200686455,0.0681114718317986,0.0189368221908808
5,1.02500007039179,-0.212499996211229,-0.0541666679652478,0.0717766657471657,-0.0439822971820831,0.0180205255746841
5,0.993055557076942,-0.204166669223633,-0.0152777788063885,0.130419731140137,0.0418442711234093,0.0342084541916847
5,1.00555558402623,-0.181944447715425,-0.0138888899621255,0.239764615893364,-0.0867428630590439,0.00305432616733015
5,1.0125000434425,-0.181944447715425,-0.0250000007162294,0.204945296049118,-0.04764748737216,-0.0033597587607801
5,1.01944450285877,-0.187500003092477,-0.0222222230277034,0.281303435564041,-0.0109955742955208,0.01588249579072
5,1.0125000434425,-0.186111123365188,-0.0111111115138517,0.436768651008606,0.0473420582711697,0.05283984541893
5,1.01388893532575,-0.180555567988136,-0.0513888902767219,0.229379892349243,0.140499010682106,0.0198531206697226
5,1.0125000434425,-0.176388892338373,-0.0444444460554069,0.186619326472282,0.170736834406853,-0.0326812900602817
5,1.03194452980806,-0.187500003092477,-0.0194444453391775,0.283746898174286,0.24342979490757,-0.0775798857212067
5,1.04583335139288,-0.197222234119292,-0.00555555575692586,0.453262001276016,0.387288570404053,-0.070249505341053
5,1.05694448645892,-0.205555561106887,-0.0180555564949145,0.452651143074036,0.453872889280319,-0.0656680166721344
5,1.02083339474202,-0.186111123365188,-0.00694444498106275,0.378125578165054,0.328034639358521,-0.00366519158706069
5,0.993055557076942,-0.18333333959868,-0.00833333382532574,0.207083314657211,0.143247902393341,0.0464257597923279
5,0.959722249126559,-0.187500003092477,-0.00138888893923146,-0.00977384392172098,-0.0827722400426865,0.0293215326964855
5,1.07500008094122,-0.172222228844576,-0.0347222241455659,-0.153021737933159,0.163101017475128,0.078801617026329
5,1.00694447590948,-0.187500003092477,0.0250000007162294,0.109650313854218,-0.0678060427308083,0.128892570734024
5,1.01111115155925,-0.20138889761309,0.0166666676506515,0.116675265133381,-0.0729983970522881,0.0754418596625328
5,1.03888889197661,-0.212499996211229,-0.0180555564949145,0.127670839428902,-0.00610865233466029,0.0109955742955208
5,1.0125000434425,-0.218055563744246,-0.0138888899621255,0.283441483974457,0.250760197639465,-0.0965167060494423
5,0.998611124609959,-0.193055558469529,0.00972222266958873,0.150272846221924,0.0473420582711697,-0.0247400421649218
5,1.02083339474202,-0.190277786858986,-0.0125000003581147,0.145385921001434,0.112093769013882,-0.0409279726445675
5,1.01666671909226,-0.200000005729836,0.00555555575692586,0.112093769013882,0.11606439948082,-0.0430659987032413
5,1.0125000434425,-0.194444450352783,0.00416666691266287,0.0931569486856461,0.0479529201984406,-0.0167987942695618
5,1.02500007039179,-0.187500003092477,-0.00833333382532574,-0.0580321997404099,0.137750118970871,-0.00824668072164059
5,1.00138890837647,-0.202777789496344,0.0194444453391775,-0.0335975885391235,0.122478485107422,-0.015577063895762
5,1.01666671909226,-0.205555561106887,0.0250000007162294,0.0491746515035629,0.182037845253944,0.00946841109544039
5,0.986111194908388,-0.194444450352783,0.0375000018340919,0.0219911485910416,0.0849102661013603,-0.0479529201984406
5,1.00277780025972,-0.190277786858986,0.0250000007162294,0.037568211555481,-0.0626136884093285,-0.0183259565383196
5,1.02500007039179,-0.190277786858986,0.0125000003581147,0.0122173046693206,0.109039448201656,0.0180205255746841
5,1.05277781080915,-0.19166667874224,0.0222222230277034,0.0280998013913631,-0.0290160998702049,-0.00763581553474069
5,1.02638896227504,-0.204166669223633,0.0458333348996699,0.00122173049021512,-0.015577063895762,-0.0204639863222837
5,1.01944450285877,-0.200000005729836,0.0138888899621255,-0.0394008085131645,0.0561996027827263,0.0265726372599602
5,1.00833336779274,-0.176388892338373,0.0180555564949145,-0.0177150927484035,0.0668897479772568,0.00885754637420177
5,0.959722249126559,-0.197222234119292,0.0458333348996699,0.0546724386513233,-0.171653136610985,-0.00183259579353034
5,0.95000000594378,-0.197222234119292,0.0347222241455659,0.0335975885391235,-0.414777487516403,0.00641408516094089
5,1.01111115155925,-0.200000005729836,0.0388888906783549,0.142026171088219,-0.497244298458099,0.0265726372599602
5,1.04166667574312,-0.187500003092477,0.00138888893923146,-0.0726929605007172,-0.252592772245407,-0.00183259579353034
5,1.02916674604155,-0.187500003092477,-0.0152777788063885,-0.216246291995048,-0.170125976204872,0.00397062394768
5,1.0361111082101,-0.18333333959868,0.00833333382532574,0.0595593601465225,-0.0629191175103188,0.0229074470698834
5,1.02222228662528,-0.190277786858986,-0.0125000003581147,-0.0241291765123606,-0.0849102661013603,-0.0033597587607801
5,1.00972225967599,-0.195833342236038,-0.0222222230277034,-0.154854342341423,-0.120645888149738,-0.0510072484612465
5,0.997222232726705,-0.195833342236038,-0.00277777787846293,-0.218995183706284,-0.276111096143722,-0.0635299831628799
5,0.997222232726705,-0.195833342236038,-0.00277777787846293,-0.0519235469400883,-0.242818936705589,-0.0610865242779255
5,1.04166667574312,-0.190277786858986,-0.00972222266958873,0.0558941699564457,-0.137750118970871,0.0284052342176437
5,1.04166667574312,-0.193055558469529,-0.030555557612777,-0.0241291765123606,0.011606439948082,-0.00610865233466029
5,1.04166667574312,-0.193055558469529,-0.030555557612777,0.0284052342176437,0.0265726372599602,-0.0241291765123606
5,1.01111115155925,-0.188888894975731,-0.00694444498106275,0.0778853222727776,0.0131336031481624,-0.0412334054708481
5,1.00833336779274,-0.194444450352783,-0.0208333341834404,0.0858265683054924,-0.0290160998702049,-0.0671951770782471
5,1.00833336779274,-0.194444450352783,-0.0208333341834404,0.0167987942695618,0.0171042270958424,-0.0708603709936142
5,1.02222228662528,-0.190277786858986,-0.00972222266958873,0.0861319974064827,0.0681114718317986,-0.0418442711234093
5,1.02777785415829,-0.187500003092477,-0.00972222266958873,0.0885754600167274,0.0974330082535744,-0.0262672062963247
5,1.02777785415829,-0.187500003092477,-0.00972222266958873,0.0522289797663689,0.0241291765123606,-0.0204639863222837
5,0.983333411141879,-0.175000000455119,-0.00277777787846293,0.0897971913218498,-0.0806342139840126,-0.0259617734700441
5,0.990277773310434,-0.181944447715425,-0.00972222266958873,0.0427605658769607,-0.145996794104576,-0.0552833043038845
5,1.00138890837647,-0.18333333959868,-0.00833333382532574,0.0479529201984406,-0.168293371796608,-0.08460483700037
5,1.00555558402623,-0.19166667874224,-0.00972222266958873,0.0558941699564457,-0.233350530266762,-0.120035022497177
5,1.02083339474202,-0.186111123365188,-0.0194444453391775,0.0381790772080422,-0.266642689704895,-0.0959058403968811
5,1.02638896227504,-0.177777784221628,-0.029166668768514,0.142026171088219,-0.205861583352089,-0.0555887371301651
5,1.01944450285877,-0.176388892338373,-0.033333335301303,0.108428582549095,-0.124311074614525,0.00519235478714108
5,1.01388893532575,-0.177777784221628,-0.0166666676506515,0.193644285202026,-0.105374254286289,0.0183259565383196
5,1.0125000434425,-0.180555567988136,0.00138888893923146,0.36041048169136,-0.104457959532738,0.0577267669141293
5,1.00555558402623,-0.162500009973726,-0.0138888899621255,0.244956970214844,-0.0901026204228401,0.102930791676045
5,1.01805561097552,-0.154166670830166,-0.0680555564078778,-0.132557764649391,0.0229074470698834,0.0937678143382072
5,1.04583335139288,-0.16527778158427,-0.0416666683668809,-0.119424156844616,0.081855945289135,0.143553331494331
5,1.07222229717471,-0.20138889761309,-0.033333335301303,-0.0968221426010132,0.401949346065521,0.0949895456433296
5,1.07361118905796,-0.230555566381603,-0.0152777788063885,0.0287106670439243,0.507629036903381,0.0213802829384804
5,1.00000001649321,-0.200000005729836,0.00277777787846293,-0.00580321997404099,0.355829000473023,0.0287106670439243
5,0.98888888142718,-0.176388892338373,-0.00138888893923146,0.0106901414692402,0.263893783092499,0.0690277740359306
5,0.99583334084345,-0.169444445078067,-0.00416666691266287,-0.0149661982432008,0.171653136610985,0.0717766657471657
5,1.0125000434425,-0.187500003092477,-0.00277777787846293,-0.0568104684352875,0.17440202832222,0.0522289797663689
5,1.00972225967599,-0.190277786858986,-0.00277777787846293,-0.0800233483314514,0.140193566679955,0.0293215326964855
5,0.993055557076942,-0.2194444556275,-0.00416666691266287,-0.121867619454861,0.0766635909676552,-0.0363464802503586
5,0.993055557076942,-0.202777789496344,0.0166666676506515,-0.0189368221908808,-0.0271835029125214,0.013744467869401
5,1.01944450285877,-0.202777789496344,-0.0194444453391775,-0.0708603709936142,0.01588249579072,0.00488692196086049
5,1.01944450285877,-0.202777789496344,-0.0194444453391775,-0.0329867228865623,0.0219911485910416,0.00549778714776039
5,1.00694447590948,-0.202777789496344,-0.00694444498106275,-0.00763581553474069,0.00641408516094089,0.017409659922123
5,1.00555558402623,-0.200000005729836,0.00138888893923146,-0.00885754637420177,-0.0308486949652433,0.0290160998702049
5,1.0125000434425,-0.202777789496344,0.00138888893923146,-0.00824668072164059,-0.0342084541916847,0.0280998013913631
5,0.915277806110144,-0.19166667874224,0.029166668768514,-0.0739146918058395,-0.304821759462357,0.0659734457731247
5,0.980555627375371,-0.193055558469529,-0.0222222230277034,-0.0259617734700441,-0.159130394458771,0.0482583530247212
5,1.06388894587519,-0.226388890731841,-0.026388891079988,0.000610865245107561,-0.0332921557128429,-0.0207694191485643
5,1.06805562152495,-0.216666671860991,-0.0208333341834404,-0.0284052342176437,0.0797179117798805,-0.0491746515035629
5,1.01944450285877,-0.194444450352783,-0.0152777788063885,0.0638354197144508,0.0995710343122482,-0.015577063895762
5,1.01944450285877,-0.194444450352783,-0.0152777788063885,0.0461203269660473,0.104457959532738,-0.0183259565383196
5,1.01805561097552,-0.193055558469529,-0.0152777788063885,0.0678060427308083,0.115148097276688,-0.0045814891345799
5,1.00416669214298,-0.172222228844576,-0.00833333382532574,-0.011606439948082,0.0668897479772568,0.0302378293126821
5,1.00277780025972,-0.186111123365188,0.00555555575692586,0.0882700309157372,0.0125227374956012,0.0103847095742822
5,1.00555558402623,-0.223611131277262,0.0125000003581147,0.0131336031481624,0.0253509078174829,-0.0244346093386412
5,1.00555558402623,-0.205555561106887,-0.00972222266958873,0.0143553335219622,-0.00549778714776039,-0.00305432616733015
5,1.01388893532575,-0.202777789496344,0.00277777787846293,0.0256563406437635,0.000916297896765172,-0.00488692196086049
5,1.02083339474202,-0.206944452990142,-0.00833333382532574,0.170736834406853,-0.0125227374956012,-0.00702495034784079
5,0.994444448960196,-0.206944452990142,-0.0208333341834404,0.0247400421649218,-0.0284052342176437,-0.0229074470698834
5,0.994444448960196,-0.193055558469529,0.0125000003581147,0.0620028227567673,-0.135001212358475,0.0421497002243996
5,0.993055557076942,-0.206944452990142,-0.029166668768514,-0.0910189226269722,-0.118813291192055,0.0186313893646002
5,1.05416670269241,-0.2194444556275,-0.0125000003581147,0.0021380283869803,0.0378736443817616,-0.037568211555481
5,1.02916674604155,-0.206944452990142,-0.00833333382532574,0.0357356183230877,-0.0513126812875271,-0.0134390350431204
5,0.990277773310434,-0.195833342236038,0.00694444498106275,0.0882700309157372,-0.0855211317539215,0.011606439948082
5,1.01111115155925,-0.197222234119292,-0.00972222266958873,0.0665843114256859,-0.0497855171561241,0.0180205255746841
5,1.02222228662528,-0.20138889761309,0.00277777787846293,0.126143679022789,-0.0461203269660473,0.0247400421649218
5,1.02916674604155,-0.202777789496344,0.00555555575692586,0.131030589342117,0.0329867228865623,0.0125227374956012
5,1.03194452980806,-0.202777789496344,-0.00555555575692586,0.0494800843298435,0.0983493030071259,-0.00397062394768
5,1.01666671909226,-0.198611113846581,-0.00555555575692586,-0.0919352173805237,0.0824668109416962,-0.0146607663482428
5,0.994444448960196,-0.193055558469529,-0.00555555575692586,-0.142637029290199,-0.0125227374956012,-0.00885754637420177
5,1.05000002704265,-0.200000005729836,0.0125000003581147,0.0448985956609249,0.139888137578964,0.0128281703218818
5,0.970833384192592,-0.218055563744246,0.00555555575692586,-0.0589484944939613,-0.0616973899304867,-0.0027488935738802
5,1.00972225967599,-0.229166674498349,0.0138888899621255,0.0394008085131645,-0.0131336031481624,0.01588249579072
5,1.01527782720901,-0.237500001485945,0.00555555575692586,0.0177150927484035,-0.0161879286170006,0.00580321997404099
5,1.00694447590948,-0.241666677135707,-0.00138888893923146,0.0555887371301651,-0.0244346093386412,0.01588249579072
5,1.00416669214298,-0.241666677135707,-0.00138888893923146,0.0687223374843597,-0.037568211555481,0.011606439948082
5,1.00277780025972,-0.24583335278547,0.00277777787846293,0.103541657328606,-0.0623082555830479,0.0320704244077206
5,1.00277780025972,-0.251388896006557,0.00416666691266287,0.154548913240433,-0.0574213340878487,0.0277943685650826
5,1.00277780025972,-0.244444460902216,0.00833333382532574,0.167071640491486,-0.0571159012615681,0.0320704244077206
5,1.01527782720901,-0.229166674498349,0.0138888899621255,0.153938040137291,-0.0470366254448891,0.0452040284872055
5,1.01527782720901,-0.223611131277262,0.0180555564949145,0.136528387665749,-0.0403171069920063,0.0345138870179653
5,1.0125000434425,-0.215277779977737,0.029166668768514,0.16371189057827,-0.037568211555481,0.0433714315295219
5,1.01527782720901,-0.200000005729836,0.0250000007162294,0.137139245867729,-0.0189368221908808,0.0516181141138077
5,1.02500007039179,-0.169444445078067,0.026388891079988,0.0723875313997269,0.00885754637420177,0.0604756586253643
5,1.01527782720901,-0.141666668192807,0.029166668768514,0.0568104684352875,0.0189368221908808,0.0626136884093285
5,1.0125000434425,-0.14583334384257,0.0250000007162294,-0.000610865245107561,0.0232128798961639,0.0406225398182869
5,1.01527782720901,-0.152777778946911,0.029166668768514,-0.0271835029125214,0.0186313893646002,0.0259617734700441
5,1.01944450285877,-0.148611115453114,0.03194444645704,-0.0424551330506802,0.0100792767480016,0.0183259565383196
5,1.02083339474202,-0.15555556271342,0.0250000007162294,-0.100792765617371,0.0235183127224445,0.0189368221908808
5,1.02083339474202,-0.15555556271342,0.0250000007162294,-0.200058370828629,0.029626963660121,0.019547687843442
5,1.01944450285877,-0.18333333959868,0.0125000003581147,-0.209221348166466,0.0348193198442459,0.0290160998702049
5,1.00138890837647,-0.187500003092477,0.0222222230277034,-0.21135938167572,-0.0357356183230877,0.0482583530247212
5,1.00138890837647,-0.187500003092477,0.0222222230277034,-0.270307868719101,-0.0290160998702049,0.064446285367012
5,1.00416669214298,-0.190277786858986,0.00833333382532574,-0.26419922709465,-0.0494800843298435,0.0827722400426865
5,1.00555558402623,-0.202777789496344,0.00277777787846293,-0.279165416955948,-0.0833831056952477,0.0842994004487991
5,1.00555558402623,-0.202777789496344,0.00277777787846293,-0.261755764484406,-0.0797179117798805,0.0708603709936142
5,1.01666671909226,-0.20138889761309,-0.0125000003581147,-0.229685336351395,-0.0565050356090069,0.0445931628346443
5,1.02083339474202,-0.202777789496344,-0.0222222230277034,-0.22204951941967,-0.0558941699564457,0.0339030213654041
5,1.02500007039179,-0.20138889761309,-0.0375000018340919,-0.218995183706284,-0.0244346093386412,0.0354301854968071
5,1.02361117850853,-0.198611113846581,-0.033333335301303,-0.196698606014252,-0.00763581553474069,0.0277943685650826
5,1.02500007039179,-0.20138889761309,-0.0402777795226179,-0.208915919065475,0.0100792767480016,0.0103847095742822
5,1.01944450285877,-0.19166667874224,-0.0500000014324589,-0.22693644464016,0.0342084541916847,-0.00305432616733015
5,1.02222228662528,-0.186111123365188,-0.0486111125881959,-0.255036234855652,0.0595593601465225,-0.0113010071218014
5,1.02222228662528,-0.19166667874224,-0.055555559848502,-0.272751331329346,0.070249505341053,-0.019547687843442
5,1.02083339474202,-0.204166669223633,-0.0486111125881959,-0.294742494821549,0.0754418596625328,-0.0171042270958424
5,1.01944450285877,-0.205555561106887,-0.0416666683668809,-0.301156580448151,0.0607810914516449,-0.0271835029125214
5,1.0125000434425,-0.200000005729836,-0.0388888906783549,-0.314290165901184,0.0400116741657257,-0.0146607663482428
5,1.01527782720901,-0.202777789496344,-0.03194444645704,-0.310930401086807,0.0433714315295219,-0.0100792767480016
5,1.0125000434425,-0.198611113846581,-0.0361111129898289,-0.321315109729767,0.0394008085131645,0.0033597587607801
5,1.00972225967599,-0.198611113846581,-0.03194444645704,-0.330783516168594,0.0320704244077206,-0.00152716308366507
5,1.00833336779274,-0.197222234119292,-0.033333335301303,-0.339335650205612,0.0265726372599602,0.00519235478714108
5,1.00972225967599,-0.195833342236038,-0.030555557612777,-0.342695415019989,0.0207694191485643,0.00122173049021512
5,1.01527782720901,-0.200000005729836,-0.027777779924251,-0.336892187595367,0.0198531206697226,-0.000610865245107561
5,1.00972225967599,-0.205555561106887,-0.00833333382532574,-0.32284227013588,0.0262672062963247,0.0033597587607801
5,1.01527782720901,-0.212499996211229,-0.0194444453391775,-0.313373863697052,0.0253509078174829,0.0045814891345799
5,1.01805561097552,-0.2194444556275,-0.0222222230277034,-0.278554558753967,0.0167987942695618,-0.00885754637420177
5,1.01388893532575,-0.234722242031366,-0.0194444453391775,-0.229379892349243,0.0384845100343227,-0.00519235478714108
5,1.01944450285877,-0.236111109602691,-0.0194444453391775,-0.182343274354935,0.0354301854968071,-0.0167987942695618
5,1.01388893532575,-0.231944458264858,-0.0194444453391775,-0.154548913240433,0.0290160998702049,-0.0152716310694814
5,1.01527782720901,-0.229166674498349,-0.0361111129898289,-0.134695783257484,0.0458148941397667,-0.0244346093386412
5,1.01944450285877,-0.230555566381603,-0.0361111129898289,-0.107206851243973,0.0543670058250427,-0.0183259565383196
5,1.0125000434425,-0.233333350148112,-0.0361111129898289,-0.0925460830330849,0.0479529201984406,-0.0244346093386412
5,1.00972225967599,-0.237500001485945,-0.0402777795226179,-0.0568104684352875,0.0436768643558025,-0.0302378293126821
5,0.99583334084345,-0.236111109602691,-0.0347222241455659,-0.0302378293126821,0.00733038317412138,-0.0161879286170006
5,1.00277780025972,-0.230555566381603,-0.0347222241455659,0.00519235478714108,-0.0219911485910416,-0.0149661982432008
5,1.0125000434425,-0.229166674498349,-0.0388888906783549,0.0164933614432812,-0.0125227374956012,-0.0128281703218818
5,1.01388893532575,-0.234722242031366,-0.0347222241455659,0.0381790772080422,-0.00244346098043024,-0.0122173046693206
5,1.00555558402623,-0.233333350148112,-0.029166668768514,0.0500909499824047,-0.0027488935738802,-0.00366519158706069
5,1.00555558402623,-0.230555566381603,-0.0236111118719664,0.0687223374843597,-0.0244346093386412,0.00305432616733015
5,1.01527782720901,-0.220833347510754,-0.03194444645704,0.0708603709936142,-0.0351247526705265,0.00610865233466029
5,1.01944450285877,-0.215277779977737,-0.0388888906783549,0.0650571510195732,-0.00641408516094089,0.00549778714776039
5,1.01388893532575,-0.2194444556275,-0.0416666683668809,0.0574213340878487,0.00152716308366507,0.0143553335219622
5,1.00972225967599,-0.222222239394008,-0.0375000018340919,0.0540615729987621,-0.00610865233466029,0.00183259579353034
5,1.00694447590948,-0.2194444556275,-0.0361111129898289,0.0488692186772823,-0.00122173049021512,-0.00305432616733015
5,1.00138890837647,-0.226388890731841,-0.029166668768514,0.0595593601465225,-0.0140499006956816,0.00580321997404099
5,1.00277780025972,-0.230555566381603,-0.03194444645704,0.0650571510195732,-0.0250454749912024,0.00397062394768
5,1.0125000434425,-0.233333350148112,-0.0375000018340919,0.0891863256692886,-0.0100792767480016,0.00549778714776039
5,1.00833336779274,-0.238888893369199,-0.03194444645704,0.0959058403968811,-0.0198531206697226,0.0109955742955208
5,1.01111115155925,-0.237500001485945,-0.0222222230277034,0.108428582549095,-0.0183259565383196,0.00427605677396059
5,0.98888888142718,-0.229166674498349,-0.0125000003581147,0.161268427968025,-0.0210748501121998,0.013744467869401
5,1.00000001649321,-0.229166674498349,-0.0402777795226179,0.156686931848526,-0.0632245540618896,-0.0027488935738802
