Activity,acc_x,acc_y,acc_z,gyro_x,gyro_y,gyro_z
0,0.279166685047782,0.166666673467524,0.930555616825939,-0.0629191175103188,0.581238269805908,-0.647822618484497
0,0.252777787889811,0.141666668192807,0.977777843608863,0.0183259565383196,0.350331217050552,-0.49693888425827
0,0.252777787889811,0.141666668192807,0.977777843608863,0.203723564743996,0.0436768643558025,-0.381485342979431
0,0.247222220356795,0.0902777839940679,0.947222222177272,0.194255143404007,-0.0259617734700441,-0.404087364673615
0,0.247222220356795,0.0902777839940679,0.947222222177272,0.1795943826437,-0.0885754600167274,-0.391870051622391
0,0.236111109602691,0.0625000010308258,0.925000049292922,0.125227376818657,0.0131336031481624,-0.516791999340057
0,0.236111109602691,0.0541666679652478,0.866666687443965,0.0638354197144508,0.264810085296631,-0.777326047420502
0,0.25555557165632,0.055555559848502,0.848611190209378,-0.542448341846466,0.191506251692772,-0.928515195846558
0,0.272222225631511,0.158333334323963,0.873611146860236,-0.923628270626068,0.201890960335732,-0.765414178371429
0,0.238888893369199,0.176388892338373,0.961111141009813,-0.819475710391998,-0.109955742955208,-0.498466044664383
0,0.273611117514765,0.0875000002275597,1.00000001649321,-0.660039901733398,-0.0412334054708481,-0.522900640964508
0,0.281944444502361,0.0250000007162294,0.979166735492117,-0.480445504188538,0.187535628676414,-0.706160247325897
0,0.275000009398019,0.0500000014324589,0.986111194908388,-0.159130394458771,-0.0901026204228401,-0.685390830039978
0,0.238888893369199,0.03194444645704,1.00000001649321,0.0366519130766392,-0.378431022167206,-0.723875343799591
0,0.269444466176932,-0.0194444453391775,0.899999995394348,-0.324674874544144,-0.868955790996552,-0.587957799434662
0,0.258333331110899,-0.00416666691266287,0.840277838909853,-0.955087780952454,-1.25960409641266,-0.300240278244019
0,0.275000009398019,0.0430555572111439,0.854166660494678,-1.14476144313812,-0.747393608093262,-0.145080491900444
0,0.262500006760661,0.0430555572111439,0.906944454810619,-1.35917520523071,-0.841772317886353,0.0103847095742822
0,0.301388906555989,-0.0458333348996699,1.15694450755778,-1.46546566486359,-1.2046263217926,0.186924770474434
0,0.366666679197359,-0.0458333348996699,0.923611157409668,-1.45905160903931,-1.04977190494537,0.0607810914516449
0,0.388888900705567,-0.0694444482911319,0.911111130460381,-1.26571273803711,-0.627664029598236,-0.140499010682106
0,0.384722225055805,-0.0875000002275597,1.00972225967599,-1.01098203659058,-0.156381502747536,-0.217162594199181
0,0.384722225055805,-0.0875000002275597,1.00972225967599,-0.752891421318054,0.101098194718361,-0.254425376653671
0,0.384722225055805,-0.0875000002275597,1.00972225967599,-0.722042739391327,0.105374254286289,-0.25411993265152
0,0.370833354847121,-0.130555557438704,1.00277780025972,-0.74159038066864,0.202196389436722,-0.392480909824371
0,0.370833354847121,-0.130555557438704,1.00277780025972,-0.71318519115448,0.263893783092499,-0.430354565382004
0,0.437500019371745,-0.162500009973726,0.981944519258625,-0.146913096308708,0.122783914208412,-0.540921151638031
0,0.462500024646461,-0.176388892338373,0.968055600426084,0.0852157026529312,0.109344877302647,-0.465784758329391
0,0.422222257279808,-0.188888894975731,0.95000000594378,0.251981914043427,0.124616511166096,-0.384234249591827
0,0.380555573717971,-0.170833336961321,0.931944508709193,0.311235845088959,0.109039448201656,-0.354607284069061
0,0.363888895430851,-0.152777778946911,0.916666697993398,0.217773467302322,0.171347707509995,-0.289244681596756
0,0.376388898068209,-0.144444451959316,0.933333400592447,0.0952949747443199,0.39675697684288,-0.182648703455925
0,0.368055571080613,-0.12777778582816,0.918055589876652,0.121867619454861,0.305432617664337,-0.167071640491486
0,0.334722238818301,-0.131944449321958,0.925000049292922,0.103236228227615,0.205250725150108,-0.159435823559761
0,0.334722238818301,-0.12777778582816,0.92083337364316,0.0681114718317986,0.180510684847832,-0.192727982997894
0,0.345833349572405,-0.120833338567854,0.92083337364316,0.037568211555481,0.175318330526352,-0.159741267561913
0,0.351388892793493,-0.108333335930496,0.916666697993398,0.0033597587607801,0.196087747812271,-0.128892570734024
0,0.334722238818301,-0.116666675074056,0.926388941176177,-0.0305432621389627,0.0806342139840126,-0.133474051952362
0,0.334722238818301,-0.111111119697004,0.940277860008718,-0.090408056974411,0.0968221426010132,-0.128281697630882
0,0.336111130701556,-0.111111119697004,0.959722249126559,-0.146302223205566,0.145996794104576,-0.117286130785942
0,0.334722238818301,-0.111111119697004,0.962500032893068,-0.149356558918953,0.136222943663597,-0.112704634666443
0,0.340277782039389,-0.113888891307548,0.94305554652751,-0.113315500319004,0.0357356183230877,-0.121256753802299
0,0.351388892793493,-0.125000002061652,0.93750007624221,-0.0442877300083637,0.0210748501121998,-0.122478485107422
0,0.354166676560001,-0.125000002061652,0.941666654644256,-0.0354301854968071,-0.0113010071218014,-0.120645888149738
0,0.354166676560001,-0.116666675074056,0.944444438410764,-0.0256563406437635,-0.058643065392971,-0.104763388633728
0,0.354166676560001,-0.118055554801345,0.94305554652751,-0.00977384392172098,0.013744467869401,-0.104457959532738
0,0.358333352209763,-0.118055554801345,0.931944508709193,0.0748309940099716,0.02382374368608,-0.11087204515934
0,0.356944460326509,-0.118055554801345,0.926388941176177,0.196087747812271,-0.0745255574584007,-0.128281697630882
0,0.361111135976272,-0.118055554801345,0.927777833059431,0.219606056809425,-0.118813291192055,-0.0937678143382072
0,0.363888895430851,-0.111111119697004,0.933333400592447,0.159741267561913,-0.0919352173805237,-0.0681114718317986
0,0.348611133338914,-0.111111119697004,0.933333400592447,0.13744467496872,-0.00183259579353034,-0.0326812900602817
0,0.347222241455659,-0.111111119697004,0.926388941176177,0.169820532202721,0.0222965814173222,-0.0439822971820831
0,0.348611133338914,-0.0944444474878658,0.92083337364316,0.241291776299477,-0.0363464802503586,-0.0430659987032413
0,0.348611133338914,-0.0888888921108138,0.92083337364316,0.244651526212692,-0.106290549039841,-0.0427605658769607
0,0.348611133338914,-0.0888888921108138,0.92083337364316,0.205861583352089,-0.0568104684352875,-0.0381790772080422
0,0.344444457689151,-0.0902777839940679,0.919444481759906,0.160657554864883,0.0189368221908808,-0.0241291765123606
0,0.356944460326509,-0.0902777839940679,0.911111130460381,0.142331600189209,0.0448985956609249,-0.0106901414692402
0,0.354166676560001,-0.0861111144222878,0.913888914226889,0.133779495954514,0.0305432621389627,0.0207694191485643
0,0.341666673922643,-0.0819444448505077,0.925000049292922,0.136833816766739,0.0400116741657257,0.0558941699564457
0,0.354166676560001,-0.0763888894734557,0.923611157409668,0.127365410327911,0.0299323964864016,0.0540615729987621
0,0.362500003547597,-0.0652777787193518,0.930555616825939,0.0934623852372169,0.0589484944939613,0.0452040284872055
0,0.362500003547597,-0.0722222259796579,0.940277860008718,0.114231802523136,0.0464257597923279,0.0751364231109619
0,0.368055571080613,-0.0861111144222878,0.93750007624221,0.183565005660057,0.0739146918058395,0.0714712366461754
0,0.361111135976272,-0.0861111144222878,0.930555616825939,0.213191971182823,0.153938040137291,0.0693332031369209
0,0.354166676560001,-0.0680555564078778,0.95000000594378,0.0952949747443199,0.281303435564041,0.0809396430850029
0,0.347222241455659,-0.0652777787193518,0.95000000594378,-0.0100792767480016,0.262977480888367,0.0940732508897781
0,0.344444457689151,-0.0819444448505077,0.931944508709193,0.0507018156349659,0.254425376653671,0.0821613743901253
0,0.325000019947452,-0.0763888894734557,0.92083337364316,0.138666406273842,0.251676470041275,0.098960168659687
0,0.330555563168539,-0.0694444482911319,0.95000000594378,0.167377084493637,0.182037845253944,0.115453533828259
0,0.327777779402031,-0.0680555564078778,0.959722249126559,0.159435823559761,0.0482583530247212,0.117286130785942
0,0.313888909193348,-0.0708333340964038,0.955555573476797,0.144469633698463,0.00610865233466029,0.102319926023483
0,0.316666668647927,-0.0750000036681839,0.93750007624221,0.171042263507843,0.10567969083786,0.0470366254448891
0,0.313888909193348,-0.0722222259796579,0.931944508709193,0.145385921001434,0.193033412098885,0.0106901414692402
0,0.322222236180943,-0.0486111125881959,0.95000000594378,0.143858760595322,0.113315500319004,-0.000610865245107561
0,0.322222236180943,-0.0513888902767219,0.945833330294018,0.180510684847832,0.000916297896765172,-0.0229074470698834
0,0.312500017310094,-0.0541666679652478,0.931944508709193,0.200058370828629,-0.0635299831628799,-0.0323758572340012
0,0.331944455051793,-0.0222222230277034,0.936111184358955,0.0772744566202164,0.01191187184304,0.0250454749912024
0,0.334722238818301,-0.0194444453391775,0.94305554652751,-0.0360410511493683,0.142331600189209,0.0885754600167274
0,0.323611128064198,-0.03194444645704,0.956944465360051,0.00580321997404099,0.0232128798961639,0.0803287774324417
0,0.301388906555989,-0.0750000036681839,0.93750007624221,0.10567969083786,-0.218078896403313,0.00763581553474069
0,0.304166666010569,-0.0680555564078778,0.93750007624221,0.168598800897598,-0.226325571537018,-0.00977384392172098
0,0.341666673922643,-0.0486111125881959,0.92083337364316,0.152105450630188,-0.0583376325666905,0.157297804951668
0,0.351388892793493,-0.0194444453391775,0.948611114060526,0.160352125763893,0.120035022497177,0.251981914043427
0,0.322222236180943,-0.0250000007162294,0.96666670854283,0.261144906282425,0.12156218290329,0.205861583352089
0,0.301388906555989,-0.0388888906783549,0.979166735492117,0.292604446411133,-0.00305432616733015,0.125838235020638
0,0.298611122789481,-0.0486111125881959,0.970833384192592,0.265726387500763,-0.0629191175103188,0.0940732508897781
0,0.308333341660331,-0.0458333348996699,0.951388897827035,0.274889349937439,-0.0867428630590439,0.0684169083833694
0,0.315277801076602,-0.0388888906783549,0.926388941176177,0.361937671899795,-0.0308486949652433,0.0152716310694814
0,0.298611122789481,-0.0152777788063885,0.930555616825939,0.418442696332932,0.0360410511493683,-0.124311074614525
0,0.288888903918631,-0.00277777787846293,0.956944465360051,0.266642689704895,0.493273675441742,-0.172263994812965
0,0.315277801076602,-0.00277777787846293,0.95000000594378,0.261755764484406,0.572991609573364,-0.0873537287116051
0,0.327777779402031,0.0138888899621255,0.93750007624221,0.235488548874855,0.33841934800148,0.000305432622553781
0,0.298611122789481,0.029166668768514,0.930555616825939,0.129808858036995,0.149356558918953,0.0125227374956012
0,0.281944444502361,0.03194444645704,0.929166724942685,0.0861319974064827,-0.0161879286170006,0.0021380283869803
0,0.279166685047782,0.029166668768514,0.954166681593543,0.00885754637420177,-0.180510684847832,-0.0781907513737679
0,0.279166685047782,0.0208333341834404,0.979166735492117,-0.0445931628346443,-0.0714712366461754,-0.0998764708638191
0,0.312500017310094,0.0152777788063885,0.987499989543926,-0.0213802829384804,-0.070249505341053,-0.0726929605007172
0,0.306944449777077,0.00555555575692586,0.951388897827035,0.0339030213654041,-0.22724187374115,0.0045814891345799
0,0.304166666010569,0.033333335301303,0.93750007624221,0.0189368221908808,-0.289855569601059,0.0345138870179653
0,0.308333341660331,0.0375000018340919,0.951388897827035,0.013744467869401,-0.22785273194313,0.019547687843442
0,0.322222236180943,0.030555557612777,0.959722249126559,-0.00702495034784079,-0.0794124826788902,0.0320704244077206
0,0.326388911830706,0.00555555575692586,0.963888924776322,-0.0418442711234093,-0.0830776765942574,0.0339030213654041
0,0.327777779402031,-0.0125000003581147,0.959722249126559,-0.0836885422468185,-0.135306656360626,0.0424551330506802
0,0.327777779402031,-0.0125000003581147,0.959722249126559,0.217773467302322,0.422413319349289,0.0522289797663689
0,0.323611128064198,0.0611111152255539,0.837500055143345,0.394313514232635,0.447764217853546,0.0662788823246956
0,0.323611128064198,0.0680555564078778,1.04166667574312,0.212886542081833,0.193949714303017,0.0965167060494423
0,0.323611128064198,0.0680555564078778,1.04166667574312,0.128587126731873,0.124616511166096,0.098960168659687
0,0.312500017310094,0.033333335301303,0.983333411141879,-0.0140499006956816,-0.0534507073462009,0.152410879731178
0,0.29166668768514,0.026388891079988,0.947222222177272,-0.176540061831474,-0.289855569601059,0.0381790772080422
0,0.29166668768514,0.026388891079988,0.947222222177272,-0.0623082555830479,-0.058643065392971,-0.0616973899304867
0,0.326388911830706,0.0250000007162294,0.933333400592447,-0.129197999835014,-0.0256563406437635,0.0387899428606033
0,0.325000019947452,0.0402777795226179,0.933333400592447,-0.141415297985077,-0.0705549344420433,0.0510072484612465
0,0.325000019947452,0.0402777795226179,0.933333400592447,-0.175623759627342,-0.107206851243973,0.00702495034784079
0,0.312500017310094,0.00972222266958873,0.961111141009813,-0.144469633698463,-0.0928515195846558,-0.0363464802503586
0,0.325000019947452,-0.00416666691266287,0.973611167959101,-0.0894917547702789,0.0629191175103188,-0.0290160998702049
0,0.325000019947452,-0.00416666691266287,0.973611167959101,-0.0461203269660473,0.0516181141138077,-0.0390953756868839
0,0.315277801076602,-0.0125000003581147,0.976388951725609,0.00763581553474069,0.0348193198442459,-0.0394008085131645
0,0.311111125426839,-0.0125000003581147,0.973611167959101,0.0122173046693206,0.013744467869401,-0.0394008085131645
0,0.312500017310094,-0.00416666691266287,0.962500032893068,-0.0497855171561241,-0.021685715764761,-0.0219911485910416
0,0.311111125426839,-0.00555555575692586,0.952777789710289,-0.0537561401724815,0.0271835029125214,-0.0106901414692402
0,0.312500017310094,-0.00694444498106275,0.962500032893068,-0.0250454749912024,0.0659734457731247,-0.00702495034784079
0,0.316666668647927,-0.00138888893923146,0.959722249126559,-0.0287106670439243,0.0678060427308083,-0.0320704244077206
0,0.312500017310094,0.00833333382532574,0.940277860008718,-0.175318330526352,0.200974673032761,-0.102625362575054
0,0.318055560531181,-0.00277777787846293,0.945833330294018,-0.160046696662903,0.223271250724793,-0.143858760595322
0,0.279166685047782,-0.00138888893923146,0.994444448960196,0.0253509078174829,0.275500237941742,-0.0986547395586967
0,0.319444452414435,-0.00972222266958873,1.00277780025972,0.0552833043038845,0.0992656052112579,-0.0675006061792374
0,0.315277801076602,0.00277777787846293,0.986111194908388,0.120035022497177,-0.0345138870179653,-0.0598647929728031
0,0.295833339022973,0.00277777787846293,1.00000001649321,0.109344877302647,-0.151800006628036,-0.0928515195846558
0,0.341666673922643,-0.00555555575692586,0.991666665193688,-0.00244346098043024,0.236404851078987,-0.115148097276688
0,0.348611133338914,-0.0152777788063885,1.00277780025972,-0.152410879731178,0.839328825473785,0.283136039972305
0,0.184722231481934,-0.0944444474878658,0.913888914226889,-0.289550125598908,0.792597651481628,0.518013715744019
0,0.170833336961321,0.0125000003581147,0.981944519258625,-0.0577267669141293,0.324674874544144,0.540004849433899
0,0.262500006760661,0.0625000010308258,1.04861113515939,0.240680903196335,-0.357356160879135,0.304210901260376
0,0.281944444502361,0.0597222233422998,0.976388951725609,0.155465200543404,-0.292299032211304,0.338113903999329
0,0.312500017310094,-0.0236111118719664,0.904166671044111,-0.0143553335219622,-0.0128281703218818,0.25961771607399
0,0.366666679197359,-0.03194444645704,0.893055633225794,-0.0653625801205635,0.0122173046693206,-0.0287106670439243
0,0.25555557165632,0.0180555564949145,0.923611157409668,-0.149967417120934,0.265726387500763,0.0027488935738802
0,0.122222230451108,0.0180555564949145,0.895833319744586,-0.457843512296677,0.770911931991577,0.286801218986511
0,0.0972222251763917,0.00277777787846293,0.884722281926269,-0.738841533660889,0.892168700695038,0.551000475883484
0,0.169444445078067,-0.0250000007162294,0.983333411141879,-0.649044334888458,0.531147301197052,0.497549742460251
0,0.226388890731841,0.00416666691266287,1.01666671909226,-0.125838235020638,0.739146947860718,0.34330627322197
0,0.240277785252453,-0.0208333341834404,0.961111141009813,-0.0152716310694814,0.426383942365646,0.299934834241867
0,0.236111109602691,-0.029166668768514,0.941666654644256,-0.127670839428902,-0.0369573459029198,0.17440202832222
0,0.208333344873396,-0.0416666683668809,0.923611157409668,-0.282219737768173,-0.131946891546249,0.00580321997404099
0,0.200000005729836,-0.055555559848502,0.918055589876652,-0.335975885391235,-0.0497855171561241,-0.0555887371301651
0,0.216666671860991,-0.0750000036681839,0.962500032893068,-0.234266817569733,-0.207694187760353,-0.113926365971565
0,0.206944452990142,-0.104166672436698,0.990277773310434,-0.0772744566202164,-0.347887754440308,-0.0925460830330849
0,0.144444451959316,-0.104166672436698,0.984722303025134,0.00946841109544039,-0.0763581544160843,0.270918726921081
0,0.144444451959316,-0.104166672436698,0.984722303025134,0.00610865233466029,-0.03176499158144,0.333532422780991
0,0.322222236180943,-0.105555564319952,0.991666665193688,0.0421497002243996,-0.100792765617371,0.00946841109544039
0,0.240277785252453,-0.113888891307548,0.991666665193688,0.176234617829323,0.304210901260376,0.00824668072164059
0,0.240277785252453,-0.113888891307548,0.991666665193688,0.144164204597473,0.213802829384804,0.00794124789535999
0,0.238888893369199,-0.111111119697004,0.976388951725609,0.119118720293045,0.0253509078174829,-0.0109955742955208
0,0.237500001485945,-0.0611111152255539,0.973611167959101,0.103236228227615,0.0519235469400883,0.0131336031481624
0,0.20138889761309,-0.0652777787193518,0.979166735492117,0.0452040284872055,0.0284052342176437,-0.0604756586253643
0,0.20138889761309,-0.0652777787193518,0.979166735492117,0.0241291765123606,0.0430659987032413,-0.0598647929728031
0,0.197222234119292,-0.0680555564078778,0.986111194908388,0.0378736443817616,-0.0800233483314514,0.00824668072164059
0,0.197222234119292,-0.0680555564078778,0.986111194908388,0.0314595587551594,-0.160046696662903,0.0045814891345799
0,0.243055569018962,-0.0541666679652478,0.96666670854283,0.0271835029125214,-0.165849909186363,-0.0235183127224445
0,0.200000005729836,-0.0777777813567098,0.993055557076942,-0.00549778714776039,-0.02382374368608,-0.00183259579353034
0,0.18333333959868,-0.0722222259796579,0.980555627375371,-0.0729983970522881,0.0293215326964855,0.00427605677396059
0,0.18333333959868,-0.0722222259796579,0.980555627375371,-0.0745255574584007,0.0311541277915239,0.0109955742955208
0,0.19166667874224,-0.0625000010308258,0.975000059842355,-0.019547687843442,-0.102930791676045,0.0384845100343227
0,0.204166669223633,-0.0513888902767219,0.979166735492117,0.00580321997404099,-0.183870434761047,0.0482583530247212
0,0.212499996211229,-0.0583333375370279,0.969444492309338,-0.0183259565383196,-0.0543670058250427,0.0284052342176437
0,0.224999998848587,-0.0583333375370279,0.970833384192592,0.0167987942695618,-0.0763581544160843,0.0503963828086853
0,0.197222234119292,-0.0625000010308258,1.00138890837647,-0.0299323964864016,-0.191200822591782,0.10598511993885
0,0.150000007336368,-0.0347222241455659,1.00138890837647,-0.0308486949652433,-0.01588249579072,0.416915535926819
0,0.170833336961321,-0.112499999424294,0.970833384192592,-0.126143679022789,0.064446285367012,0.190895393490791
0,0.259722222994153,-0.0694444482911319,0.969444492309338,-0.0589484944939613,0.01191187184304,0.198225766420364
0,0.259722222994153,-0.0680555564078778,0.986111194908388,0.00427605677396059,0.017409659922123,0.248927593231201
0,0.227777782615095,-0.0763888894734557,0.947222222177272,0.0366519130766392,0.0421497002243996,0.098960168659687
0,0.223611131277262,-0.0750000036681839,0.963888924776322,0.0803287774324417,0.087659165263176,0.144164204597473
0,0.2194444556275,-0.0680555564078778,0.976388951725609,0.0882700309157372,0.135306656360626,0.0552833043038845
0,0.243055569018962,-0.0763888894734557,0.926388941176177,0.0830776765942574,0.153632611036301,-0.157603234052658
0,0.181944447715425,-0.0652777787193518,0.909722238577127,0.151494577527046,0.131030589342117,-0.226020142436027
0,0.156944454596674,-0.0638888929140799,0.906944454810619,0.207694187760353,0.0943786799907684,-0.264504641294479
0,0.125000002061652,-0.0680555564078778,0.899999995394348,0.166155353188515,0.152716308832169,-0.265420943498612
0,0.125000002061652,-0.0750000036681839,0.904166671044111,0.21685716509819,0.386372268199921,-0.18539759516716
0,0.176388892338373,-0.0513888902767219,0.93750007624221,0.23304508626461,0.410806864500046,-0.167071640491486
0,0.181944447715425,-0.0472222237439329,0.938888968125464,0.215635433793068,0.368657171726227,-0.0879645943641663
0,0.195833342236038,-0.0388888906783549,0.990277773310434,0.136833816766739,0.217468023300171,0.0229074470698834
0,0.211111128639904,-0.0472222237439329,1.02361117850853,-0.0772744566202164,0.0647517144680023,0.0956004112958908
0,0.190277786858986,-0.0569444456537738,1.03888889197661,-0.318260788917542,0.0879645943641663,0.369573473930359
0,0.175000000455119,-0.0777777813567098,1.03194452980806,-0.367435455322266,0.0956004112958908,0.379958182573318
0,0.202777789496344,-0.0694444482911319,1.06111116210868,-0.319482535123825,0.00366519158706069,0.470060795545578
0,0.18333333959868,-0.0722222259796579,1.0333333244436,-0.255647093057633,-0.0503963828086853,0.439212113618851
0,0.200000005729836,-0.0902777839940679,1.01388893532575,-0.148440256714821,-0.0164933614432812,0.372627794742584
0,0.172222228844576,-0.0986111170596459,0.969444492309338,-0.0965167060494423,0.154243469238281,0.399505883455276
0,0.190277786858986,-0.101388894748172,0.96666670854283,-0.0210748501121998,0.200363799929619,0.283136039972305
0,0.197222234119292,-0.108333335930496,0.969444492309338,0.0424551330506802,0.139277279376984,0.208305045962334
0,0.168055565350778,-0.0791666671619817,1.01666671909226,0.0965167060494423,0.00549778714776039,0.149051114916802
0,0.12916666555545,-0.0652777787193518,1.01388893532575,0.142942473292351,0.0867428630590439,0.129808858036995
0,0.161111118090472,-0.0944444474878658,1.00277780025972,0.16920967400074,0.250454753637314,0.149051114916802
0,0.130555557438704,-0.0722222259796579,0.976388951725609,0.0723875313997269,0.177150920033455,0.105374254286289
0,0.106944444047242,-0.0638888929140799,0.959722249126559,0.0491746515035629,0.064446285367012,0.176540061831474
0,0.125000002061652,-0.0236111118719664,0.962500032893068,0.182648703455925,-0.0497855171561241,0.233350530266762
0,0.00972222266958873,-0.0222222230277034,0.96666670854283,0.17989981174469,-0.0995710343122482,0.473420560359955
0,0.118055554801345,-0.055555559848502,1.01388893532575,-0.0931569486856461,-0.0687223374843597,0.614225029945374
0,0.272222225631511,-0.0819444448505077,1.03472221632685,0.0305432621389627,-0.333226978778839,0.303294599056244
0,0.295833339022973,-0.118055554801345,1.01527782720901,0.106901414692402,-0.255036234855652,0.222660377621651
0,0.295833339022973,-0.118055554801345,1.01527782720901,-0.0235183127224445,-0.146913096308708,0.0919352173805237
0,0.141666668192807,-0.0722222259796579,0.993055557076942,-0.0485637858510017,-0.162184715270996,0.0558941699564457
0,0.140277788465518,-0.0625000010308258,0.956944465360051,-0.214719131588936,-0.112093769013882,0.194866016507149
0,0.140277788465518,-0.0625000010308258,0.956944465360051,-0.276111096143722,-0.210137650370598,-0.0757472887635231
0,0.262500006760661,-0.0958333393711199,0.95000000594378,-0.250149309635162,-0.193644285202026,-0.149356558918953
0,0.262500006760661,-0.0958333393711199,0.95000000594378,-0.217162594199181,-0.134390354156494,-0.201890960335732
0,0.308333341660331,-0.113888891307548,0.96666670854283,-0.124616511166096,-0.131030589342117,-0.288328409194946
0,0.323611128064198,-0.144444451959316,0.947222222177272,-0.226631000638008,-0.288939267396927,-0.630412936210632
0,0.298611122789481,-0.17361112072783,0.927777833059431,-0.332310706377029,-0.208915919065475,-0.701578736305237
0,0.205555561106887,-0.162500009973726,0.916666697993398,-0.326507478952408,-0.112093769013882,-0.504574716091156
0,0.163888889701015,-0.17361112072783,0.888888957576031,-0.0852157026529312,-0.478612929582596,0.172263994812965
0,0.0208333341834404,-0.187500003092477,0.89166674134254,-0.733038306236267,-1.68262827396393,0.715934038162231
0,-0.0125000003581147,-0.220833347510754,0.727777790861702,-0.950200915336609,-2.45781636238098,1.04885566234589
0,0.411111122213775,-0.140277788465518,0.804166698569104,-1.05862951278687,-1.48195910453796,0.139582708477974
0,0.558333370095563,-0.17361112072783,0.881944498159761,-0.966694235801697,-1.133460521698,-0.196087747812271
0,0.443055586904762,-0.175000000455119,0.912500022343635,-1.05740773677826,-1.19821214675903,-0.0565050356090069
0,0.343055565805897,-0.193055558469529,0.87500003874349,-1.0256427526474,-1.80632853507996,-0.0467311926186085
0,0.479166678621653,-0.258333331110899,0.775000017644626,-1.14384520053864,-0.892474114894867,-0.662177920341492
0,0.654166666920807,-0.288888903918631,0.755555579902926,-1.22936630249023,-0.855211317539215,-1.23058807849884
0,0.659722234453824,-0.354166676560001,0.784722260827405,-1.5167783498764,-2.2324070930481,-1.34634697437286
0,0.541666667496514,-0.340277782039389,0.797222239152834,-1.73271930217743,-3.44069838523865,-0.914770722389221
0,0.418055581630046,-0.309722233543585,0.765277823085705,-1.90376150608063,-3.8713583946228,-0.387593984603882
0,0.400000011459671,-0.298611122789481,0.634722229179108,-2.61541962623596,-4.40617084503174,0.119118720293045
0,0.522222229754814,-0.318055560531181,0.462500024646461,-3.27576494216919,-3.72108554840088,0.494495421648026
0,0.719444488186035,-0.333333346935047,0.905555562927365,-2.1135938167572,-3.23911285400391,0.0809396430850029
0,0.815277785011279,-0.318055560531181,0.855555552377932,-1.74707460403442,-3.16122770309448,-0.175318330526352
0,0.913888914226889,-0.394444468238583,0.775000017644626,-1.70095431804657,-2.33197808265686,-0.509156167507172
0,0.884722281926269,-0.449999997697174,0.46527780841297,-2.21285939216614,-1.98500657081604,-0.58062744140625
0,0.847222298326124,-0.498611116363352,0.284722228268869,-2.24034833908081,-1.33382427692413,-0.415388375520706
0,0.804166698569104,-0.509722251429385,0.316666668647927,-1.80449593067169,-0.667064845561981,-0.259006857872009
0,0.930555616825939,-0.604166704995233,0.387500008822313,-1.3356568813324,-0.828333258628845,-0.365602850914002
0,0.930555616825939,-0.629166710269949,0.202777789496344,-1.46485483646393,-0.993572294712067,-0.252287358045578
0,0.933333400592447,-0.625000034620187,0.184722231481934,-1.16980695724487,-0.647517144680023,-0.12705996632576
0,0.936111184358955,-0.622222250853679,0.154166670830166,-1.10413897037506,-1.02839159965515,-0.392480909824371
0,1.02222228662528,-0.606944488761742,0.216666671860991,-0.853378772735596,-1.05282628536224,-0.712268888950348
0,1.07500008094122,-0.647222256128395,0.240277785252453,-0.415693789720535,-0.424551337957382,-1.11941051483154
0,0.976388951725609,-0.613888899554154,0.202777789496344,-0.04764748737216,-0.406225383281708,-1.10688781738281
0,0.99583334084345,-0.626388926503441,0.118055554801345,-0.103236228227615,-0.748004496097565,-1.29533970355988
0,0.865277795560711,-0.49444444071359,0.111111119697004,-0.558941721916199,-1.43400621414185,-1.0345002412796
0,0.587500002396184,-0.375000006184955,0.331944455051793,-0.111482910811901,-3.37747383117676,0.116980694234371
0,0.85138887672817,-0.344444457689151,0.115277783190802,-0.327729195356369,-3.35487198829651,0.173485726118088
0,0.85138887672817,-0.344444457689151,0.115277783190802,-0.204639852046967,-2.61114358901977,0.192117124795914
0,0.909722238577127,-0.519444445988306,-0.0750000036681839,-0.102319926023483,-2.28341436386108,-0.00824668072164059
0,0.834722271376837,-0.376388898068209,-0.168055565350778,-0.256257981061935,-1.25257921218872,-0.0247400421649218
0,0.908333346693873,-0.311111125426839,-0.0722222259796579,-0.586430609226227,-1.27548658847809,-0.0980438739061356
0,0.837500055143345,-0.363888895430851,0.026388891079988,-0.646295428276062,-1.93216681480408,-0.197920337319374
0,0.933333400592447,-0.416666689746791,-0.163888889701015,-0.587957799434662,-1.66460776329041,-0.566272079944611
0,0.888888957576031,-0.325000019947452,-0.176388892338373,-0.304210901260376,-0.822835505008698,-0.80939644575119
0,0.911111130460381,-0.226388890731841,-0.197222234119292,-0.347582310438156,-1.01464712619781,-1.30541908740997
0,1.00416669214298,-0.447222262554524,-0.325000019947452,-0.387288570404053,-0.830471277236938,-2.37443327903748
0,0.945833330294018,-0.470833327322128,-0.287500012035377,-0.489608496427536,-0.404392778873444,-1.99661302566528
0,0.962500032893068,-0.380555573717971,-0.25555557165632,-0.0723875313997269,-0.56657749414444,-1.15728425979614
0,1.03888889197661,-0.256944463539574,-0.320833344297689,0.0226020142436027,-0.632856369018555,-0.874148190021515
0,0.904166671044111,-0.25555557165632,-0.272222225631511,0.266031801700592,-0.318260788917542,-0.270307868719101
0,0.837500055143345,-0.295833339022973,-0.281944444502361,-0.0775798857212067,-0.388204872608185,-0.294437050819397
0,0.837500055143345,-0.413888905980283,-0.306944449777077,-0.682336449623108,-0.186619326472282,-0.261144906282425
0,0.823611136310804,-0.326388911830706,-0.301388906555989,-0.912632703781128,-0.058643065392971,-0.349720358848572
0,0.886111173809523,-0.0972222251763917,-0.268055574293678,-0.601396858692169,0.16951510310173,-0.156381502747536
0,1.00555558402623,-0.130555557438704,-0.327777779402031,-0.42852196097374,0.248927593231201,-0.164628177881241
0,1.0361111082101,-0.254166679773066,-0.355555568443255,-0.442877292633057,0.28557950258255,-0.144164204597473
0,1.01527782720901,-0.14722222356986,-0.318055560531181,-0.3378084897995,0.142942473292351,-0.0842994004487991
0,0.930555616825939,-0.106944444047242,-0.320833344297689,-0.076052725315094,0.231823354959488,0.08460483700037
0,0.858333336144441,-0.204166669223633,-0.343055565805897,-0.120645888149738,-0.365908294916153,0.0415388382971287
0,0.858333336144441,-0.204166669223633,-0.343055565805897,-0.294437050819397,0.0522289797663689,-0.462730437517166
0,1.04861113515939,-0.261111114877407,-0.370833354847121,-0.528398454189301,0.198531210422516,-0.255952537059784
0,0.983333411141879,-0.150000007336368,-0.33750002258481,-0.573907911777496,0.395840674638748,-0.294131606817245
0,0.983333411141879,-0.150000007336368,-0.33750002258481,-0.39064833521843,0.603229403495789,-0.864374339580536
0,0.71111113688651,-0.14722222356986,-0.351388892793493,-0.335059583187103,0.145080491900444,-1.20432078838348
0,1.0361111082101,-0.20972223675665,-0.216666671860991,0.0632245540618896,-0.419053554534912,0.426994800567627
0,1.0361111082101,-0.20972223675665,-0.216666671860991,0.299323976039886,-0.0729983970522881,-0.1795943826437
0,1.0361111082101,-0.20972223675665,-0.216666671860991,0.57574051618576,-0.423024177551269,-0.317649930715561
0,0.895833319744586,-0.14722222356986,-0.368055571080613,0.923322796821594,-0.194560587406159,-0.184481307864189
0,0.769444450111609,-0.195833342236038,-0.33750002258481,0.595899045467377,0.0293215326964855,-0.271835029125214
0,0.827777811960566,-0.158333334323963,-0.308333341660331,-0.00549778714776039,0.238848313689232,-0.282219737768173
0,0.904166671044111,-0.120833338567854,-0.380555573717971,0.355218142271042,-0.603840291500092,0.0537561401724815
0,1.01527782720901,-0.0486111125881959,-0.373611114301701,0.599564254283905,-0.74647730588913,0.588263213634491
0,0.93750007624221,-0.150000007336368,-0.344444457689151,0.478612929582596,-0.0925460830330849,1.00945484638214
0,0.938888968125464,-0.188888894975731,-0.294444447139719,-0.293826192617416,-0.0555887371301651,0.388204872608185
0,0.963888924776322,-0.161111118090472,-0.29166668768514,-0.16920967400074,0.16401731967926,0.858571112155914
0,1.02916674604155,-0.259722222994153,-0.344444457689151,-0.226631000638008,0.556803643703461,0.688750565052032
0,1.18333335609189,-0.184722231481934,-0.411111122213775,-0.329256355762482,0.690888583660126,0.441044718027115
0,1.18333335609189,-0.184722231481934,-0.411111122213775,-0.187535628676414,0.999375522136688,0.122173048555851
0,1.00972225967599,-0.272222225631511,-0.325000019947452,-0.275194793939591,0.904691457748413,0.127976268529892
0,1.00972225967599,-0.272222225631511,-0.325000019947452,-0.298407673835754,0.682031035423279,0.0739146918058395
0,1.02361117850853,-0.312500017310094,-0.298611122789481,-0.107206851243973,0.513737678527832,-0.0445931628346443
0,0.96666670854283,-0.233333350148112,-0.252777787889811,0.261450320482254,0.670119166374207,0.113926365971565
0,0.96666670854283,-0.233333350148112,-0.252777787889811,0.508850753307343,0.847575545310974,0.0891863256692886
0,0.96666670854283,-0.233333350148112,-0.252777787889811,0.471893399953842,0.965472519397736,0.0733038261532784
0,0.973611167959101,-0.2194444556275,-0.275000009398019,0.214719131588936,0.685085356235504,-0.0452040284872055
0,0.969444492309338,-0.240277785252453,-0.243055569018962,-0.0021380283869803,0.284357786178589,-0.0259617734700441
0,0.969444492309338,-0.240277785252453,-0.243055569018962,-0.222660377621651,-0.146302223205566,0.0427605658769607
0,1.01805561097552,-0.233333350148112,-0.184722231481934,-0.161268427968025,-0.366519153118133,0.120340451598167
0,1.04861113515939,-0.218055563744246,-0.230555566381603,-0.0537561401724815,-0.6139195561409,0.38117989897728
0,1.04861113515939,-0.218055563744246,-0.230555566381603,-0.0794124826788902,-0.500298619270325,0.521678924560547
0,1.04861113515939,-0.218055563744246,-0.230555566381603,-0.00397062394768,-0.161879286170006,0.79381936788559
0,1.04861113515939,-0.218055563744246,-0.230555566381603,0.408974289894104,0.246484130620956,0.802371501922607
0,1.11111117265811,-0.154166670830166,-0.231944458264858,0.44959682226181,0.287106662988663,0.0675006061792374
0,1.11111117265811,-0.154166670830166,-0.231944458264858,0.448680520057678,0.277943700551987,-0.119424156844616
0,1.02916674604155,-0.263888898643915,-0.302777798439244,0.122478485107422,0.282219737768173,-0.155465200543404
0,0.888888957576031,-0.275000009398019,-0.223611131277262,-0.29596421122551,0.313068449497223,-0.115453533828259
0,0.888888957576031,-0.275000009398019,-0.223611131277262,-0.419053554534912,0.467617332935333,-0.141720741987228
0,0.952777789710289,-0.226388890731841,-0.251388896006557,-0.463341295719147,0.45509460568428,-0.0842994004487991
0,0.993055557076942,-0.222222239394008,-0.250000004123303,-0.382707089185715,0.492051959037781,0.00671951752156019
0,0.993055557076942,-0.222222239394008,-0.250000004123303,-0.0339030213654041,0.832914769649506,0.166460782289505
0,1.00138890837647,-0.259722222994153,-0.134722233088466,0.335670441389084,0.878424227237701,0.373544096946716
0,0.444444478788016,-0.233333350148112,0.03194444645704,1.12429749965668,0.0256563406437635,2.17590188980102
0,0.848611190209378,-0.287500012035377,-0.152777778946911,0.626136898994446,-0.562606871128082,2.0891592502594
0,0.848611190209378,-0.287500012035377,-0.152777778946911,-0.0458148941397667,-1.26174211502075,1.71469879150391
0,1.00972225967599,-0.311111125426839,-0.233333350148112,-0.00946841109544039,-1.27945721149445,1.76509511470795
0,1.12499999424293,-0.451388889580428,-0.180555567988136,-0.187535628676414,-0.0766635909676552,0.931264042854309
0,1.12638888612619,-0.506944467662877,-0.243055569018962,-0.265115529298782,-0.0555887371301651,0.332310706377029
0,1.12638888612619,-0.506944467662877,-0.243055569018962,-0.300851136445999,0.0537561401724815,-0.187535628676414
0,0.963888924776322,-0.512500035195893,-0.234722242031366,0.256868839263916,0.30695977807045,-0.261755764484406
0,0.904166671044111,-0.459722240879953,-0.200000005729836,0.128281697630882,0.264504641294479,-0.191200822591782
0,0.904166671044111,-0.459722240879953,-0.200000005729836,0.101709060370922,0.0308486949652433,-0.122783914208412
0,0.908333346693873,-0.409722230330521,-0.150000007336368,-0.0873537287116051,-0.494495421648026,-0.037568211555481
0,0.926388941176177,-0.370833354847121,-0.161111118090472,-0.149356558918953,-0.628274917602539,-0.0412334054708481
0,0.94305554652751,-0.449999997697174,-0.250000004123303,0.251065611839294,0.0589484944939613,-0.142942473292351
0,0.94305554652751,-0.449999997697174,-0.250000004123303,0.664926826953888,0.818559408187866,-0.483194410800934
0,0.884722281926269,-0.437500019371745,-0.238888893369199,0.982271313667297,0.857349395751953,-0.556498229503632
0,0.816666676894533,-0.323611128064198,-0.20972223675665,0.138360977172852,0.483805269002914,-0.733038306236267
0,0.893055633225794,-0.329166671285285,-0.120833338567854,-0.156381502747536,0.00671951752156019,-0.598342478275299
0,0.893055633225794,-0.329166671285285,-0.120833338567854,-0.323758572340012,-0.0736092627048492,-0.405003666877747
0,0.893055633225794,-0.329166671285285,-0.120833338567854,-0.0720821022987366,0.288022965192795,-0.936456441879272
0,0.815277785011279,-0.384722225055805,-0.227777782615095,-0.000916297896765172,0.677754998207092,-1.33779489994049
0,1.05972227022542,-0.361111135976272,-0.20972223675665,-0.126449108123779,0.479223787784576,-0.655458390712738
0,1.05972227022542,-0.361111135976272,-0.20972223675665,-0.281914323568344,0.202807262539864,-0.884227454662323
0,0.947222222177272,-0.280555576931036,-0.122222230451108,-0.482583552598953,-0.0577267669141293,-0.866512358188629
0,0.906944454810619,-0.330555563168539,-0.161111118090472,-0.271835029125214,-0.0311541277915239,-1.18752205371857
0,0.933333400592447,-0.279166685047782,-0.106944444047242,-0.127670839428902,-0.270918726921081,-1.43736588954925
0,0.933333400592447,-0.279166685047782,-0.106944444047242,0.01191187184304,-0.353385537862778,-0.834136486053467
0,1.04305556762637,-0.193055558469529,-0.111111119697004,0.211664810776711,-0.229685336351395,-0.215635433793068
0,1.02222228662528,-0.216666671860991,-0.162500009973726,0.398894995450974,-0.0729983970522881,0.0189368221908808
0,1.02222228662528,-0.216666671860991,-0.162500009973726,0.554054796695709,0.25870144367218,-0.0565050356090069
0,0.938888968125464,-0.252777787889811,-0.18333333959868,0.483805269002914,0.0791070461273193,0.0247400421649218
0,0.936111184358955,-0.2194444556275,-0.18333333959868,0.27000242471695,0.197309479117393,0.150883719325066
0,1.06388894587519,-0.18333333959868,-0.197222234119292,-0.0491746515035629,0.021685715764761,0.234572261571884
0,1.06388894587519,-0.18333333959868,-0.197222234119292,0.0531452745199203,0.314290165901184,0.294131606817245
0,1.07222229717471,-0.252777787889811,-0.161111118090472,0.0403171069920063,0.335670441389084,0.40775254368782
0,1.06527783775844,-0.325000019947452,-0.200000005729836,0.248927593231201,0.686612546443939,0.399200439453125
0,1.01111115155925,-0.243055569018962,-0.156944454596674,0.109955742955208,0.728456795215607,0.36041048169136
0,0.899999995394348,-0.237500001485945,-0.0875000002275597,0.0794124826788902,0.504574716091156,0.166155353188515
0,0.899999995394348,-0.237500001485945,-0.0875000002275597,-0.0302378293126821,0.556803643703461,0.319482535123825
0,1.00277780025972,-0.275000009398019,-0.0638888929140799,0.0369573459029198,0.35430184006691,0.186008468270302
0,1.00277780025972,-0.275000009398019,-0.0638888929140799,-0.0384845100343227,0.0021380283869803,0.0445931628346443
0,0.990277773310434,-0.277777793164528,-0.027777779924251,-0.0720821022987366,-0.171347707509995,0.0430659987032413
0,0.990277773310434,-0.277777793164528,-0.027777779924251,0.0928515195846558,-0.117591559886932,-0.00580321997404099
0,1.05555559457566,-0.320833344297689,-0.144444451959316,0.27000242471695,0.248011291027069,-0.118813291192055
0,0.981944519258625,-0.258333331110899,-0.0958333393711199,0.382401645183563,0.498160600662232,-0.171653136610985
0,0.981944519258625,-0.258333331110899,-0.0958333393711199,0.135306656360626,0.165849909186363,-0.0784961804747581
0,0.99583334084345,-0.281944444502361,-0.0388888906783549,0.0430659987032413,-0.00519235478714108,-0.0485637858510017
0,0.99583334084345,-0.281944444502361,-0.0388888906783549,0.0445931628346443,-0.0210748501121998,-0.0638354197144508
0,0.976388951725609,-0.272222225631511,-0.0680555564078778,0.0745255574584007,0.0952949747443199,-0.0833831056952477
0,1.00972225967599,-0.283333336385615,-0.0680555564078778,0.0464257597923279,0.000305432622553781,-0.185703039169311
0,1.00972225967599,-0.283333336385615,-0.0680555564078778,0.118813291192055,0.0620028227567673,-0.353080123662949
0,0.987499989543926,-0.286111120152123,-0.0180555564949145,0.137139245867729,-0.11117747426033,-0.529009282588959
0,0.987499989543926,-0.286111120152123,-0.0180555564949145,0.0839939713478088,-0.119729585945606,-0.599869668483734
0,0.987499989543926,-0.286111120152123,-0.0180555564949145,-0.0335975885391235,0.0980438739061356,-0.462730437517166
0,0.956944465360051,-0.262500006760661,-0.0458333348996699,-0.0421497002243996,0.0409279726445675,-0.312763005495071
0,1.04166667574312,-0.212499996211229,-0.0611111152255539,0.144469633698463,0.0525344125926495,-0.272445887327194
0,1.05000002704265,-0.223611131277262,-0.0388888906783549,0.15851953625679,-0.157603234052658,-0.244040668010712
0,1.01666671909226,-0.205555561106887,-0.0388888906783549,0.0558941699564457,-0.305127203464508,-0.280998021364212
0,1.00833336779274,-0.197222234119292,-0.0625000010308258,0.0201585534960032,-0.220522359013557,-0.297796815633774
0,1.02500007039179,-0.200000005729836,-0.0916666697993398,0.0943786799907684,0.0427605658769607,-0.287106662988663
0,1.05416670269241,-0.205555561106887,-0.0861111144222878,0.015577063895762,0.103541657328606,-0.164628177881241
0,1.05833337834217,-0.193055558469529,-0.0972222251763917,-0.0357356183230877,0.182037845253944,-0.0241291765123606
0,1.04305556762637,-0.197222234119292,-0.0430555572111439,0.0949895456433296,0.0232128798961639,0.0800233483314514
0,1.05555559457566,-0.195833342236038,-0.0652777787193518,0.113926365971565,-0.0424551330506802,0.118507854640484
0,1.05555559457566,-0.205555561106887,-0.0694444482911319,0.0308486949652433,-0.00610865233466029,0.122783914208412
0,1.01527782720901,-0.215277779977737,-0.0638888929140799,-0.0558941699564457,0.0397062413394451,0.136833816766739
0,0.997222232726705,-0.212499996211229,-0.0708333340964038,-0.0436768643558025,0.191506251692772,0.123394779860973
0,0.980555627375371,-0.204166669223633,-0.0625000010308258,-0.00702495034784079,0.235488548874855,0.0839939713478088
0,0.96666670854283,-0.20972223675665,-0.03194444645704,0.0403171069920063,0.0894917547702789,0.0183259565383196
0,0.994444448960196,-0.20972223675665,-0.029166668768514,-0.019547687843442,-0.0109955742955208,0.0219911485910416
0,1.00277780025972,-0.212499996211229,-0.0486111125881959,-0.0601702257990837,-0.0635299831628799,0.0552833043038845
0,0.997222232726705,-0.2194444556275,-0.0513888902767219,-0.0436768643558025,-0.0143553335219622,0.00610865233466029
0,1.00555558402623,-0.222222239394008,-0.0569444456537738,-0.0641408488154411,0.019547687843442,0.0161879286170006
0,1.00555558402623,-0.222222239394008,-0.0638888929140799,-0.0467311926186085,0.0525344125926495,0.0558941699564457
0,1.00694447590948,-0.216666671860991,-0.0486111125881959,-0.0167987942695618,-0.00244346098043024,0.0675006061792374
0,1.00277780025972,-0.215277779977737,-0.0486111125881959,0.0186313893646002,-0.00671951752156019,0.0470366254448891
0,1.00694447590948,-0.213888888094483,-0.0472222237439329,0.0164933614432812,-0.00610865233466029,0.0348193198442459
0,1.01388893532575,-0.224999998848587,-0.0666666706026059,-0.0207694191485643,0.0183259565383196,0.0369573459029198
0,1.02222228662528,-0.229166674498349,-0.0486111125881959,0.00763581553474069,0.0397062413394451,0.0201585534960032
0,1.02222228662528,-0.229166674498349,-0.0486111125881959,0.0207694191485643,0.0714712366461754,0.0244346093386412
0,1.03888889197661,-0.223611131277262,-0.0680555564078778,0.0366519130766392,0.153632611036301,0.0280998013913631
0,1.0333333244436,-0.2194444556275,-0.0777777813567098,0.0815505087375641,0.411723166704178,0.0357356183230877
0,1.0361111082101,-0.220833347510754,-0.0777777813567098,0.0748309940099716,0.558636248111725,0.0763581544160843
0,1.02916674604155,-0.213888888094483,-0.0541666679652478,0.0326812900602817,0.479223787784576,0.0943786799907684
0,1.0125000434425,-0.216666671860991,-0.0402777795226179,-0.249538451433182,1.05710232257843,0.0552833043038845
0,1.00000001649321,-0.227777782615095,0.138888896582264,0.17470745742321,0.248011291027069,0.0109955742955208
0,1.0125000434425,-0.226388890731841,-0.00277777787846293,0.159435823559761,0.440128415822983,-0.0452040284872055
0,0.986111194908388,-0.2194444556275,0.0166666676506515,0.131030589342117,0.242208063602448,-0.019547687843442
0,0.980555627375371,-0.2194444556275,0.00694444498106275,0.0467311926186085,-0.0146607663482428,0.0232128798961639
0,1.00000001649321,-0.2194444556275,0.0180555564949145,-0.00916297826915979,-0.136528387665749,0.0201585534960032
0,1.00277780025972,-0.224999998848587,-0.00277777787846293,0.01191187184304,-0.0482583530247212,0.0201585534960032
0,1.00694447590948,-0.230555566381603,0.00277777787846293,0.0867428630590439,0.110566608607769,0.00610865233466029
0,1.00694447590948,-0.226388890731841,0.00138888893923146,0.0259617734700441,0.05283984541893,0.0250454749912024
0,0.994444448960196,-0.211111128639904,0.0236111118719664,-0.00152716308366507,-0.0507018156349659,0.0320704244077206
0,0.994444448960196,-0.2194444556275,0.030555557612777,-0.0045814891345799,-0.112399205565453,0.02382374368608
0,0.99583334084345,-0.2194444556275,0.0222222230277034,-0.113926365971565,-0.210443079471588,0.01191187184304
0,1.0125000434425,-0.212499996211229,0.0152777788063885,-0.148134827613831,-0.270918726921081,0.00671951752156019
0,1.0361111082101,-0.163888889701015,-0.00972222266958873,-0.170736834406853,-0.258090555667877,0.150578290224075
0,0.886111173809523,-0.259722222994153,-0.0236111118719664,-0.183565005660057,-0.218689754605293,0.192727982997894
0,0.947222222177272,-0.243055569018962,0.00833333382532574,-0.111788339912891,-0.0525344125926495,0.177761793136597
0,0.977777843608863,-0.202777789496344,-0.00277777787846293,-0.0858265683054924,-0.133474051952362,0.0534507073462009
0,1.04583335139288,-0.275000009398019,-0.026388891079988,-0.0345138870179653,-0.0836885422468185,0.0284052342176437
0,1.04583335139288,-0.263888898643915,-0.0375000018340919,-0.000305432622553781,0.0418442711234093,0.0189368221908808
0,1.04583335139288,-0.263888898643915,-0.0375000018340919,-0.100181899964809,-0.0873537287116051,0.0522289797663689
0,0.976388951725609,-0.229166674498349,-0.0125000003581147,-0.0873537287116051,-0.138055548071861,0.0766635909676552
0,0.986111194908388,-0.29166668768514,-0.0361111129898289,0.0284052342176437,0.125227376818657,-0.152105450630188
0,0.986111194908388,-0.29166668768514,-0.0361111129898289,0.156076073646545,0.115148097276688,-0.0824668109416962
0,0.987499989543926,-0.20138889761309,-0.029166668768514,-0.115758962929249,-0.0699440687894821,-0.00580321997404099
0,1.01944450285877,-0.254166679773066,-0.0236111118719664,0.0665843114256859,0.0192422550171614,-0.0342084541916847
0,1.01944450285877,-0.254166679773066,-0.0236111118719664,0.0751364231109619,0.0161879286170006,-0.0290160998702049
0,0.99583334084345,-0.238888893369199,-0.00833333382532574,0.0901026204228401,0.0641408488154411,-0.0100792767480016
0,0.99583334084345,-0.238888893369199,-0.00833333382532574,0.0830776765942574,-0.0302378293126821,0.000610865245107561
0,0.98888888142718,-0.226388890731841,-0.0125000003581147,0.0445931628346443,-0.0442877300083637,0.0265726372599602
0,1.00277780025972,-0.226388890731841,-0.0208333341834404,0.00549778714776039,-0.0723875313997269,0.0198531206697226
0,1.00277780025972,-0.230555566381603,-0.0361111129898289,-0.0494800843298435,-0.0812450796365738,0.0250454749912024
0,1.01666671909226,-0.241666677135707,-0.027777779924251,-0.0183259565383196,-0.0164933614432812,-0.013744467869401
0,1.03750000009336,-0.252777787889811,-0.0111111115138517,0.0980438739061356,0.070249505341053,-0.0409279726445675
0,1.02916674604155,-0.25555557165632,-0.0125000003581147,0.0491746515035629,0.383928805589676,-0.0262672062963247
0,0.979166735492117,-0.244444460902216,-0.0680555564078778,-0.00152716308366507,0.192727982997894,0.0134390350431204
0,0.970833384192592,-0.213888888094483,0.00972222266958873,0.0516181141138077,0.105068825185299,0.0601702257990837
0,0.976388951725609,-0.241666677135707,0.0138888899621255,0.0433714315295219,-0.414166629314423,0.0100792767480016
0,1.00833336779274,-0.233333350148112,0.027777779924251,-0.0620028227567673,-0.281608879566193,0.0164933614432812
0,1.1083333888916,-0.227777782615095,-0.120833338567854,0.00488692196086049,0.120035022497177,-0.0616973899304867
0,0.970833384192592,-0.248611112240049,0.163888889701015,-0.168293371796608,-0.73517632484436,-0.0171042270958424
0,0.981944519258625,-0.248611112240049,-0.0513888902767219,-0.0366519130766392,-0.202501833438873,-0.0415388382971287
0,0.92083337364316,-0.220833347510754,0.0847222225390337,0.0986547395586967,-1.14048540592194,-0.0534507073462009
0,0.975000059842355,-0.241666677135707,0.033333335301303,0.120645888149738,-1.38880217075348,-0.0806342139840126
0,1.04027778385987,-0.248611112240049,-0.170833336961321,0.0937678143382072,-0.530841886997223,-0.0616973899304867
0,1.07083340529146,-0.25555557165632,-0.156944454596674,0.0699440687894821,-0.42363503575325,-0.0418442711234093
0,0.986111194908388,-0.215277779977737,-0.0861111144222878,0.0442877300083637,-0.570242702960968,-0.108123145997524
0,1.00138890837647,-0.226388890731841,-0.0500000014324589,0.00122173049021512,-0.870177567005157,-0.0662788823246956
0,0.998611124609959,-0.233333350148112,-0.10972222781375,0.119118720293045,-0.662483334541321,-0.0659734457731247
0,0.987499989543926,-0.233333350148112,-0.105555564319952,0.103847093880177,-0.782212972640991,-0.0277943685650826
0,0.99583334084345,-0.236111109602691,-0.10972222781375,0.0656680166721344,-0.772439122200012,-0.0232128798961639
0,1.02500007039179,-0.236111109602691,-0.179166676104882,0.110261179506779,-0.524733245372772,-0.0290160998702049
0,1.02916674604155,-0.241666677135707,-0.194444450352783,0.0830776765942574,-0.467311918735504,-0.0378736443817616
0,1.00833336779274,-0.212499996211229,-0.200000005729836,0.00671951752156019,-0.392786353826523,-0.0265726372599602
0,0.959722249126559,-0.20972223675665,-0.238888893369199,0.05283984541893,0.00702495034784079,-0.0339030213654041
0,0.95000000594378,-0.233333350148112,-0.17361112072783,0.0546724386513233,0.141720741987228,0.0210748501121998
0,0.911111130460381,-0.301388906555989,-0.13750000469901,0.011606439948082,-0.131336033344269,-0.0280998013913631
0,0.976388951725609,-0.230555566381603,-0.202777789496344,-0.0555887371301651,-0.0916297882795334,0.04764748737216
0,1.01805561097552,-0.200000005729836,-0.233333350148112,0.0280998013913631,0.0592539273202419,0.0192422550171614
0,1.02500007039179,-0.198611113846581,-0.234722242031366,0.0128281703218818,0.136222943663597,0.0797179117798805
0,0.99583334084345,-0.20138889761309,-0.197222234119292,-0.0259617734700441,0.0849102661013603,0.0943786799907684
0,0.987499989543926,-0.252777787889811,-0.175000000455119,0.0403171069920063,0.236710280179977,0.0461203269660473
0,0.962500032893068,-0.241666677135707,-0.158333334323963,0.0406225398182869,0.0867428630590439,-0.0171042270958424
0,0.976388951725609,-0.236111109602691,-0.154166670830166,0.015577063895762,-0.108428582549095,-0.0415388382971287
0,0.993055557076942,-0.204166669223633,-0.202777789496344,0.127670839428902,0.0690277740359306,0.134695783257484
0,0.968055600426084,-0.190277786858986,-0.205555561106887,0.0552833043038845,-0.0222965814173222,0.140499010682106
0,1.0125000434425,-0.229166674498349,-0.198611113846581,0.0164933614432812,-0.151494577527046,0.129503428936005
0,1.03194452980806,-0.24583335278547,-0.213888888094483,0.0329867228865623,0.0271835029125214,0.119729585945606
0,1.04861113515939,-0.252777787889811,-0.212499996211229,-0.0558941699564457,-0.0351247526705265,0.107512280344963
0,1.01666671909226,-0.24583335278547,-0.226388890731841,-0.0684169083833694,0.240986332297325,0.0754418596625328
0,0.973611167959101,-0.244444460902216,-0.18333333959868,-0.110261179506779,0.193338856101036,0.0311541277915239
0,0.98888888142718,-0.280555576931036,-0.17361112072783,0.00152716308366507,0.229074463248253,-0.00549778714776039
0,0.98888888142718,-0.276388901281273,-0.159722226207217,0.0149661982432008,0.22754730284214,-0.0507018156349659
0,0.956944465360051,-0.276388901281273,-0.298611122789481,0.0271835029125214,0.479834645986557,-0.124005645513535
0,0.979166735492117,-0.220833347510754,-0.20138889761309,-0.112704634666443,-0.0671951770782471,-0.0253509078174829
0,1.02222228662528,-0.226388890731841,-0.170833336961321,-0.184481307864189,-0.0354301854968071,0.0455094613134861
0,0.973611167959101,-0.190277786858986,-0.180555567988136,-0.182954147458077,-0.000305432622553781,0.0769690200686455
0,0.973611167959101,-0.190277786858986,-0.180555567988136,-0.165544480085373,-0.0232128798961639,0.109650313854218
0,0.987499989543926,-0.251388896006557,-0.154166670830166,-0.107512280344963,-0.013744467869401,0.131030589342117
0,0.984722303025134,-0.252777787889811,-0.17361112072783,-0.101709060370922,0.161268427968025,0.128587126731873
0,1.00277780025972,-0.241666677135707,-0.188888894975731,-0.0797179117798805,0.234877690672875,0.173791155219078
0,1.00277780025972,-0.261111114877407,-0.156944454596674,-0.0714712366461754,0.162184715270996,0.13225232064724
0,1.01527782720901,-0.259722222994153,-0.166666673467524,-0.0797179117798805,0.081855945289135,0.176540061831474
0,1.01944450285877,-0.25555557165632,-0.180555567988136,-0.0589484944939613,0.133168622851372,0.229685336351395
0,0.98888888142718,-0.268055574293678,-0.156944454596674,0.0345138870179653,0.142026171088219,0.13744467496872
0,1.00833336779274,-0.259722222994153,-0.176388892338373,-0.109039448201656,0.126143679022789,0.132863193750381
0,1.05833337834217,-0.216666671860991,-0.15555556271342,-0.123700208961964,0.0491746515035629,-0.104763388633728
0,1.16388896697405,-0.24583335278547,-0.19166667874224,0.00397062394768,-0.0106901414692402,-0.372933238744736
0,1.10277782135859,-0.224999998848587,-0.180555567988136,-0.090408056974411,0.275805652141571,-0.115453533828259
0,1.03194452980806,-0.158333334323963,-0.0916666697993398,-0.0675006061792374,0.178067222237587,0.456010907888412
0,1.06250005399193,-0.243055569018962,-0.122222230451108,0.090408056974411,0.100181899964809,1.02533733844757
0,1.13333334554246,-0.290277795801886,-0.236111109602691,-0.0513126812875271,0.276416510343552,0.421802461147308
0,1.01111115155925,-0.327777779402031,-0.215277779977737,-0.0549778714776039,0.696080923080444,-0.255647093057633
0,1.01111115155925,-0.29166668768514,-0.133333341205212,-0.00824668072164059,0.462730437517166,-0.425162196159363
0,0.962500032893068,-0.29166668768514,-0.0972222251763917,-0.0623082555830479,0.323147714138031,-0.906524002552032
0,1.03888889197661,-0.275000009398019,-0.104166672436698,-0.0742201283574104,0.323453158140182,-0.89461213350296
0,1.03888889197661,-0.275000009398019,-0.104166672436698,-0.652098655700684,1.08734011650085,-0.364075690507889
0,1.36944447945708,-0.187500003092477,-0.211111128639904,-1.24463796615601,1.34054374694824,-0.516486585140228
0,1.36944447945708,-0.187500003092477,-0.211111128639904,-0.438295811414719,1.44836151599884,-1.28587138652801
0,1.39027785770589,-0.0916666697993398,0.00972222266958873,-0.594677329063416,2.12642192840576,-2.2290472984314
0,1.08194444310977,-0.0916666697993398,0.100000002864918,-0.272445887327194,2.56044173240662,-2.15757608413696
0,0.755555579902926,-0.16527778158427,0.18333333959868,0.236404851078987,2.08702111244202,-1.28526043891907
0,0.488888921804431,-0.306944449777077,0.0652777787193518,0.0497855171561241,2.38603973388672,-0.0531452745199203
0,0.536111148587356,-0.258333331110899,-0.0194444453391775,0.431881725788117,1.26876711845398,0.475253164768219
0,0.697222266677827,-0.141666668192807,-0.0472222237439329,0.246789559721947,0.403171062469482,0.313984721899033
0,0.78333336894415,-0.0611111152255539,0.00277777787846293,-0.000610865245107561,0.971581161022186,0.0671951770782471
0,0.858333336144441,-0.033333335301303,0.17361112072783,0.0253509078174829,2.138028383255,-0.0513126812875271
0,0.938888968125464,-0.0708333340964038,0.194444450352783,0.108428582549095,2.51768112182617,-0.107512280344963
0,0.984722303025134,-0.0777777813567098,0.0638888929140799,0.0901026204228401,0.893390417098999,-0.167071640491486
0,0.968055600426084,-0.0902777839940679,0.0250000007162294,-0.152716308832169,-0.0601702257990837,-0.204945296049118
0,0.923611157409668,-0.105555564319952,0.176388892338373,-0.193644285202026,0.351247519254685,-0.0632245540618896
0,0.904166671044111,-0.108333335930496,0.348611133338914,-0.180510684847832,1.22050881385803,0.0956004112958908
0,0.919444481759906,-0.0930555616825939,0.4194444735133,-0.163406446576118,2.03265404701233,0.169820532202721
0,0.977777843608863,-0.0847222225390337,0.424999992422458,-0.0907134860754013,2.16276836395264,0.102319926023483
0,1.00277780025972,-0.0625000010308258,0.361111135976272,-0.0699440687894821,1.74371480941773,0.0235183127224445
0,1.00555558402623,-0.0541666679652478,0.327777779402031,-0.0109955742955208,1.07298481464386,-0.0833831056952477
0,0.970833384192592,-0.0777777813567098,0.312500017310094,-0.124005645513535,0.51434850692749,-0.0879645943641663
0,0.925000049292922,-0.0930555616825939,0.375000006184955,-0.270613312721252,0.302378296852112,-0.0390953756868839
0,0.887500065692777,-0.0875000002275597,0.488888921804431,-0.126143679022789,0.615141272544861,0.081855945289135
0,0.906944454810619,-0.104166672436698,0.527777797287831,0.0668897479772568,0.848491847515106,0.123394779860973
0,0.890277849459286,-0.102777780553444,0.505555575779623,-0.205861583352089,1.14476144313812,0.0638354197144508
0,0.865277795560711,-0.104166672436698,0.522222229754814,-0.233655959367752,0.940121591091156,0.123089343309402
0,0.854166660494678,-0.0888888921108138,0.629166710269949,-0.10567969083786,1.03602743148804,0.236099421977997
0,0.884722281926269,-0.0611111152255539,0.70416667747024,0.106901414692402,1.60474300384522,0.18509216606617
0,0.884722281926269,-0.0611111152255539,0.670833369519857,0.160046696662903,1.96942949295044,-0.037568211555481
0,0.838888947026599,-0.0986111170596459,0.611111115787646,0.0183259565383196,1.99508583545685,-0.0445931628346443
0,0.809722266102121,-0.0861111144222878,0.590277786162692,0.0271835029125214,2.02440738677979,0.03176499158144
0,0.808333374218867,-0.055555559848502,0.558333370095563,0.138971850275993,1.56442594528198,-0.021685715764761
0,0.781944477060896,-0.0625000010308258,0.519444445988306,0.102930791676045,0.927598893642426,-0.145691365003586
0,0.73055557462821,-0.0888888921108138,0.538888932353864,-0.0745255574584007,0.731816589832306,-0.123089343309402
0,0.687500023495048,-0.108333335930496,0.604166704995233,-0.105374254286289,0.619417369365692,0.0103847095742822
0,0.706944461236748,-0.104166672436698,0.63888890482887,0.101709060370922,0.364075690507889,0.255341678857803
0,0.744444493460751,-0.0652777787193518,0.604166704995233,0.252287358045578,0.123089343309402,0.239153742790222
0,0.772222233878117,-0.0847222225390337,0.529166689171085,0.0754418596625328,0.0604756586253643,-0.01191187184304
0,0.727777790861702,-0.0805555590452358,0.775000017644626,0.0974330082535744,0.806953012943268,-0.118813291192055
0,0.715277812536273,-0.0722222259796579,0.819444460661041,0.34880405664444,1.09650313854218,-0.123089343309402
0,0.708333353120002,-0.0430555572111439,0.788888936477167,0.557414531707764,0.747088193893433,-0.189979091286659
0,0.719444488186035,-0.0722222259796579,0.71111113688651,0.526260435581207,0.3378084897995,0.0021380283869803
0,0.709722245003256,-0.0847222225390337,0.70416667747024,0.0363464802503586,0.551916778087616,0.00397062394768
0,0.698611158561081,-0.055555559848502,0.694444482911319,-0.16401731967926,0.398894995450974,-0.0598647929728031
0,0.693055591028065,-0.0416666683668809,0.736111142161226,-0.0946841165423393,0.0131336031481624,-0.0033597587607801
0,0.693055591028065,-0.0402777795226179,0.761111147435943,0.10567969083786,-0.343000829219818,0.0613919571042061
0,0.712500028769764,-0.0583333375370279,0.752777796136418,0.0959058403968811,-0.348193198442459,0.136222943663597
0,0.720833380069289,-0.0680555564078778,0.736111142161226,0.03176499158144,-0.461814135313034,0.211664810776711
0,0.738888925927735,-0.0541666679652478,0.702777785586986,-0.02382374368608,-0.768773913383484,0.205861583352089
0,0.762500039319197,-0.0402777795226179,0.738888925927735,0.0882700309157372,-0.599258780479431,0.11606439948082
0,0.761111147435943,-0.0402777795226179,0.741666709694243,0.15332718193531,-0.102014496922493,0.029626963660121
0,0.75000001236991,-0.0486111125881959,0.729166682744956,0.121867619454861,0.0595593601465225,-0.0754418596625328
0,0.736111142161226,-0.0611111152255539,0.747222228603401,-0.0855211317539215,0.583987176418304,-0.115453533828259
0,0.736111142161226,-0.0611111152255539,0.747222228603401,-0.0284052342176437,0.605978310108185,-0.186619326472282
0,0.698611158561081,-0.0750000036681839,0.741666709694243,-0.0482583530247212,0.275805652141571,-0.16401731967926
0,0.677777780312269,-0.0875000002275597,0.713888920653019,-0.037568211555481,-0.0256563406437635,-0.125532805919647
0,0.677777780312269,-0.0875000002275597,0.713888920653019,0.0287106670439243,-0.111788339912891,-0.0873537287116051
0,0.655555558804062,-0.0569444456537738,0.790277828360421,0.419969856739044,-0.109344877302647,-0.123394779860973
0,0.693055591028065,-0.03194444645704,0.788888936477167,0.554054796695709,-0.16401731967926,-0.164628177881241
0,0.693055591028065,-0.03194444645704,0.788888936477167,0.488692194223404,-0.32284227013588,-0.128892570734024
0,0.681944455962032,-0.0347222241455659,0.716666704419527,0.448680520057678,-0.513126790523529,0.0284052342176437
0,0.688888915378302,-0.0194444453391775,0.712500028769764,0.704327642917633,-0.934318363666534,0.0607810914516449
0,0.688888915378302,-0.0194444453391775,0.712500028769764,0.907745778560638,-1.01098203659058,-0.0167987942695618
0,0.715277812536273,-0.0250000007162294,0.690277807261557,0.775493443012238,-0.829554975032806,-0.190895393490791
0,0.716666704419527,-0.0458333348996699,0.620833358970425,0.400116741657257,-0.287717521190643,-0.1750128865242
0,0.741666709694243,0.0166666676506515,0.652777823661411,0.087659165263176,-0.0729983970522881,-0.0442877300083637
0,0.773611125761372,0.0500000014324589,0.655555558804062,-0.184786736965179,0.321620553731918,0.207999616861343
0,0.738888925927735,0.0944444474878658,0.676388937052873,-0.302378296852112,0.149051114916802,0.190895393490791
0,0.725000007095193,0.0250000007162294,0.768055606852213,-0.137139245867729,-0.22724187374115,0.133779495954514
0,0.740277817810989,0.0111111115138517,0.745833336720147,-0.25411993265152,-0.340251952409744,0.134695783257484
0,0.736111142161226,0.0152777788063885,0.720833380069289,-0.431270867586136,-0.0647517144680023,0.232128798961639
0,0.772222233878117,0.0152777788063885,0.702777785586986,-0.608421802520752,-0.119118720293045,0.299018532037735
0,0.762500039319197,-0.0222222230277034,0.747222228603401,-0.557109117507935,-0.596204459667206,0.267253547906876
0,0.761111147435943,-0.0486111125881959,0.725000007095193,-0.347276896238327,-0.99418318271637,0.140804439783096
0,0.780555585177642,-0.102777780553444,0.659722234453824,-0.328950941562653,-0.934012949466705,0.0494800843298435
0,0.775000017644626,-0.116666675074056,0.604166704995233,-0.268169850111008,-0.667981147766113,-0.070249505341053
0,0.794444455386325,-0.0972222251763917,0.561111153862072,-0.231212496757507,-0.127976268529892,-0.0708603709936142
0,0.809722266102121,-0.0569444456537738,0.545833343146276,-0.258090555667877,0.479223787784576,0.0259617734700441
0,0.795833347269579,-0.0458333348996699,0.600000029345471,-0.224492982029915,0.617279350757599,0.0650571510195732
0,0.784722260827405,-0.0513888902767219,0.668055585753349,-0.0928515195846558,0.280998021364212,-0.01588249579072
0,0.787500044593913,-0.0930555616825939,0.709722245003256,0.04764748737216,-0.305127203464508,-0.218995183706284
0,0.755555579902926,-0.0819444448505077,0.743055601577497,0.156686931848526,-1.1511754989624,-0.420275300741196
0,0.80277780668585,-0.0736111117849297,0.615277791437408,0.30757063627243,-0.890641510486603,-0.410806864500046
0,0.826388920077312,-0.055555559848502,0.538888932353864,0.278859972953796,-0.101403631269932,-0.311235845088959
0,0.786111152710659,-0.00972222266958873,0.541666667496514,-0.0357356183230877,0.361326783895493,-0.0635299831628799
0,0.772222233878117,-0.00972222266958873,0.626388926503441,-0.0723875313997269,0.120645888149738,0.0647517144680023
0,0.82916670384382,-0.0152777788063885,0.637500012945616,-0.0253509078174829,0.037568211555481,0.0629191175103188
0,0.841666730793107,-0.0375000018340919,0.604166704995233,-0.0626136884093285,0.232128798961639,0.0601702257990837
0,0.805555590452358,-0.0236111118719664,0.577777807837263,-0.161879286170006,0.590401232242584,0.142942473292351
0,0.788888936477167,-0.0152777788063885,0.573611132187501,-0.181426972150803,0.706771075725555,0.220522359013557
0,0.769444450111609,-0.0250000007162294,0.600000029345471,-0.182343274354935,0.837190806865692,0.262977480888367
0,0.775000017644626,-0.0250000007162294,0.616666683320662,-0.148745685815811,1.22264683246613,0.234266817569733
0,0.788888936477167,-0.0430555572111439,0.650000039894903,-0.0711658000946045,1.36803269386292,0.150578290224075
0,0.751388904253164,-0.0472222237439329,0.654166666920807,-0.0342084541916847,1.45813536643982,0.177150920033455
0,0.726388898978447,-0.13750000469901,0.525000013521323,-0.0607810914516449,3.08639669418335,-0.150883719325066
0,0.613888899554154,-0.156944454596674,0.736111142161226,-1.07634460926056,3.24491620063782,-0.473726004362106
0,0.519444445988306,-0.0583333375370279,0.975000059842355,-1.1578950881958,1.86466610431671,-0.802066087722778
0,0.558333370095563,-0.113888891307548,0.987499989543926,-0.979522407054901,0.452956587076187,-1.13834738731384
0,0.5930555699292,-0.100000002864918,0.923611157409668,-0.30757063627243,-0.715628623962402,-1.38544237613678
0,0.5930555699292,-0.100000002864918,0.923611157409668,0.138055548071861,-1.33107531070709,-1.5167783498764
0,0.58611111051293,-0.0750000036681839,0.854166660494678,0.175623759627342,-1.22692286968231,-1.52135992050171
0,0.673611153286365,-0.0472222237439329,0.772222233878117,-0.147829383611679,-0.487470477819443,-1.32282865047455
0,0.663888910103586,0.00416666691266287,0.700000001820477,-0.461508691310883,0.522595226764679,-1.15178644657135
0,0.630555602153203,0.0250000007162294,0.733333358394718,-0.615752160549164,0.929736912250519,-1.01189827919006
0,0.666666693870094,0.029166668768514,0.781944477060896,-0.461508691310883,0.875980734825134,-0.806342124938965
0,0.648611148011649,0.033333335301303,0.804166698569104,0.00610865233466029,0.466090172529221,-0.627664029598236
0,0.627777818386695,0.0361111129898289,0.816666676894533,0.193033412098885,0.431270867586136,-0.531452775001526
0,0.616666683320662,0.030555557612777,0.808333374218867,0.332616120576859,0.452345728874206,-0.392786353826523
0,0.636111121062362,0.0222222230277034,0.819444460661041,0.29046642780304,0.308181524276733,-0.0855211317539215
0,0.588888894279438,0.0222222230277034,0.775000017644626,0.0659734457731247,0.435241490602493,0.144469633698463
0,0.570833348420992,-0.00555555575692586,0.775000017644626,0.000305432622553781,0.546724379062653,0.215330004692078
0,0.572222240304247,-0.00277777787846293,0.787500044593913,0.101098194718361,0.523206055164337,0.198225766420364
0,0.575000024070755,-0.00555555575692586,0.801388914802596,0.110261179506779,0.514653980731964,0.131641462445259
0,0.58333337537028,-0.00555555575692586,0.819444460661041,-0.111482910811901,0.572686195373535,0.156992360949516
0,0.581944483487025,0.00555555575692586,0.830555595727074,-0.140499010682106,0.546113550662994,0.170125976204872
0,0.562499997121468,0.00555555575692586,0.840277838909853,-0.0821613743901253,0.409585148096085,0.142026171088219
0,0.554166694445801,0.0250000007162294,0.84583340644287,0.0485637858510017,0.271835029125214,0.128892570734024
0,0.536111148587356,0.0458333348996699,0.858333336144441,0.114231802523136,0.259312301874161,0.145080491900444
0,0.529166689171085,0.0513888902767219,0.877777822509998,0.167071640491486,0.135001212358475,0.166766211390495
0,0.530555581054339,0.029166668768514,0.888888957576031,0.277943700551987,-0.0549778714776039,0.149967417120934
0,0.534722256704101,0.029166668768514,0.870833363093728,0.397367835044861,-0.246789559721947,0.0448985956609249
0,0.536111148587356,0.00555555575692586,0.847222298326124,0.305738061666489,-0.223576679825783,0.00763581553474069
0,0.531944472937593,0.033333335301303,0.825000028194058,0.223882108926773,-0.183565005660057,0.0901026204228401
0,0.531944472937593,0.0680555564078778,0.819444460661041,0.117591559886932,-0.00824668072164059,0.334754168987274
0,0.531944472937593,0.0666666706026059,0.826388920077312,0.156381502747536,0.0714712366461754,0.419053554534912
0,0.527777797287831,0.029166668768514,0.843055622676362,0.16920967400074,0.00122173049021512,0.384845107793808
0,0.562499997121468,0.00138888893923146,0.849999984844916,0.146913096308708,-0.118507854640484,0.29657506942749
0,0.577777807837263,0.00694444498106275,0.85138887672817,0.128587126731873,0.128281697630882,0.218995183706284
0,0.568055564654484,0.00972222266958873,0.87500003874349,0.178372651338577,0.0675006061792374,0.212886542081833
0,0.548611126912784,-0.0111111115138517,0.870833363093728,0.12675453722477,-0.0357356183230877,0.149356558918953
0,0.558333370095563,-0.0416666683668809,0.85138887672817,-0.0879645943641663,0.0687223374843597,-0.10567969083786
0,0.551388910679293,0.00277777787846293,0.854166660494678,0.0329867228865623,0.0284052342176437,-0.159435823559761
0,0.533333364820847,0.0569444456537738,0.841666730793107,0.116980694234371,0.0424551330506802,-0.0632245540618896
0,0.522222229754814,0.0652777787193518,0.856944444261187,0.0436768643558025,0.0751364231109619,0.10048733651638
0,0.519444445988306,0.0375000018340919,0.861111119910949,-0.0852157026529312,0.0445931628346443,0.133168622851372
0,0.525000013521323,0.027777779924251,0.883333390043015,-0.16890424489975,-0.0415388382971287,0.0885754600167274
0,0.527777797287831,0.0236111118719664,0.854166660494678,-0.114537231624126,0.0302378293126821,0.0772744566202164
0,0.527777797287831,0.0236111118719664,0.854166660494678,0.00366519158706069,0.105068825185299,0.0482583530247212
0,0.525000013521323,0.0180555564949145,0.84583340644287,0.0684169083833694,0.0870482996106148,0.021685715764761
0,0.518055554105052,0.00972222266958873,0.837500055143345,0.146607652306557,0.0656680166721344,-0.0372627787292004
0,0.522222229754814,0.0194444453391775,0.865277795560711,0.124921940267086,0.103847093880177,-0.0342084541916847
0,0.522222229754814,0.0194444453391775,0.865277795560711,0.0803287774324417,0.12705996632576,0.0601702257990837
0,0.522222229754814,0.03194444645704,0.865277795560711,0.0488692186772823,0.198225766420364,0.110261179506779
0,0.522222229754814,0.03194444645704,0.865277795560711,0.133474051952362,0.178372651338577,0.0607810914516449
0,0.516666662221798,0.0250000007162294,0.880555606276507,0.271224170923233,0.0430659987032413,-0.0311541277915239
0,0.513888927079148,0.0236111118719664,0.876388930626744,0.281914323568344,0.0161879286170006,-0.0045814891345799
0,0.505555575779623,0.0513888902767219,0.859722228027695,0.208305045962334,0.0436768643558025,0.0824668109416962
0,0.512500035195893,0.0486111125881959,0.848611190209378,0.0934623852372169,0.118507854640484,0.109039448201656
0,0.519444445988306,0.0388888906783549,0.849999984844916,0.0665843114256859,0.0873537287116051,0.0940732508897781
0,0.506944467662877,0.030555557612777,0.85138887672817,0.064446285367012,0.114231802523136,0.0122173046693206
0,0.52083333787156,0.03194444645704,0.852777768611424,0.115453533828259,0.0812450796365738,0.0397062413394451
0,0.518055554105052,0.0458333348996699,0.861111119910949,0.144775062799454,0.0540615729987621,0.0671951770782471
0,0.509722251429385,0.0513888902767219,0.865277795560711,0.102014496922493,0.029626963660121,0.0656680166721344
0,0.505555575779623,0.0486111125881959,0.861111119910949,0.0757472887635231,0.0522289797663689,0.0925460830330849
0,0.525000013521323,0.055555559848502,0.865277795560711,0.0656680166721344,0.0690277740359306,0.122478485107422
0,0.515277818962402,0.0416666683668809,0.863888903677457,0.110261179506779,0.123089343309402,0.0339030213654041
0,0.525000013521323,0.029166668768514,0.861111119910949,0.16951510310173,0.13744467496872,0.0268780700862408
0,0.525000013521323,0.0513888902767219,0.861111119910949,0.0919352173805237,0.233961388468742,0.0800233483314514
0,0.505555575779623,0.0583333375370279,0.862500011794203,-0.0290160998702049,0.215940862894058,0.118813291192055
0,0.504166683896369,0.0500000014324589,0.872222254976982,-0.017409659922123,0.223576679825783,0.0949895456433296
0,0.502777792013115,0.0444444460554069,0.87500003874349,0.0604756586253643,0.161268427968025,0.0736092627048492
0,0.49444444071359,0.0458333348996699,0.890277849459286,0.12156218290329,0.180510684847832,0.0180205255746841
0,0.487500029921177,0.0361111129898289,0.879166714393253,0.117896988987923,0.159435823559761,0.0473420582711697
0,0.500000008246606,0.0458333348996699,0.886111173809523,0.146607652306557,0.224492982029915,0.0632245540618896
0,0.49166670557094,0.0513888902767219,0.87500003874349,0.184175878763199,0.300240278244019,0.11636982858181
0,0.477777786738398,0.0513888902767219,0.887500065692777,0.251676470041275,0.38576140999794,0.145996794104576
0,0.487500029921177,0.0444444460554069,0.911111130460381,0.266948103904724,0.414166629314423,0.0867428630590439
0,0.472222219205382,0.033333335301303,0.915277806110144,0.257479697465897,0.301767438650131,0.0357356183230877
0,0.463888916529715,0.055555559848502,0.909722238577127,0.240680903196335,0.156686931848526,0.0100792767480016
0,0.458333348996699,0.0777777813567098,0.879166714393253,0.208915919065475,0.143247902393341,0.0708603709936142
0,0.449999997697174,0.0791666671619817,0.854166660494678,0.147523954510689,0.183259576559067,0.0742201283574104
0,0.449999997697174,0.0694444482911319,0.861111119910949,0.112093769013882,0.188451930880547,0.0397062413394451
0,0.463888916529715,0.0722222259796579,0.883333390043015,0.127670839428902,0.153021737933159,-0.0131336031481624
0,0.484722246154669,0.0958333393711199,0.916666697993398,0.194255143404007,0.134084925055504,-0.00397062394768
0,0.468055592179478,0.100000002864918,0.884722281926269,0.0751364231109619,0.29046642780304,0.0363464802503586
0,0.434722235605237,0.0680555564078778,0.893055633225794,-0.182954147458077,0.353385537862778,0.00519235478714108
0,0.441666695021508,0.0750000036681839,0.908333346693873,-0.151494577527046,0.209526777267456,-0.114231802523136
0,0.456944457113445,0.0652777787193518,0.888888957576031,-0.013744467869401,0.146913096308708,-0.0650571510195732
0,0.462500024646461,0.0583333375370279,0.877777822509998,-0.000305432622553781,0.0794124826788902,-0.0390953756868839
0,0.447222262554524,0.0694444482911319,0.899999995394348,-0.0565050356090069,0.0412334054708481,-0.0742201283574104
0,0.449999997697174,0.0694444482911319,0.919444481759906,-0.098960168659687,0.0558941699564457,-0.126143679022789
0,0.452777781463682,0.0583333375370279,0.904166671044111,-0.0403171069920063,0.0708603709936142,-0.167987942695618
0,0.413888905980283,0.101388894748172,0.887500065692777,-0.000610865245107561,0.0772744566202164,-0.135306656360626
0,0.394444468238583,0.12777778582816,0.898611103511094,-0.126449108123779,0.000305432622553781,0.0400116741657257
0,0.384722225055805,0.125000002061652,0.866666687443965,-0.203723564743996,0.153632611036301,0.0998764708638191
0,0.404166687109433,0.0736111117849297,0.893055633225794,-0.170431405305862,0.252287358045578,0.04764748737216
0,0.400000011459671,0.0833333367337618,0.912500022343635,-0.0323758572340012,0.126449108123779,0.0308486949652433
0,0.394444468238583,0.0625000010308258,0.916666697993398,0.0467311926186085,0.122173048555851,-0.0280998013913631
0,0.368055571080613,0.0416666683668809,0.893055633225794,-0.01588249579072,0.169820532202721,-0.120340451598167
0,0.397222227693163,0.0611111152255539,0.912500022343635,-0.248011291027069,0.363159388303757,-0.188757359981537
0,0.387500008822313,0.0777777813567098,0.923611157409668,-0.127365410327911,0.272751331329346,-0.109344877302647
0,0.386111116939059,0.0680555564078778,0.922222265526414,-0.0213802829384804,0.23304508626461,-0.0656680166721344
0,0.377777789951463,0.0694444482911319,0.93750007624221,-0.0171042270958424,0.134695783257484,-0.00671951752156019
0,0.380555573717971,0.055555559848502,0.948611114060526,0.0516181141138077,-0.0711658000946045,-0.0232128798961639
0,0.387500008822313,0.0625000010308258,0.931944508709193,0.0977384373545647,-0.181121543049812,-0.0919352173805237
0,0.406944470875941,0.0513888902767219,0.919444481759906,0.238542884588242,-0.134390354156494,-0.127365410327911
0,0.401388903342925,0.0722222259796579,0.919444481759906,0.277332812547684,-0.0696386396884918,-0.0885754600167274
0,0.375000006184955,0.0902777839940679,0.906944454810619,0.218384325504303,-0.106595985591412,-0.017409659922123
0,0.379166681834717,0.0916666697993398,0.904166671044111,0.064446285367012,-0.0726929605007172,0.0531452745199203
0,0.390277792588821,0.0916666697993398,0.911111130460381,-0.0433714315295219,-0.0311541277915239,0.103541657328606
0,0.387500008822313,0.0944444474878658,0.923611157409668,-0.0708603709936142,-0.0403171069920063,0.115148097276688
0,0.413888905980283,0.0805555590452358,0.926388941176177,0.0229074470698834,0.0259617734700441,0.161879286170006
0,0.416666689746791,0.0680555564078778,0.929166724942685,0.121256753802299,0.0384845100343227,0.124311074614525
0,0.413888905980283,0.0625000010308258,0.927777833059431,0.155465200543404,0.015577063895762,0.0946841165423393
0,0.394444468238583,0.0680555564078778,0.918055589876652,0.114537231624126,-0.0830776765942574,0.0235183127224445
0,0.394444468238583,0.0680555564078778,0.918055589876652,0.0235183127224445,-0.208305045962334,0.0342084541916847
0,0.397222227693163,0.0944444474878658,0.93750007624221,-0.0241291765123606,-0.186313897371292,0.0271835029125214
0,0.397222227693163,0.0944444474878658,0.93750007624221,0.0415388382971287,-0.105374254286289,0.0265726372599602
0,0.422222257279808,0.0680555564078778,0.918055589876652,0.0870482996106148,0.0287106670439243,0.0259617734700441
0,0.420833365396554,0.0763888894734557,0.911111130460381,0.103847093880177,0.112704634666443,0.00916297826915979
0,0.405555578992687,0.0916666697993398,0.919444481759906,0.117286130785942,0.0277943685650826,0.0207694191485643
0,0.400000011459671,0.0958333393711199,0.913888914226889,0.0641408488154411,-0.087659165263176,0.00641408516094089
0,0.405555578992687,0.0888888921108138,0.92083337364316,0.0430659987032413,-0.117591559886932,-0.0409279726445675
0,0.411111122213775,0.0847222225390337,0.912500022343635,0.00824668072164059,-0.0445931628346443,-0.0610865242779255
0,0.405555578992687,0.0916666697993398,0.911111130460381,-0.015577063895762,-0.0629191175103188,-0.0128281703218818
0,0.405555578992687,0.0916666697993398,0.911111130460381,0.0222965814173222,-0.0583376325666905,-0.0219911485910416
0,0.406944470875941,0.0875000002275597,0.902777779160856,0.0458148941397667,-0.029626963660121,-0.0244346093386412
0,0.4194444735133,0.0750000036681839,0.902777779160856,0.0277943685650826,0.0171042270958424,0.0161879286170006
0,0.4194444735133,0.0750000036681839,0.902777779160856,-0.0128281703218818,0.0384845100343227,-0.0125227374956012
0,0.415277797863537,0.0819444448505077,0.913888914226889,-0.019547687843442,-0.0400116741657257,-0.0045814891345799
0,0.405555578992687,0.104166672436698,0.911111130460381,-0.0198531206697226,-0.0751364231109619,-0.00152716308366507
0,0.402777795226179,0.105555564319952,0.92083337364316,0.000610865245107561,-0.113620936870575,-0.00641408516094089
0,0.411111122213775,0.100000002864918,0.912500022343635,0.0363464802503586,-0.0516181141138077,-0.0290160998702049
0,0.411111122213775,0.0875000002275597,0.916666697993398,0.0589484944939613,-0.0149661982432008,-0.0494800843298435
0,0.415277797863537,0.0750000036681839,0.923611157409668,0.0571159012615681,-0.0287106670439243,-0.0525344125926495
0,0.411111122213775,0.0958333393711199,0.913888914226889,0.0448985956609249,-0.0387899428606033,0.000916297896765172
0,0.404166687109433,0.104166672436698,0.913888914226889,0.0482583530247212,-0.04764748737216,-0.00366519158706069
0,0.406944470875941,0.101388894748172,0.911111130460381,0.0320704244077206,0.00427605677396059,0.0244346093386412
0,0.413888905980283,0.0833333367337618,0.902777779160856,0.0021380283869803,0.0287106670439243,0.0140499006956816
0,0.412500014097029,0.0861111144222878,0.906944454810619,0.00916297826915979,-0.0858265683054924,0.015577063895762
0,0.412500014097029,0.0861111144222878,0.906944454810619,0.0613919571042061,-0.139582708477974,0.0250454749912024
0,0.4194444735133,0.100000002864918,0.918055589876652,0.0965167060494423,-0.0968221426010132,0.0229074470698834
0,0.418055581630046,0.112499999424294,0.916666697993398,0.0485637858510017,-0.0464257597923279,0.0513126812875271
0,0.423611149163062,0.120833338567854,0.926388941176177,0.0424551330506802,0.00183259579353034,0.0561996027827263
0,0.427777776188966,0.108333335930496,0.927777833059431,0.0830776765942574,-0.0207694191485643,0.102014496922493
0,0.416666689746791,0.0916666697993398,0.89722221162784,0.0510072484612465,0.00305432616733015,0.0488692186772823
0,0.413888905980283,0.0916666697993398,0.895833319744586,-0.017409659922123,-0.0510072484612465,0.0287106670439243
0,0.413888905980283,0.101388894748172,0.902777779160856,-0.0213802829384804,-0.116675265133381,0.0455094613134861
0,0.416666689746791,0.0972222251763917,0.902777779160856,-0.0284052342176437,-0.0830776765942574,0.0525344125926495
0,0.431944451838729,0.101388894748172,0.913888914226889,0.0342084541916847,-0.019547687843442,0.0183259565383196
0,0.427777776188966,0.106944444047242,0.918055589876652,0.0665843114256859,-0.00702495034784079,0.0280998013913631
0,0.430555559955475,0.125000002061652,0.906944454810619,0.0696386396884918,-0.00305432616733015,0.0372627787292004
0,0.434722235605237,0.120833338567854,0.911111130460381,0.0357356183230877,0.0549778714776039,0.05283984541893
0,0.438888911254999,0.122222230451108,0.918055589876652,0.0348193198442459,0.0907134860754013,0.0537561401724815
0,0.438888911254999,0.122222230451108,0.918055589876652,0.109344877302647,0.000305432622553781,0.0164933614432812
0,0.436111127488491,0.116666675074056,0.904166671044111,0.164933621883392,-0.0308486949652433,-0.0445931628346443
0,0.420833365396554,0.102777780553444,0.887500065692777,0.182648703455925,-0.106290549039841,-0.0858265683054924
0,0.409722230330521,0.104166672436698,0.84583340644287,0.136528387665749,-0.0522289797663689,-0.0491746515035629
0,0.409722230330521,0.104166672436698,0.84583340644287,0.0897971913218498,-0.0253509078174829,-0.0998764708638191
0,0.434722235605237,0.0847222225390337,0.880555606276507,0.15851953625679,-0.131641462445259,-0.0879645943641663
0,0.472222219205382,0.130555557438704,0.911111130460381,0.32192599773407,-0.648128032684326,0.280387133359909
0,0.426388884305712,0.14722222356986,0.925000049292922,0.313068449497223,-0.569937288761139,0.285274058580399
0,0.430555559955475,0.161111118090472,0.859722228027695,0.333837866783142,-0.932485818862915,0.495717138051987
0,0.440277803138253,0.184722231481934,0.818055568777787,0.281303435564041,-1.88879537582398,1.13162791728973
0,0.440277803138253,0.184722231481934,0.818055568777787,-0.0448985956609249,-2.1755964756012,1.44408547878265
0,0.497222224480098,0.0388888906783549,0.675000045169619,-0.391870051622391,-2.93551301956177,1.81304800510406
0,0.679166672195524,0.0388888906783549,0.801388914802596,-0.443793594837189,-2.80051159858704,1.67651963233948
0,0.679166672195524,0.0388888906783549,0.801388914802596,-0.162490159273148,-2.21499729156494,1.05313169956207
0,0.726388898978447,0.0236111118719664,0.902777779160856,0.0638354197144508,-2.17223691940308,0.806953012943268
0,0.697222266677827,0.0416666683668809,0.843055622676362,0.348193198442459,-2.20033669471741,0.896750152111053
0,0.705555569353494,0.00694444498106275,0.75000001236991,0.619111955165863,-2.21041584014893,0.910800099372864
0,0.759722255552688,-0.0194444453391775,0.697222266677827,0.570548117160797,-2.30540537834167,0.82039201259613
0,0.758333363669434,0.00555555575692586,0.651388931778157,0.182343274354935,-2.10412526130676,0.804204106330872
0,0.718055596302781,0.00833333382532574,0.533333364820847,-0.413861215114594,-2.02837800979614,1.06931960582733
0,0.804166698569104,0.00555555575692586,0.551388910679293,-0.299323976039886,-1.80907738208771,0.964250802993774
0,0.970833384192592,-0.0444444460554069,0.544444451263022,-0.203723564743996,-1.59863436222076,0.428216546773911
0,0.983333411141879,-0.0861111144222878,0.523611121638068,-0.0277943685650826,-1.76173532009125,0.268780708312988
0,0.945833330294018,-0.115277783190802,0.511111143312639,0.195476874709129,-2.38176369667053,0.353690981864929
0,0.911111130460381,-0.0361111129898289,0.512500035195893,0.184175878763199,-2.70368957519531,0.709214568138123
0,0.86805557932722,-0.0513888902767219,0.490277813687686,0.291993588209152,-2.7702739238739,1.12124311923981
0,0.852777768611424,-0.0750000036681839,0.400000011459671,0.333532422780991,-2.30601620674133,0.728762209415436
0,1.05555559457566,-0.0819444448505077,0.302777798439244,0.141109868884087,-2.22385501861572,-0.0513126812875271
0,1.17638889667562,-0.0847222225390337,0.286111120152123,0.0161879286170006,-2.44437718391419,-0.112093769013882
0,1.00000001649321,-0.118055554801345,0.298611122789481,0.0940732508897781,-2.92696070671081,0.248316720128059
0,0.998611124609959,-0.186111123365188,0.197222234119292,-0.240070044994354,-0.734870910644531,-0.148745685815811
0,0.979166735492117,-0.170833336961321,-0.118055554801345,-0.228158175945282,-0.423329621553421,-0.561996042728424
0,1.10277782135859,-0.116666675074056,0.0888888921108138,0.695775508880615,-1.11360728740692,-1.42484319210052
0,1.05416670269241,0.0583333375370279,0.0666666706026059,1.09222710132599,-1.40834987163544,-1.63864600658417
0,1.05416670269241,0.055555559848502,0.108333335930496,1.2834278345108,-1.43278443813324,-1.37505769729614
0,1.01944450285877,0.0652777787193518,0.0819444448505077,1.25471723079681,-1.23364233970642,-1.0723739862442
0,0.909722238577127,0.026388891079988,0.0777777813567098,0.650571465492249,-1.12246489524841,-0.657901883125305
0,0.931944508709193,-0.0458333348996699,0.00972222266958873,0.0839939713478088,-1.31152772903442,-0.340862810611725
0,1.147222264375,-0.055555559848502,-0.0222222230277034,-0.436463207006455,-1.75501585006714,-0.995404899120331
0,1.13611112930897,-0.180555567988136,-0.0541666679652478,-0.941648781299591,-1.40468466281891,-1.07634460926056
0,0.952777789710289,-0.108333335930496,-0.033333335301303,-1.21837067604065,-1.42423236370087,-0.944703102111816
0,0.894444525109048,-0.0194444453391775,-0.0222222230277034,-0.662177920341492,-1.27487576007843,-0.456010907888412
0,0.986111194908388,0.0513888902767219,-0.0111111115138517,-0.286801218986511,-1.56320416927338,-0.130725160241127
0,1.14861115625826,0.030555557612777,-0.0847222225390337,0.0791070461273193,-1.29625606536865,-0.291688144207001
0,1.08750001064279,-0.0166666676506515,-0.152777778946911,-0.150272846221924,-1.19607412815094,-0.887892663478851
0,1.00972225967599,0.029166668768514,-0.17361112072783,-0.202807262539864,-0.982576727867126,-1.03938722610474
0,0.915277806110144,0.113888891307548,-0.17361112072783,-0.22204951941967,-1.03480577468872,-0.506712734699249
0,0.797222239152834,0.163888889701015,-0.154166670830166,-0.301767438650131,-0.991739749908447,0.179288953542709
0,0.884722281926269,0.12777778582816,-0.161111118090472,-0.187841057777405,-0.591012120246887,0.159130394458771
0,0.98888888142718,0.0763888894734557,-0.218055563744246,-0.00702495034784079,-0.154548913240433,-0.155465200543404
0,0.973611167959101,0.120833338567854,-0.263888898643915,-0.245873257517815,-0.398284137248993,0.0244346093386412
0,0.991666665193688,0.144444451959316,-0.177777784221628,-1.14689946174622,-0.922406494617462,0.632856369018555
0,1.02361117850853,0.194444450352783,-0.25555557165632,-0.527176678180695,-0.545808076858521,-0.138360977172852
0,0.931944508709193,0.17361112072783,-0.265277790527169,-0.332616120576859,-0.720820963382721,-0.0177150927484035
0,0.923611157409668,0.226388890731841,-0.262500006760661,0.157603234052658,-0.493579119443893,0.276721954345703
0,1.00277780025972,0.055555559848502,-0.33750002258481,0.36529740691185,-0.318566232919693,-0.145080491900444
0,1.07222229717471,0.0833333367337618,-0.377777789951463,0.136222943663597,-0.102014496922493,-0.651487767696381
0,1.03194452980806,0.202777789496344,-0.376388898068209,-0.0668897479772568,-0.228158175945282,-0.442571878433227
0,0.940277860008718,0.188888894975731,-0.33750002258481,-0.257174253463745,0.0259617734700441,-0.153938040137291
0,0.940277860008718,0.188888894975731,-0.33750002258481,-0.261450320482254,0.265420943498612,0.0384845100343227
0,0.848611190209378,0.116666675074056,-0.375000006184955,-0.143247902393341,-0.0956004112958908,0.305432617664337
0,0.848611190209378,0.116666675074056,-0.375000006184955,-0.263282924890518,0.65484756231308,0.432187169790268
0,1.03194452980806,0.187500003092477,-0.29166668768514,-0.36987891793251,0.588263213634491,0.154243469238281
0,1.03194452980806,0.187500003092477,-0.29166668768514,-0.203112691640854,-0.285274058580399,-0.139582708477974
0,0.99583334084345,0.148611115453114,-0.322222236180943,-0.188451930880547,-0.0232128798961639,-0.215635433793068
0,0.923611157409668,0.141666668192807,-0.308333341660331,-0.284357786178589,0.379347324371338,-0.299629390239716
0,0.869444471210474,0.0902777839940679,-0.295833339022973,-0.500909507274628,0.724791586399078,-0.263282924890518
0,0.93750007624221,0.195833342236038,-0.287500012035377,-0.853684186935425,1.97370564937592,0.188146501779556
0,0.93750007624221,0.195833342236038,-0.287500012035377,-0.835358202457428,1.07267940044403,0.23243422806263
0,0.809722266102121,0.133333341205212,-0.287500012035377,-0.257785141468048,0.304210901260376,0.816115975379944
0,0.89722221162784,0.202777789496344,-0.125000002061652,-0.113315500319004,0.442877292633057,0.899804532527924
0,0.863888903677457,0.134722233088466,-0.169444445078067,0.0766635909676552,0.0546724386513233,1.19057631492615
0,0.841666730793107,0.0347222241455659,-0.193055558469529,0.0021380283869803,0.238542884588242,1.53999125957489
0,0.841666730793107,0.0347222241455659,-0.193055558469529,-0.226020142436027,-0.109955742955208,1.33504593372345
0,0.841666730793107,0.0347222241455659,-0.193055558469529,-0.252592772245407,-0.487470477819443,1.03205680847168
0,0.841666730793107,0.0347222241455659,-0.193055558469529,-0.255341678857803,-0.321620553731918,1.23425328731537
0,0.865277795560711,-0.030555557612777,-0.195833342236038,-0.300545692443848,-0.124616511166096,1.60199415683746
0,0.865277795560711,-0.030555557612777,-0.195833342236038,-0.170125976204872,0.0128281703218818,1.61543309688568
0,1.01944450285877,0.0416666683668809,-0.200000005729836,-0.121867619454861,-0.374154955148697,1.25257921218872
0,1.01944450285877,0.0416666683668809,-0.200000005729836,0.217468023300171,0.108123145997524,0.972802877426147
0,1.20277784245745,-0.0194444453391775,-0.118055554801345,0.339641064405441,0.140193566679955,1.01250910758972
0,1.02916674604155,-0.0625000010308258,-0.17361112072783,0.436157792806625,0.108428582549095,0.993877768516541
0,0.986111194908388,-0.0986111170596459,-0.181944447715425,0.495106279850006,0.267864406108856,0.985020220279694
0,1.05555559457566,-0.166666673467524,-0.223611131277262,0.443793594837189,0.420275300741196,0.817032277584076
0,0.994444448960196,-0.176388892338373,-0.158333334323963,0.712879717350006,0.496022582054138,1.04946649074554
0,1.17916668044213,-0.156944454596674,-0.223611131277262,0.62338799238205,0.23243422806263,0.77304995059967
0,1.13333334554246,-0.229166674498349,-0.262500006760661,0.203112691640854,0.245567828416824,0.260228604078293
0,1.0125000434425,-0.19166667874224,-0.194444450352783,0.114231802523136,0.142331600189209,0.305738061666489
0,0.951388897827035,-0.193055558469529,-0.180555567988136,-0.0568104684352875,-0.0482583530247212,0.310014098882675
0,0.98888888142718,-0.227777782615095,-0.169444445078067,-0.0684169083833694,-0.0360410511493683,0.199142068624496
0,1.03194452980806,-0.243055569018962,-0.193055558469529,-0.0928515195846558,0.0229074470698834,0.0247400421649218
0,1.01527782720901,-0.240277785252453,-0.215277779977737,-0.191506251692772,0.064446285367012,-0.143553331494331
0,0.993055557076942,-0.227777782615095,-0.19166667874224,-0.164628177881241,0.0577267669141293,-0.011606439948082
0,0.973611167959101,-0.187500003092477,-0.133333341205212,0.0952949747443199,-0.324369430541992,-0.188757359981537
0,1.02500007039179,-0.19166667874224,-0.200000005729836,0.0335975885391235,-0.0549778714776039,-0.0751364231109619
0,1.02916674604155,-0.202777789496344,-0.202777789496344,0.00671951752156019,0.0592539273202419,-0.0485637858510017
0,1.00972225967599,-0.197222234119292,-0.2194444556275,-0.0146607663482428,0.135306656360626,-0.0256563406437635
0,0.933333400592447,-0.268055574293678,-0.122222230451108,-0.0998764708638191,0.126449108123779,-0.219606056809425
0,0.972222276075846,-0.14722222356986,-0.0763888894734557,0.215330004692078,-0.692415773868561,-0.68630713224411
0,0.741666709694243,-0.122222230451108,-0.223611131277262,0.0757472887635231,0.798706293106079,0.372322380542755
0,0.78333336894415,-0.163888889701015,-0.154166670830166,0.230296194553375,0.309708684682846,0.974940955638885
0,1.08055555122652,-0.295833339022973,-0.213888888094483,0.015577063895762,-0.319177091121674,0.605367481708527
0,1.08055555122652,-0.295833339022973,-0.213888888094483,0.10048733651638,0.256257981061935,0.0207694191485643
0,1.07083340529146,-0.250000004123303,-0.184722231481934,0.143858760595322,0.521984338760376,0.0500909499824047
0,0.89722221162784,-0.223611131277262,-0.144444451959316,0.11117747426033,0.744033873081207,0.105068825185299
0,0.89722221162784,-0.223611131277262,-0.144444451959316,0.117591559886932,0.135001212358475,0.711047172546387
0,0.809722266102121,-0.17361112072783,-0.0708333340964038,0.136222943663597,-0.130114302039146,1.12979531288147
0,1.19305559927467,-0.306944449777077,-0.14722222356986,-0.0219911485910416,0.0394008085131645,0.53969943523407
0,1.19305559927467,-0.306944449777077,-0.14722222356986,-0.0592539273202419,0.106901414692402,0.261450320482254
0,1.08055555122652,-0.312500017310094,-0.150000007336368,-0.0122173046693206,0.145996794104576,0.191506251692772
0,0.986111194908388,-0.279166685047782,-0.13750000469901,0.0210748501121998,0.22724187374115,0.22754730284214
0,0.936111184358955,-0.322222236180943,-0.101388894748172,0.0546724386513233,0.0726929605007172,0.0836885422468185
0,0.936111184358955,-0.322222236180943,-0.101388894748172,0.161573857069016,0.0897971913218498,-0.230296194553375
0,0.815277785011279,-0.375000006184955,-0.211111128639904,0.10567969083786,0.358577907085419,-1.46332764625549
0,0.98888888142718,-0.234722242031366,-0.0944444474878658,0.101403631269932,0.237321153283119,-1.44255828857422
0,0.98888888142718,-0.234722242031366,-0.0944444474878658,0.0277943685650826,0.101403631269932,-0.660345315933228
0,1.0305556379248,-0.168055565350778,-0.0847222225390337,-0.0363464802503586,-0.114231802523136,-0.156381502747536
0,0.998611124609959,-0.177777784221628,-0.0847222225390337,-0.193644285202026,-0.313984721899033,-0.0198531206697226
0,1.07777786470773,-0.206944452990142,-0.12777778582816,0.013744467869401,-0.0222965814173222,0.12705996632576
0,1.0513889189259,-0.25555557165632,-0.162500009973726,0.273973047733307,0.167682513594627,0.278859972953796
0,1.01666671909226,-0.238888893369199,-0.133333341205212,0.22204951941967,0.0821613743901253,0.128892570734024
0,0.970833384192592,-0.24583335278547,-0.120833338567854,0.165239050984383,0.112704634666443,0.0827722400426865
0,0.983333411141879,-0.222222239394008,-0.0791666671619817,0.215330004692078,0.124005645513535,0.118813291192055
0,1.00972225967599,-0.226388890731841,-0.0861111144222878,0.238542884588242,0.235793977975845,0.0696386396884918
0,1.02777785415829,-0.195833342236038,-0.138888896582264,0.126449108123779,0.315817326307297,-0.0461203269660473
0,0.955555573476797,-0.272222225631511,-0.130555557438704,0.141720741987228,0.384234249591827,-0.143553331494331
0,1.12777777800944,-0.229166674498349,-0.0958333393711199,0.142637029290199,0.619722783565521,-0.0167987942695618
0,1.08472222687628,-0.24583335278547,-0.0972222251763917,0.0852157026529312,0.564744889736176,-0.0678060427308083
0,1.06250005399193,-0.223611131277262,-0.0750000036681839,-0.0164933614432812,0.281303435564041,-0.143553331494331
0,1.00000001649321,-0.216666671860991,-0.0486111125881959,0.0598647929728031,0.234877690672875,-0.100792765617371
0,0.961111141009813,-0.223611131277262,-0.0388888906783549,0.0931569486856461,0.250454753637314,-0.0965167060494423
0,1.04027778385987,-0.230555566381603,-0.0500000014324589,-0.00183259579353034,0.151189148426056,-0.0244346093386412
0,1.05555559457566,-0.212499996211229,-0.0416666683668809,-0.0546724386513233,0.0363464802503586,-0.00885754637420177
0,0.98888888142718,-0.222222239394008,-0.0125000003581147,-0.00610865233466029,-0.126449108123779,-0.0161879286170006
0,0.96666670854283,-0.208333344873396,-0.0180555564949145,0.00549778714776039,-0.188146501779556,-0.01588249579072
0,1.00972225967599,-0.216666671860991,-0.03194444645704,0.0742201283574104,-0.189062789082527,-0.0607810914516449
0,1.03194452980806,-0.238888893369199,-0.052777782159976,0.0772744566202164,-0.134390354156494,-0.0522289797663689
0,1.03194452980806,-0.223611131277262,-0.0888888921108138,0.03176499158144,0.0241291765123606,-0.00824668072164059
0,1.02083339474202,-0.215277779977737,-0.0750000036681839,0.00519235478714108,0.107817716896534,-0.0681114718317986
0,1.01527782720901,-0.208333344873396,-0.0652777787193518,0.0247400421649218,0.162184715270996,-0.133168622851372
0,1.01805561097552,-0.238888893369199,-0.0541666679652478,0.05283984541893,0.146302223205566,-0.124311074614525
0,1.01944450285877,-0.223611131277262,-0.0416666683668809,0.0342084541916847,0.0678060427308083,-0.0839939713478088
0,1.00000001649321,-0.204166669223633,-0.0388888906783549,0.0442877300083637,0.0106901414692402,-0.0839939713478088
0,1.00000001649321,-0.20972223675665,-0.0513888902767219,0.013744467869401,-0.0164933614432812,-0.0946841165423393
0,1.00277780025972,-0.222222239394008,-0.055555559848502,-0.0479529201984406,-0.0226020142436027,-0.144469633698463
0,1.0125000434425,-0.218055563744246,-0.0486111125881959,-0.0641408488154411,0.0314595587551594,-0.15851953625679
0,1.01527782720901,-0.202777789496344,-0.0486111125881959,-0.0800233483314514,0.0326812900602817,-0.132557764649391
0,1.01111115155925,-0.18333333959868,-0.0444444460554069,-0.0809396430850029,-0.0314595587551594,-0.164628177881241
0,1.01111115155925,-0.18333333959868,-0.0444444460554069,-0.0833831056952477,-0.00702495034784079,-0.173485726118088
0,1.01944450285877,-0.180555567988136,-0.052777782159976,-0.00763581553474069,-0.0998764708638191,-0.117591559886932
0,1.00972225967599,-0.20138889761309,-0.0416666683668809,0.00488692196086049,-0.118813291192055,-0.0552833043038845
0,1.02500007039179,-0.193055558469529,-0.0583333375370279,0.00397062394768,-0.0500909499824047,-0.037568211555481
0,1.02638896227504,-0.186111123365188,-0.0625000010308258,0.0302378293126821,0.0442877300083637,-0.0525344125926495
0,1.03194452980806,-0.193055558469529,-0.0611111152255539,0.0433714315295219,0.161573857069016,-0.03176499158144
0,1.00694447590948,-0.202777789496344,-0.0583333375370279,0.0442877300083637,0.16951510310173,-0.00152716308366507
0,0.99583334084345,-0.198611113846581,-0.0513888902767219,0.0320704244077206,0.121867619454861,-0.000610865245107561
0,1.01805561097552,-0.187500003092477,-0.0513888902767219,0.0726929605007172,0.178067222237587,-0.02382374368608
0,1.01527782720901,-0.188888894975731,-0.0347222241455659,0.0925460830330849,0.156381502747536,-0.0519235469400883
0,1.0125000434425,-0.190277786858986,-0.0402777795226179,0.0259617734700441,0.0931569486856461,-0.00946841109544039
0,1.00416669214298,-0.186111123365188,-0.0458333348996699,-0.0293215326964855,0.0427605658769607,0.01191187184304
0,1.00277780025972,-0.193055558469529,-0.03194444645704,-0.00488692196086049,-0.0106901414692402,0.0021380283869803
0,1.00972225967599,-0.18333333959868,-0.027777779924251,0.0201585534960032,0.0268780700862408,0.0183259565383196
0,1.02916674604155,-0.187500003092477,-0.0361111129898289,0.00641408516094089,0.11606439948082,0.0415388382971287
0,1.05277781080915,-0.200000005729836,-0.0583333375370279,-0.0442877300083637,0.207999616861343,0.104763388633728
0,1.05694448645892,-0.197222234119292,-0.0597222233422998,-0.101403631269932,0.291993588209152,0.203723564743996
0,1.0694445134082,-0.18333333959868,-0.0666666706026059,-0.123394779860973,0.351247519254685,0.288022965192795
0,1.0125000434425,-0.223611131277262,-0.0222222230277034,-0.0824668109416962,0.230601623654366,0.288633823394775
0,1.02222228662528,-0.211111128639904,-0.0180555564949145,-0.196393176913261,-0.134695783257484,0.368657171726227
0,1.03888889197661,-0.212499996211229,-0.0152777788063885,-0.193644285202026,-0.173180297017098,0.376293003559113
0,1.03888889197661,-0.205555561106887,-0.0194444453391775,-0.173485726118088,-0.104457959532738,0.339335650205612
0,1.00277780025972,-0.200000005729836,-0.027777779924251,-0.128892570734024,0.103847093880177,0.225714713335037
0,0.99583334084345,-0.206944452990142,-0.0194444453391775,-0.131030589342117,0.0821613743901253,0.167071640491486
0,0.963888924776322,-0.223611131277262,-0.0194444453391775,-0.167682513594627,-0.118813291192055,0.163101017475128
0,1.01388893532575,-0.29166668768514,-0.0194444453391775,0.0366519130766392,0.0021380283869803,0.0699440687894821
0,0.986111194908388,-0.25555557165632,-0.00416666691266287,0.0470366254448891,-0.135612085461616,-0.0189368221908808
0,1.00972225967599,-0.234722242031366,-0.0194444453391775,-0.0222965814173222,-0.260228604078293,-0.02382374368608
0,1.01388893532575,-0.195833342236038,-0.0222222230277034,-0.0940732508897781,-0.355218142271042,0.0103847095742822
0,0.980555627375371,-0.222222239394008,-0.0597222233422998,-0.144469633698463,-0.268780708312988,0.058643065392971
0,0.993055557076942,-0.244444460902216,-0.148611115453114,-0.295353353023529,0.380569040775299,0.135917514562607
0,1.00000001649321,-0.261111114877407,0.00555555575692586,-0.100181899964809,-0.0858265683054924,0.0421497002243996
0,0.998611124609959,-0.259722222994153,-0.0222222230277034,-0.0213802829384804,-0.0143553335219622,-0.0131336031481624
0,1.00277780025972,-0.25555557165632,-0.0250000007162294,-0.0293215326964855,-0.0378736443817616,-0.0507018156349659
0,1.01527782720901,-0.258333331110899,-0.0388888906783549,0.00855211354792118,-0.00519235478714108,-0.0855211317539215
0,1.03888889197661,-0.250000004123303,-0.055555559848502,-0.324674874544144,0.00397062394768,-0.0021380283869803
0,0.990277773310434,-0.230555566381603,-0.0222222230277034,0.00885754637420177,0.0784961804747581,-0.0445931628346443
0,0.983333411141879,-0.236111109602691,-0.0152777788063885,0.0311541277915239,0.0146607663482428,-0.0436768643558025
0,1.02916674604155,-0.262500006760661,-0.0222222230277034,0.104457959532738,0.126143679022789,-0.102625362575054
0,1.0125000434425,-0.259722222994153,-0.0388888906783549,0.0928515195846558,0.0320704244077206,-0.106595985591412
0,0.99583334084345,-0.229166674498349,-0.0513888902767219,0.0739146918058395,0.0992656052112579,-0.10598511993885
0,0.987499989543926,-0.222222239394008,-0.0486111125881959,-0.00916297826915979,0.0604756586253643,-0.0537561401724815
0,1.02083339474202,-0.236111109602691,-0.055555559848502,-0.0189368221908808,0.0268780700862408,-0.0610865242779255
0,1.02916674604155,-0.220833347510754,-0.052777782159976,-0.0342084541916847,0.0681114718317986,-0.000305432622553781
0,1.09305557817581,-0.220833347510754,-0.027777779924251,0.183565005660057,0.511599659919739,0.0161879286170006
0,1.01944450285877,-0.233333350148112,-0.027777779924251,0.244040668010712,0.520762622356415,0.0626136884093285
0,0.994444448960196,-0.243055569018962,0.029166668768514,0.17989981174469,0.12705996632576,0.13744467496872
0,0.969444492309338,-0.236111109602691,0.00138888893923146,0.146302223205566,-0.0613919571042061,0.11636982858181
0,0.969444492309338,-0.236111109602691,0.00138888893923146,0.0516181141138077,-0.0690277740359306,0.0766635909676552
0,0.934722292475701,-0.238888893369199,-0.00277777787846293,0.0390953756868839,-0.0549778714776039,-0.141415297985077
0,0.958333357243305,-0.233333350148112,-0.0166666676506515,0.064446285367012,-0.131641462445259,-0.104763388633728
0,0.958333357243305,-0.233333350148112,-0.0166666676506515,0.0366519130766392,-0.0204639863222837,-0.150272846221924
0,1.04861113515939,-0.212499996211229,-0.033333335301303,-0.0433714315295219,0.133779495954514,-0.0864374339580536
0,1.04861113515939,-0.212499996211229,-0.033333335301303,-0.0623082555830479,0.167987942695618,-0.0369573459029198
0,1.06527783775844,-0.218055563744246,0.00277777787846293,0.186924770474434,0.186924770474434,0.143858760595322
0,1.01388893532575,-0.247222220356795,0.03194444645704,0.270307868719101,0.0259617734700441,-0.0045814891345799
0,0.984722303025134,-0.269444466176932,-0.00277777787846293,0.245262399315834,-0.115453533828259,-0.145996794104576
0,0.991666665193688,-0.252777787889811,0.00555555575692586,0.153632611036301,-0.208305045962334,-0.138360977172852
0,1.00555558402623,-0.206944452990142,-0.033333335301303,0.0613919571042061,-0.0607810914516449,-0.0598647929728031
0,0.983333411141879,-0.202777789496344,-0.026388891079988,0.0412334054708481,-0.0784961804747581,0.00488692196086049
0,0.973611167959101,-0.234722242031366,-0.033333335301303,0.00244346098043024,-0.187230199575424,0.0620028227567673
0,1.00972225967599,-0.24583335278547,-0.0152777788063885,0.01191187184304,-0.208610475063324,0.0561996027827263
0,1.02083339474202,-0.248611112240049,-0.0194444453391775,0.0949895456433296,-0.185703039169311,-0.0207694191485643
0,1.01527782720901,-0.229166674498349,-0.00555555575692586,0.177761793136597,0.0122173046693206,-0.0397062413394451
0,1.02500007039179,-0.230555566381603,-0.0388888906783549,0.147218525409698,-0.0473420582711697,0.081855945289135
0,1.0125000434425,-0.227777782615095,-0.0625000010308258,-0.0045814891345799,-0.0949895456433296,0.0604756586253643
0,1.00972225967599,-0.213888888094483,-0.0111111115138517,-0.00977384392172098,-0.2379320114851,0.00519235478714108
0,0.991666665193688,-0.211111128639904,0.00277777787846293,-0.0745255574584007,-0.451429426670075,0.00580321997404099
0,0.972222276075846,-0.208333344873396,-0.0375000018340919,-0.0873537287116051,-0.421802461147308,-0.00305432616733015
0,1.03888889197661,-0.212499996211229,-0.029166668768514,0.0784961804747581,-0.140804439783096,0.0610865242779255
0,1.00833336779274,-0.206944452990142,-0.026388891079988,0.102930791676045,-0.223576679825783,0.109650313854218
0,1.06250005399193,-0.243055569018962,-0.0708333340964038,0.127976268529892,-0.112399205565453,0.199142068624496
0,1.0902777944093,-0.262500006760661,-0.0625000010308258,0.166155353188515,-0.0189368221908808,0.0540615729987621
0,1.01666671909226,-0.236111109602691,-0.111111119697004,0.0201585534960032,-0.0729983970522881,0.013744467869401
0,0.96666670854283,-0.206944452990142,-0.0125000003581147,0.03176499158144,-0.161573857069016,0.0311541277915239
0,0.940277860008718,-0.236111109602691,-0.0250000007162294,0.148440256714821,-0.112093769013882,0.0577267669141293
0,0.969444492309338,-0.222222239394008,-0.0597222233422998,0.102319926023483,-0.171347707509995,0.00305432616733015
0,1.00277780025972,-0.2194444556275,-0.0680555564078778,0.104763388633728,-0.0623082555830479,0.0427605658769607
0,1.0361111082101,-0.241666677135707,-0.0597222233422998,0.122173048555851,0.0662788823246956,-0.0229074470698834
0,0.979166735492117,-0.231944458264858,-0.0777777813567098,0.0357356183230877,0.193644285202026,-0.0629191175103188
0,0.979166735492117,-0.231944458264858,-0.0777777813567098,0.0616973899304867,0.200669229030609,-0.0879645943641663
0,1.02777785415829,-0.231944458264858,-0.0500000014324589,0.0409279726445675,0.388815730810165,-0.204639852046967
0,1.0125000434425,-0.212499996211229,-0.0583333375370279,0.0592539273202419,0.4331034719944,-0.140193566679955
0,1.03472221632685,-0.237500001485945,-0.0513888902767219,0.165544480085373,0.904996871948242,-0.170736834406853
0,0.981944519258625,-0.238888893369199,-0.0513888902767219,0.150578290224075,0.832914769649506,-0.0436768643558025
0,0.965277816659576,-0.243055569018962,-0.0569444456537738,-0.0726929605007172,0.681420207023621,-0.0381790772080422
0,1.00694447590948,-0.229166674498349,0.00416666691266287,-0.13225232064724,0.413861215114594,-0.156381502747536
0,1.03194452980806,-0.218055563744246,0.0194444453391775,-0.0574213340878487,0.493579119443893,-0.193338856101036
0,1.02500007039179,-0.227777782615095,0.0458333348996699,0.182343274354935,0.731205701828003,-0.246484130620956
0,1.00416669214298,-0.216666671860991,0.0625000010308258,0.261450320482254,1.19699048995972,-0.184786736965179
0,0.933333400592447,-0.187500003092477,0.0583333375370279,0.0357356183230877,0.55527651309967,-0.133474051952362
0,0.979166735492117,-0.205555561106887,0.0458333348996699,-0.058643065392971,0.510072469711304,-0.110261179506779
0,0.986111194908388,-0.218055563744246,0.0861111144222878,-0.05283984541893,0.0668897479772568,-0.107817716896534
0,0.979166735492117,-0.186111123365188,0.104166672436698,-0.0366519130766392,-0.0345138870179653,-0.0671951770782471
0,0.973611167959101,-0.223611131277262,0.111111119697004,0.0809396430850029,0.0610865242779255,-0.0302378293126821
0,0.990277773310434,-0.215277779977737,0.125000002061652,0.154243469238281,0.0833831056952477,-0.0445931628346443
0,1.00138890837647,-0.205555561106887,0.100000002864918,0.0965167060494423,0.0387899428606033,-0.0229074470698834
0,1.08888890252604,-0.205555561106887,0.0736111117849297,-0.0595593601465225,0.346666038036346,0.16890424489975
0,1.01527782720901,-0.197222234119292,0.0888888921108138,0.165849909186363,0.098960168659687,-0.0177150927484035
0,1.01527782720901,-0.197222234119292,0.0888888921108138,-0.101098194718361,0.131946891546249,0.0867428630590439
0,1.00416669214298,-0.200000005729836,0.108333335930496,0.127976268529892,0.162490159273148,-0.0250454749912024
0,0.993055557076942,-0.190277786858986,0.106944444047242,0.000305432622553781,0.00519235478714108,-0.000916297896765172
0,0.983333411141879,-0.193055558469529,0.113888891307548,0.00152716308366507,-0.117896988987923,0.00244346098043024
0,0.945833330294018,-0.166666673467524,0.0986111170596459,0.0656680166721344,-0.337503045797348,-0.01588249579072
0,0.98888888142718,-0.222222239394008,0.105555564319952,0.017409659922123,-0.543670058250427,0.0748309940099716
0,0.991666665193688,-0.208333344873396,0.120833338567854,0.125532805919647,-0.526871263980865,0.0180205255746841
0,1.01388893532575,-0.2194444556275,0.105555564319952,0.0833831056952477,-0.736092627048492,0.0369573459029198
0,1.00277780025972,-0.216666671860991,0.0861111144222878,0.16951510310173,-0.974330067634583,0.0794124826788902
0,1.00277780025972,-0.216666671860991,0.0861111144222878,-0.00549778714776039,-0.579711139202118,0.0247400421649218
0,1.06666672964169,-0.190277786858986,0.0791666671619817,0.244040668010712,-0.142637029290199,0.0400116741657257
0,0.976388951725609,-0.180555567988136,0.0402777795226179,0.271224170923233,-0.0198531206697226,0.0885754600167274
0,1.0125000434425,-0.186111123365188,-0.00555555575692586,-0.0387899428606033,-0.0592539273202419,0.0739146918058395
0,1.05972227022542,-0.202777789496344,0.0222222230277034,-0.150578290224075,-0.0424551330506802,0.000305432622553781
0,0.98888888142718,-0.212499996211229,0.108333335930496,0.209221348166466,-0.159435823559761,-0.00855211354792118
0,1.0513889189259,-0.202777789496344,-0.00555555575692586,-0.078801617026329,-0.0864374339580536,-0.0629191175103188
0,1.03194452980806,-0.193055558469529,-0.00555555575692586,-0.0897971913218498,0.0210748501121998,-0.0662788823246956
0,0.993055557076942,-0.186111123365188,0.00555555575692586,-0.197309479117393,-0.0226020142436027,0.00152716308366507
0,1.0125000434425,-0.200000005729836,0.0458333348996699,-0.12705996632576,0.124311074614525,-0.0256563406437635
0,1.0125000434425,-0.200000005729836,0.0458333348996699,0.0143553335219622,0.265115529298782,-0.0513126812875271
0,1.02083339474202,-0.215277779977737,0.0583333375370279,0.140193566679955,0.246789559721947,-0.0568104684352875
0,1.01944450285877,-0.220833347510754,0.0708333340964038,0.196698606014252,0.198531210422516,-0.0439822971820831
0,0.998611124609959,-0.2194444556275,0.0583333375370279,0.144164204597473,0.0937678143382072,-0.0271835029125214
0,1.00000001649321,-0.20972223675665,0.0805555590452358,0.180510684847832,0.0323758572340012,-0.0262672062963247
0,0.997222232726705,-0.208333344873396,0.0680555564078778,0.200669229030609,0.0161879286170006,-0.0250454749912024
0,0.997222232726705,-0.198611113846581,0.0722222259796579,0.119729585945606,-0.0442877300083637,0.0106901414692402
0,1.00000001649321,-0.187500003092477,0.0458333348996699,0.0244346093386412,-0.118202425539494,0.0656680166721344
0,1.00972225967599,-0.184722231481934,0.0500000014324589,-0.0873537287116051,-0.161879286170006,0.0830776765942574
0,1.01111115155925,-0.181944447715425,0.0444444460554069,-0.123700208961964,-0.0882700309157372,0.0571159012615681
0,1.04166667574312,-0.188888894975731,0.0652777787193518,-0.0445931628346443,-0.114537231624126,0.0363464802503586
0,1.02083339474202,-0.18333333959868,0.0416666683668809,-0.128892570734024,-0.182648703455925,0.0873537287116051
0,1.01111115155925,-0.177777784221628,0.0361111129898289,-0.217162594199181,-0.220216915011406,0.0934623852372169
0,0.994444448960196,-0.180555567988136,0.0250000007162294,-0.275805652141571,-0.346666038036346,0.103541657328606
0,1.00000001649321,-0.177777784221628,0.0250000007162294,-0.245262399315834,-0.339335650205612,0.0956004112958908
0,1.01805561097552,-0.200000005729836,0.026388891079988,-0.191506251692772,-0.249233022332191,0.0986547395586967
0,1.01666671909226,-0.20972223675665,0.0194444453391775,-0.157603234052658,-0.198836639523506,0.108734011650086
0,1.01944450285877,-0.211111128639904,0.0152777788063885,-0.215330004692078,-0.193033412098885,0.116980694234371
0,1.01805561097552,-0.212499996211229,0.00277777787846293,-0.211970239877701,-0.156076073646545,0.119118720293045
0,1.1291666698927,-0.251388896006557,-0.236111109602691,-0.203723564743996,0.102930791676045,0.0882700309157372
0,1.05833337834217,-0.188888894975731,0.0180555564949145,0.0815505087375641,0.0693332031369209,0.0720821022987366
0,0.95000000594378,-0.24583335278547,0.03194444645704,-0.0354301854968071,-0.0971275717020035,0.145385921001434
0,1.00000001649321,-0.256944463539574,0.0194444453391775,0.0210748501121998,-0.0381790772080422,0.0965167060494423
0,1.04027778385987,-0.250000004123303,0.00277777787846293,0.00397062394768,0.0152716310694814,0.0339030213654041
0,1.02222228662528,-0.233333350148112,0.0250000007162294,0.0122173046693206,0.0204639863222837,0.0345138870179653
0,1.00972225967599,-0.216666671860991,0.0111111115138517,-0.0299323964864016,-0.00519235478714108,0.0897971913218498
0,1.01388893532575,-0.211111128639904,0.0138888899621255,-0.0485637858510017,-0.0397062413394451,0.120340451598167
0,1.00972225967599,-0.195833342236038,-0.00277777787846293,-0.0897971913218498,-0.0708603709936142,0.113926365971565
0,1.00138890837647,-0.215277779977737,-0.00277777787846293,-0.19028452038765,-0.0461203269660473,0.0488692186772823
0,1.01527782720901,-0.195833342236038,-0.0111111115138517,-0.157603234052658,-0.11636982858181,0.0543670058250427
0,1.02083339474202,-0.212499996211229,-0.0361111129898289,-0.263282924890518,-0.019547687843442,0.015577063895762
0,1.00833336779274,-0.20972223675665,-0.0180555564949145,-0.194255143404007,0.0467311926186085,0.00244346098043024
0,0.980555627375371,-0.236111109602691,0.0166666676506515,-0.150578290224075,-0.000305432622553781,0.0372627787292004
0,0.987499989543926,-0.243055569018962,0.00833333382532574,-0.124311074614525,-0.0378736443817616,0.0381790772080422
0,1.0125000434425,-0.252777787889811,-0.00694444498106275,-0.108123145997524,-0.0427605658769607,0.0488692186772823
0,1.01527782720901,-0.259722222994153,-0.0166666676506515,-0.0968221426010132,-0.0418442711234093,0.0430659987032413
0,1.0125000434425,-0.258333331110899,-0.0166666676506515,-0.0882700309157372,-0.0265726372599602,0.0360410511493683
0,1.00555558402623,-0.265277790527169,-0.00555555575692586,-0.0510072484612465,-0.0229074470698834,0.0329867228865623
0,1.00416669214298,-0.262500006760661,-0.00972222266958873,-0.0134390350431204,-0.00946841109544039,0.0134390350431204
0,1.00972225967599,-0.25555557165632,-0.0194444453391775,-0.0045814891345799,0.0021380283869803,-0.00427605677396059
0,1.00972225967599,-0.25555557165632,-0.0111111115138517,0.00152716308366507,0.0100792767480016,-0.00244346098043024
0,1.00972225967599,-0.258333331110899,-0.0125000003581147,0.0109955742955208,0.0122173046693206,-0.0021380283869803
0,1.00000001649321,-0.262500006760661,-0.0125000003581147,0.0363464802503586,-0.0161879286170006,0.0125227374956012
0,0.99583334084345,-0.265277790527169,-0.0222222230277034,0.0574213340878487,-0.0366519130766392,0.0167987942695618
0,1.00555558402623,-0.263888898643915,-0.0361111129898289,0.0717766657471657,-0.0323758572340012,0.0320704244077206
0,1.00416669214298,-0.266666682410424,-0.0250000007162294,0.0919352173805237,-0.0332921557128429,0.0354301854968071
0,0.99583334084345,-0.272222225631511,-0.0180555564949145,0.154243469238281,-0.0531452745199203,0.0314595587551594
0,1.00138890837647,-0.281944444502361,-0.027777779924251,0.216246291995048,-0.076052725315094,0.0128281703218818
0,1.00138890837647,-0.281944444502361,-0.027777779924251,0.270918726921081,-0.0647517144680023,-0.00183259579353034
0,0.998611124609959,-0.281944444502361,-0.0513888902767219,0.301767438650131,-0.0659734457731247,0.00977384392172098
0,1.00277780025972,-0.279166685047782,-0.0472222237439329,0.324064016342163,-0.0641408488154411,0.0100792767480016
0,1.00972225967599,-0.265277790527169,-0.0458333348996699,0.372933238744736,-0.0647517144680023,0.0100792767480016
