Activity,acc_x,acc_y,acc_z,gyro_x,gyro_y,gyro_z
0,0.379166681834717,0.00694444498106275,0.915277806110144,-0.0033597587607801,-0.0534507073462009,-0.0412334054708481
0,0.379166681834717,0.0222222230277034,0.926388941176177,0.0439822971820831,-0.0397062413394451,-0.0687223374843597
0,0.373611114301701,0.027777779924251,0.895833319744586,0.0595593601465225,-0.00488692196086049,-0.0852157026529312
0,0.354166676560001,0.0250000007162294,0.894444525109048,0.0265726372599602,0.0363464802503586,-0.0809396430850029
0,0.351388892793493,0.0138888899621255,0.87500003874349,-0.00366519158706069,0.109650313854218,-0.0723875313997269
0,0.345833349572405,0.00833333382532574,0.86805557932722,0.0167987942695618,0.128281697630882,-0.0351247526705265
0,0.345833349572405,0.00277777787846293,0.862500011794203,0.105374254286289,0.0897971913218498,0.0177150927484035
0,0.352777784676747,0.00277777787846293,0.872222254976982,0.151494577527046,0.0983493030071259,0.0326812900602817
0,0.402777795226179,0.00277777787846293,0.884722281926269,0.12675453722477,0.0455094613134861,0.0726929605007172
0,0.459722240879953,0.00416666691266287,0.911111130460381,0.00946841109544039,-0.0226020142436027,0.0580321997404099
0,0.495833332596844,0.00416666691266287,0.919444481759906,-0.0143553335219622,-0.145691365003586,0.0503963828086853
0,0.6125000076709,-0.0166666676506515,1.02777785415829,-0.00977384392172098,-0.379347324371338,-0.00519235478714108
0,0.686111131611794,-0.0250000007162294,1.07638897282447,-0.130114302039146,-0.599564254283905,0.0207694191485643
0,0.715277812536273,-0.029166668768514,1.08472222687628,-0.303905457258224,-0.800233483314514,0.157297804951668
0,0.66527780198684,-0.029166668768514,1.05555559457566,-0.387593984603882,-0.839023411273956,0.196393176913261
0,0.622222250853679,-0.026388891079988,1.0361111082101,-0.439212113618851,-0.848797261714935,0.246178686618805
0,0.548611126912784,-0.0194444453391775,0.973611167959101,-0.441960990428925,-0.816421389579773,0.25411993265152
0,0.548611126912784,-0.0194444453391775,0.973611167959101,-0.430049121379852,-0.781602084636688,0.244040668010712
0,0.384722225055805,0.00833333382532574,0.806944482335612,-0.343611687421799,-0.679282128810883,0.103541657328606
0,0.294444447139719,0.033333335301303,0.740277817810989,-0.281914323568344,-0.494495421648026,-0.111482910811901
0,0.240277785252453,0.0388888906783549,0.679166672195524,-0.142026171088219,-0.214108273386955,-0.296880513429642
0,0.211111128639904,0.0180555564949145,0.654166666920807,0.181121543049812,0.0965167060494423,-0.448680520057678
0,0.237500001485945,-0.00555555575692586,0.663888910103586,0.433408886194229,0.259923160076141,-0.484110713005066
0,0.273611117514765,-0.0250000007162294,0.686111131611794,0.626442313194275,0.298407673835754,-0.460286974906921
0,0.313888909193348,-0.03194444645704,0.736111142161226,0.690277755260468,0.357050746679306,-0.282525181770325
0,0.375000006184955,-0.0388888906783549,0.827777811960566,0.564134061336517,0.334143280982971,-0.0821613743901253
0,0.493055597454194,-0.0222222230277034,0.890277849459286,0.448069661855698,0.223576679825783,0.0213802829384804
0,0.493055597454194,-0.0222222230277034,0.890277849459286,0.0271835029125214,0.0830776765942574,0.153021737933159
0,0.630555602153203,0.0250000007162294,0.962500032893068,-0.0439822971820831,0.193949714303017,0.12705996632576
0,0.620833358970425,0.0222222230277034,0.954166681593543,-0.0369573459029198,0.199142068624496,0.076052725315094
0,0.600000029345471,0.0180555564949145,0.93750007624221,-0.0021380283869803,0.16951510310173,0.0345138870179653
0,0.591666678045946,0.0138888899621255,0.933333400592447,0.00610865233466029,0.136833816766739,0.00702495034784079
0,0.565277780887976,0.00555555575692586,0.899999995394348,-0.00244346098043024,0.0507018156349659,-0.019547687843442
0,0.550000018796039,0.00277777787846293,0.898611103511094,0.00916297826915979,-0.0226020142436027,-0.01588249579072
0,0.536111148587356,-0.00138888893923146,0.884722281926269,0.0354301854968071,-0.0681114718317986,-0.00549778714776039
0,0.515277818962402,0.00555555575692586,0.886111173809523,0.0626136884093285,-0.12156218290329,0.021685715764761
0,0.522222229754814,0.00555555575692586,0.895833319744586,0.110566608607769,-0.0650571510195732,-0.00916297826915979
0,0.522222229754814,0.00277777787846293,0.902777779160856,0.127670839428902,-0.0351247526705265,-0.0299323964864016
0,0.515277818962402,0.0194444453391775,0.894444525109048,0.0452040284872055,-0.101098194718361,0.0360410511493683
0,0.480555570504907,0.0388888906783549,0.87500003874349,-0.0726929605007172,-0.203112691640854,0.0448985956609249
0,0.515277818962402,0.027777779924251,0.877777822509998,-0.100792765617371,-0.193033412098885,0.011606439948082
0,0.536111148587356,0.0152777788063885,0.890277849459286,-0.0497855171561241,-0.114842668175697,-0.0287106670439243
0,0.534722256704101,0.0180555564949145,0.906944454810619,-0.0198531206697226,-0.0326812900602817,-0.0885754600167274
0,0.511111143312639,0.0194444453391775,0.887500065692777,-0.0125227374956012,0.0253509078174829,-0.0803287774324417
0,0.488888921804431,0.0194444453391775,0.866666687443965,0.0406225398182869,0.0345138870179653,-0.0705549344420433
0,0.462500024646461,0.0180555564949145,0.855555552377932,0.0891863256692886,-0.0027488935738802,-0.0329867228865623
0,0.479166678621653,0.0208333341834404,0.848611190209378,0.0791070461273193,-0.0177150927484035,-0.0131336031481624
0,0.497222224480098,0.0361111129898289,0.861111119910949,0.0201585534960032,-0.0971275717020035,0.0143553335219622
0,0.516666662221798,0.0375000018340919,0.870833363093728,-0.0836885422468185,-0.213191971182823,0.0507018156349659
0,0.490277813687686,0.03194444645704,0.866666687443965,-0.149661988019943,-0.223576679825783,0.114537231624126
0,0.483333354271415,0.0236111118719664,0.880555606276507,-0.0858265683054924,-0.123089343309402,0.078801617026329
0,0.493055597454194,0.0222222230277034,0.869444471210474,0.000610865245107561,-0.0561996027827263,0.0540615729987621
0,0.54027777561326,0.0180555564949145,0.87500003874349,-0.015577063895762,-0.156076073646545,-0.0256563406437635
0,0.565277780887976,0.00416666691266287,0.873611146860236,-0.109344877302647,-0.382707089185715,-0.0351247526705265
0,0.509722251429385,0.00416666691266287,0.862500011794203,-0.160962998867035,-0.426689386367798,0.106595985591412
0,0.493055597454194,0.00416666691266287,0.854166660494678,-0.0806342139840126,-0.384234249591827,0.104763388633728
0,0.536111148587356,0.00833333382532574,0.843055622676362,0.0140499006956816,-0.313984721899033,0.0302378293126821
0,0.576388915954009,0.0152777788063885,0.854166660494678,0.0488692186772823,-0.263893783092499,-0.0268780700862408
0,0.587500002396184,0.0152777788063885,0.843055622676362,0.0293215326964855,-0.224798411130905,-0.0662788823246956
0,0.600000029345471,-0.00694444498106275,0.82222224442755,0.0226020142436027,-0.12705996632576,-0.0937678143382072
0,0.594444461812454,-0.0180555564949145,0.825000028194058,0.0442877300083637,-0.0467311926186085,-0.102930791676045
0,0.545833343146276,-0.00694444498106275,0.831944487610329,0.0821613743901253,-0.0229074470698834,-0.0555887371301651
0,0.526388905404577,0.00277777787846293,0.831944487610329,0.140193566679955,0.0452040284872055,-0.0387899428606033
0,0.497222224480098,-0.00138888893923146,0.823611136310804,0.145080491900444,-0.0033597587607801,-0.0357356183230877
0,0.536111148587356,0.00833333382532574,0.834722271376837,0.10567969083786,-0.147829383611679,0.0167987942695618
0,0.554166694445801,0.00972222266958873,0.843055622676362,0.08460483700037,-0.213802829384804,0.0540615729987621
0,0.531944472937593,0.00555555575692586,0.820833352544296,0.0406225398182869,-0.257479697465897,0.0839939713478088
0,0.505555575779623,0.00972222266958873,0.82916670384382,0.0687223374843597,-0.310930401086807,0.125838235020638
0,0.504166683896369,0.00972222266958873,0.808333374218867,0.0690277740359306,-0.323758572340012,0.166460782289505
0,0.529166689171085,0.00694444498106275,0.801388914802596,-0.00702495034784079,-0.414777487516403,0.245567828416824
0,0.551388910679293,0.00694444498106275,0.804166698569104,-0.0537561401724815,-0.364991992712021,0.281303435564041
0,0.580555591603771,0.00694444498106275,0.815277785011279,-0.0852157026529312,-0.353996396064758,0.235183119773865
0,0.581944483487025,-0.00555555575692586,0.793055563503071,-0.11606439948082,-0.597120761871338,0.213802829384804
0,0.577777807837263,-0.0236111118719664,0.806944482335612,-0.100792765617371,-0.472809702157974,0.263588339090347
0,0.641666688595378,-0.0375000018340919,0.811111157985375,-0.131336033344269,-0.794430255889893,0.223271250724793
0,0.641666688595378,-0.0375000018340919,0.811111157985375,-0.277943700551987,-0.918130457401276,0.171653136610985
0,0.668055585753349,-0.00416666691266287,0.78333336894415,-0.74464476108551,-1.83778810501099,0.103847093880177
0,0.633333337295854,-0.03194444645704,0.793055563503071,-0.744950175285339,-2.11206650733948,0.427605658769607
0,0.748611120486655,-0.0541666679652478,0.788888936477167,-0.273667633533478,-1.58153009414673,0.516181111335754
0,0.763888931202451,-0.112499999424294,0.690277807261557,0.0305432621389627,-2.22965812683106,0.462119549512863
0,0.848611190209378,-0.0361111129898289,0.493055597454194,-0.328340083360672,-3.23300433158875,0.576351344585419
0,0.861111119910949,-0.0222222230277034,0.513888927079148,-0.537866830825806,-3.791335105896,0.638354182243347
0,0.856944444261187,-0.130555557438704,0.634722229179108,-0.574518740177155,-5.13035154342651,0.505185544490814
0,1.07361118905796,-0.206944452990142,0.677777780312269,-0.964556217193604,-6.48708343505859,-0.119424156844616
0,1.1291666698927,-0.151388899219622,0.404166687109433,-1.84084236621857,-6.64743566513062,-0.627664029598236
0,1.03888889197661,-0.115277783190802,0.170833336961321,-1.57542145252228,-4.95778226852417,-0.457232624292374
0,1.02638896227504,-0.12777778582816,0.03194444645704,-0.314595609903336,-3.12701916694641,-0.229685336351395
0,1.03194452980806,-0.14722222356986,-0.030555557612777,0.741284966468811,-3.73116493225098,-0.587346911430359
0,0.959722249126559,-0.0486111125881959,-0.151388899219622,0.950200915336609,-4.24368095397949,-0.0693332031369209
0,0.82222224442755,-0.0680555564078778,-0.166666673467524,0.599564254283905,-5.65111446380615,0.431270867586136
0,0.781944477060896,-0.12777778582816,-0.123611110178398,0.309097826480865,-6.13675212860107,0.710436284542084
0,0.840277838909853,-0.12777778582816,-0.0569444456537738,0.0381790772080422,-3.41901278495789,0.542753756046295
0,0.884722281926269,-0.0750000036681839,-0.243055569018962,-0.311235845088959,-2.48591613769531,0.365908294916153
0,0.82222224442755,-0.13750000469901,-0.358333352209763,-0.308792382478714,-3.43061923980713,0.22174409031868
0,0.82222224442755,-0.13750000469901,-0.358333352209763,0.451734840869904,-2.07663631439209,0.473726004362106
0,0.819444460661041,-0.150000007336368,-0.380555573717971,0.995099484920502,-0.682336449623108,0.299323976039886
0,0.85138887672817,-0.0652777787193518,-0.493055597454194,0.540004849433899,-2.0079140663147,-0.125838235020638
0,0.93750007624221,-0.111111119697004,-0.452777781463682,0.214413702487946,-1.64108943939209,-0.244956970214844
0,0.93750007624221,-0.111111119697004,-0.452777781463682,0.22724187374115,-0.132863193750381,-0.115758962929249
0,1.04166667574312,-0.130555557438704,-0.536111148587356,0.115148097276688,-0.739146947860718,0.212275668978691
0,1.04027778385987,-0.170833336961321,-0.534722256704101,-0.0412334054708481,0.257174253463745,0.698829829692841
0,1.00694447590948,-0.20138889761309,-0.42916666807222,-0.304210901260376,0.497549742460251,1.17408299446106
0,0.852777768611424,-0.216666671860991,-0.451388889580428,-0.10598511993885,0.801149785518646,0.855516791343689
0,0.752777796136418,-0.230555566381603,-0.468055592179478,-0.145691365003586,0.0213802829384804,-0.029626963660121
0,0.755555579902926,-0.220833347510754,-0.455555565230191,-0.287106662988663,-0.234877690672875,-0.996626675128937
0,1.00000001649321,-0.243055569018962,-0.536111148587356,-0.207388743758202,-0.568410098552704,-0.681420207023621
0,1.20000005869094,-0.111111119697004,-0.66527780198684,0.00855211354792118,-0.0671951770782471,0.279165416955948
0,1.06250005399193,-0.116666675074056,-0.663888910103586,0.372933238744736,0.491135656833649,0.763581573963165
0,0.862500011794203,-0.111111119697004,-0.605555596878487,0.57757306098938,0.924849987030029,0.71318519115448
0,0.712500028769764,-0.180555567988136,-0.522222229754814,0.354607284069061,0.63438355922699,0.109650313854218
0,0.565277780887976,-0.261111114877407,-0.408333338447267,0.388815730810165,0.625526010990143,-0.857043921947479
0,0.541666667496514,-0.293055555256465,-0.338888890156135,0.300851136445999,1.06046211719513,-1.09619772434235
0,1.08333333499303,-0.256944463539574,-0.393055576355329,-0.317955374717712,-0.242208063602448,-0.758389174938202
0,1.34027784715646,-0.202777789496344,-0.609722223904392,0.225714713335037,-0.216246291995048,-0.00244346098043024
0,1.02222228662528,-0.250000004123303,-0.49166670557094,-0.0226020142436027,-0.379652738571167,-0.0161879286170006
0,0.87500003874349,-0.262500006760661,-0.509722251429385,0.05283984541893,-0.211053937673569,-0.427911102771759
0,0.761111147435943,-0.250000004123303,-0.515277818962402,0.015577063895762,0.0604756586253643,-0.218384325504303
0,0.759722255552688,-0.12916666555545,-0.600000029345471,-0.0650571510195732,0.375071257352829,0.876591622829437
0,0.948611114060526,-0.104166672436698,-0.613888899554154,0.0229074470698834,1.07542824745178,0.809091031551361
0,0.873611146860236,-0.148611115453114,-0.512500035195893,0.00427605677396059,1.28190076351166,0.972802877426147
0,0.902777779160856,-0.202777789496344,-0.319444452414435,-0.0339030213654041,1.3744467496872,0.626747727394104
0,1.04305556762637,-0.298611122789481,-0.331944455051793,0.0342084541916847,0.830776751041412,0.458454370498657
0,0.979166735492117,-0.250000004123303,-0.308333341660331,0.0473420582711697,-0.021685715764761,0.303905457258224
0,1.00138890837647,-0.325000019947452,-0.327777779402031,0.120340451598167,-0.19058994948864,0.247094988822937
0,1.00277780025972,-0.266666682410424,-0.370833354847121,0.0204639863222837,-0.447764217853546,0.0247400421649218
0,0.99583334084345,-0.238888893369199,-0.430555559955475,0.0479529201984406,-0.489303052425385,0.0299323964864016
0,0.86805557932722,-0.237500001485945,-0.390277792588821,-0.207388743758202,-0.904385983943939,0.108734011650086
0,0.849999984844916,-0.226388890731841,-0.405555578992687,-0.103541657328606,-0.921795666217804,0.188757359981537
0,0.904166671044111,-0.259722222994153,-0.44583337067127,-0.0778853222727776,-0.683558225631714,0.124311074614525
0,0.944444438410764,-0.293055555256465,-0.493055597454194,0.0213802829384804,-0.201890960335732,-0.0229074470698834
0,0.904166671044111,-0.262500006760661,-0.506944467662877,0.00733038317412138,-0.0021380283869803,-0.01588249579072
0,0.86805557932722,-0.265277790527169,-0.519444445988306,0.0464257597923279,0.149661988019943,0.414472073316574
0,0.647222256128395,-0.193055558469529,-0.427777776188966,-0.0708603709936142,-0.167377084493637,0.786489009857178
0,1.08611111875954,-0.341666673922643,-0.529166689171085,-0.0204639863222837,0.418748140335083,-0.00855211354792118
0,0.96666670854283,-0.304166666010569,-0.500000008246606,-0.0678060427308083,0.349720358848572,-0.0363464802503586
0,0.919444481759906,-0.280555576931036,-0.444444478788016,-0.0885754600167274,0.136833816766739,-0.0598647929728031
0,0.879166714393253,-0.265277790527169,-0.437500019371745,0.0222965814173222,0.139277279376984,-0.00183259579353034
0,0.887500065692777,-0.279166685047782,-0.452777781463682,0.130419731140137,0.21135938167572,0.0253509078174829
0,0.89722221162784,-0.29166668768514,-0.447222262554524,0.109039448201656,0.191506251692772,0.00916297826915979
0,0.898611103511094,-0.279166685047782,-0.466666700296224,0.087659165263176,0.355523586273193,0.00885754637420177
0,0.884722281926269,-0.266666682410424,-0.452777781463682,0.04764748737216,0.329561799764633,0.0235183127224445
0,0.866666687443965,-0.265277790527169,-0.461111132763207,-0.0366519130766392,0.487470477819443,-0.0629191175103188
0,0.870833363093728,-0.279166685047782,-0.430555559955475,-0.0473420582711697,0.558330833911896,-0.205556154251099
0,0.844444514559616,-0.295833339022973,-0.420833365396554,-0.0427605658769607,0.559858024120331,-0.541226625442505
0,0.922222265526414,-0.272222225631511,-0.400000011459671,-0.011606439948082,0.424856781959534,-0.470366239547729
0,0.959722249126559,-0.241666677135707,-0.411111122213775,0.0277943685650826,0.372933238744736,-0.261755764484406
0,0.930555616825939,-0.243055569018962,-0.413888905980283,0.01191187184304,0.37568211555481,-0.239459171891212
0,0.915277806110144,-0.241666677135707,-0.402777795226179,0.01588249579072,0.36987891793251,-0.298407673835754
0,0.923611157409668,-0.233333350148112,-0.387500008822313,0.0177150927484035,0.282219737768173,-0.266642689704895
0,0.962500032893068,-0.229166674498349,-0.363888895430851,0.04764748737216,0.0986547395586967,-0.111788339912891
0,0.956944465360051,-0.231944458264858,-0.381944465601225,-0.0180205255746841,0.143553331494331,-0.0693332031369209
0,0.905555562927365,-0.224999998848587,-0.394444468238583,-0.118507854640484,0.167377084493637,0.121867619454861
0,0.751388904253164,-0.227777782615095,-0.373611114301701,-0.191200822591782,-0.0113010071218014,0.468228220939636
0,0.887500065692777,-0.236111109602691,-0.383333357484479,-0.133474051952362,0.0265726372599602,0.526871263980865
0,1.07916665934326,-0.304166666010569,-0.387500008822313,-0.0558941699564457,0.0302378293126821,0.109344877302647
0,1.0305556379248,-0.281944444502361,-0.361111135976272,0.0314595587551594,-0.0555887371301651,-0.0647517144680023
0,0.975000059842355,-0.273611117514765,-0.361111135976272,0.0821613743901253,-0.027488935738802,-0.191811680793762
0,0.905555562927365,-0.254166679773066,-0.359722244093018,0.0604756586253643,0.0366519130766392,-0.398589581251144
0,0.87500003874349,-0.247222220356795,-0.388888900705567,-0.00733038317412138,0.00794124789535999,-0.497549742460251
0,0.825000028194058,-0.226388890731841,-0.381944465601225,-0.0192422550171614,-0.0821613743901253,-0.430354565382004
0,0.791666671619817,-0.197222234119292,-0.397222227693163,-0.081855945289135,-0.134084925055504,-0.124616511166096
0,0.968055600426084,-0.233333350148112,-0.440277803138253,-0.162490159273148,0.1750128865242,-0.124311074614525
0,1.02500007039179,-0.227777782615095,-0.377777789951463,-0.148134827613831,0.0919352173805237,-0.170431405305862
0,1.11111117265811,-0.224999998848587,-0.388888900705567,-0.124311074614525,0.261450320482254,-0.255036234855652
0,1.0125000434425,-0.233333350148112,-0.366666679197359,-0.0335975885391235,0.170431405305862,-0.213191971182823
0,0.848611190209378,-0.229166674498349,-0.375000006184955,0.0100792767480016,0.183565005660057,-0.110566608607769
0,0.536111148587356,-0.125000002061652,-0.327777779402031,-0.0201585534960032,0.211970239877701,0.846964657306671
0,0.884722281926269,-0.211111128639904,-0.325000019947452,-0.0335975885391235,0.189062789082527,0.947757422924042
0,1.17361111290911,-0.273611117514765,-0.333333346935047,0.0852157026529312,0.34391713142395,0.279165416955948
0,1.00694447590948,-0.258333331110899,-0.325000019947452,0.149661988019943,0.234877690672875,0.280387133359909
0,0.958333357243305,-0.259722222994153,-0.341666673922643,0.122173048555851,0.0870482996106148,0.256257981061935
0,1.03888889197661,-0.262500006760661,-0.347222241455659,0.0577267669141293,0.22235494852066,-0.01191187184304
0,1.1236111996074,-0.273611117514765,-0.359722244093018,-0.0109955742955208,0.304821759462357,-0.22204951941967
0,0.972222276075846,-0.254166679773066,-0.356944460326509,-0.0995710343122482,0.342695415019989,-0.310319542884827
0,0.941666654644256,-0.244444460902216,-0.333333346935047,-0.107206851243973,0.210443079471588,-0.352469235658646
0,0.976388951725609,-0.236111109602691,-0.320833344297689,-0.0595593601465225,0.187230199575424,-0.219606056809425
0,0.970833384192592,-0.229166674498349,-0.315277801076602,0.0201585534960032,0.11117747426033,-0.103847093880177
0,0.96666670854283,-0.230555566381603,-0.327777779402031,0.0280998013913631,0.114231802523136,-0.0678060427308083
0,0.961111141009813,-0.226388890731841,-0.329166671285285,-0.000305432622553781,0.076052725315094,-0.0601702257990837
0,0.956944465360051,-0.224999998848587,-0.325000019947452,-0.0128281703218818,0.0729983970522881,-0.0882700309157372
0,0.959722249126559,-0.224999998848587,-0.306944449777077,0.0186313893646002,0.0482583530247212,-0.0842994004487991
0,0.962500032893068,-0.215277779977737,-0.327777779402031,0.0363464802503586,0.0641408488154411,-0.0540615729987621
0,0.969444492309338,-0.223611131277262,-0.326388911830706,-0.00610865233466029,0.0815505087375641,-0.0235183127224445
0,0.956944465360051,-0.226388890731841,-0.336111130701556,-0.0394008085131645,0.01191187184304,-0.0128281703218818
0,0.959722249126559,-0.216666671860991,-0.315277801076602,-0.0632245540618896,-0.0339030213654041,-0.0372627787292004
0,0.947222222177272,-0.212499996211229,-0.305555557893823,-0.0601702257990837,-0.0931569486856461,-0.0366519130766392
0,0.95000000594378,-0.222222239394008,-0.312500017310094,-0.0287106670439243,-0.0100792767480016,-0.0403171069920063
0,0.983333411141879,-0.229166674498349,-0.327777779402031,-0.00519235478714108,0.0959058403968811,-0.0253509078174829
0,0.976388951725609,-0.234722242031366,-0.320833344297689,0.0152716310694814,0.127670839428902,-0.013744467869401
0,0.959722249126559,-0.224999998848587,-0.336111130701556,0.0311541277915239,-0.00427605677396059,0.0406225398182869
0,0.969444492309338,-0.20972223675665,-0.304166666010569,0.0308486949652433,0.0888808965682983,0.0241291765123606
0,0.979166735492117,-0.216666671860991,-0.295833339022973,0.0244346093386412,0.0959058403968811,-0.0571159012615681
0,0.968055600426084,-0.224999998848587,-0.312500017310094,0.134695783257484,0.121867619454861,-0.119118720293045
0,0.972222276075846,-0.2194444556275,-0.308333341660331,0.221438646316528,0.0613919571042061,-0.0842994004487991
0,0.959722249126559,-0.211111128639904,-0.315277801076602,0.213497400283814,-0.00946841109544039,-0.00366519158706069
0,0.963888924776322,-0.206944452990142,-0.318055560531181,0.135306656360626,-0.0510072484612465,0.0394008085131645
0,0.930555616825939,-0.198611113846581,-0.309722233543585,-0.113620936870575,-0.0852157026529312,0.0390953756868839
0,0.93750007624221,-0.193055558469529,-0.309722233543585,-0.341473668813705,-0.0839939713478088,0.00824668072164059
0,0.99583334084345,-0.218055563744246,-0.280555576931036,-0.377209275960922,-0.172263994812965,-0.0152716310694814
0,0.969444492309338,-0.226388890731841,-0.293055555256465,-0.266337245702743,-0.38117989897728,-0.0836885422468185
0,0.991666665193688,-0.226388890731841,-0.308333341660331,-0.168293371796608,-0.693637490272522,-0.0910189226269722
0,1.00555558402623,-0.20972223675665,-0.322222236180943,-0.0552833043038845,-0.994794070720673,-0.0485637858510017
0,1.00833336779274,-0.180555567988136,-0.373611114301701,0.135001212358475,-0.74006325006485,0.0626136884093285
0,0.961111141009813,-0.190277786858986,-0.388888900705567,0.491746515035629,0.0537561401724815,0.0775798857212067
0,0.961111141009813,-0.190277786858986,-0.388888900705567,0.107512280344963,-0.263282924890518,-0.013744467869401
0,0.936111184358955,-0.230555566381603,-0.515277818962402,-0.152105450630188,0.353385537862778,-0.00244346098043024
0,0.923611157409668,-0.244444460902216,-0.229166674498349,0.00671951752156019,0.790154218673706,-0.00946841109544039
0,0.923611157409668,-0.244444460902216,-0.229166674498349,0.0268780700862408,-0.225103840231896,-0.0671951770782471
0,0.934722292475701,-0.229166674498349,-0.297222230906227,0.0442877300083637,0.00763581553474069,-0.0247400421649218
0,0.955555573476797,-0.222222239394008,-0.327777779402031,0.0595593601465225,-0.123394779860973,-0.0354301854968071
0,0.955555573476797,-0.222222239394008,-0.327777779402031,0.0580321997404099,-0.0201585534960032,-0.0387899428606033
0,0.96666670854283,-0.204166669223633,-0.348611133338914,0.0635299831628799,0.0436768643558025,-0.0335975885391235
0,0.956944465360051,-0.202777789496344,-0.338888890156135,0.0613919571042061,0.0775798857212067,-0.0259617734700441
0,0.958333357243305,-0.20972223675665,-0.325000019947452,0.070249505341053,0.0299323964864016,-0.011606439948082
0,0.958333357243305,-0.20972223675665,-0.325000019947452,0.0467311926186085,0.0332921557128429,-0.0381790772080422
0,0.958333357243305,-0.212499996211229,-0.325000019947452,0.0513126812875271,0.0357356183230877,-0.0497855171561241
0,0.956944465360051,-0.20972223675665,-0.327777779402031,0.05283984541893,0.00855211354792118,-0.0381790772080422
0,0.956944465360051,-0.20972223675665,-0.327777779402031,0.0522289797663689,0.0128281703218818,-0.0424551330506802
0,0.970833384192592,-0.198611113846581,-0.334722238818301,0.0262672062963247,0.0665843114256859,-0.0552833043038845
0,0.947222222177272,-0.226388890731841,-0.308333341660331,0.0406225398182869,0.129197999835014,-0.0329867228865623
0,0.916666697993398,-0.187500003092477,-0.273611117514765,0.0925460830330849,-0.0183259565383196,0.0879645943641663
0,0.916666697993398,-0.187500003092477,-0.273611117514765,0.146913096308708,-0.261755764484406,-0.0589484944939613
0,0.93750007624221,-0.2194444556275,-0.312500017310094,0.0858265683054924,-0.184786736965179,-0.0189368221908808
0,0.959722249126559,-0.220833347510754,-0.351388892793493,0.0448985956609249,-0.0824668109416962,-0.0494800843298435
0,0.94305554652751,-0.212499996211229,-0.329166671285285,0.116980694234371,-0.356745302677154,-0.0464257597923279
0,0.927777833059431,-0.213888888094483,-0.298611122789481,0.0366519130766392,-0.172263994812965,-0.0491746515035629
0,1.00833336779274,-0.229166674498349,-0.454166673346937,0.122173048555851,-0.125227376818657,-0.0641408488154411
0,0.926388941176177,-0.197222234119292,-0.361111135976272,0.0488692186772823,-0.112093769013882,0.00366519158706069
0,0.948611114060526,-0.205555561106887,-0.366666679197359,0.021685715764761,-0.17440202832222,0.0412334054708481
0,0.945833330294018,-0.206944452990142,-0.334722238818301,-0.0436768643558025,-0.238848313689232,0.0366519130766392
0,0.947222222177272,-0.215277779977737,-0.329166671285285,0.0861319974064827,-0.366824567317963,0.0378736443817616
0,0.947222222177272,-0.223611131277262,-0.325000019947452,-0.0638354197144508,-0.287106662988663,-0.0140499006956816
0,0.95000000594378,-0.216666671860991,-0.348611133338914,0.124921940267086,-0.275194793939591,-0.0445931628346443
0,0.951388897827035,-0.229166674498349,-0.368055571080613,0.177456349134445,-0.275805652141571,-0.0397062413394451
0,0.931944508709193,-0.223611131277262,-0.365277787314105,0.182954147458077,-0.240375474095344,0.013744467869401
0,0.945833330294018,-0.197222234119292,-0.380555573717971,0.106290549039841,-0.214719131588936,0.0409279726445675
0,0.927777833059431,-0.197222234119292,-0.372222246730376,0.0778853222727776,-0.371406078338623,0.0626136884093285
0,0.936111184358955,-0.206944452990142,-0.365277787314105,0.0372627787292004,-0.464563012123108,0.0717766657471657
0,0.923611157409668,-0.206944452990142,-0.394444468238583,-0.03176499158144,-0.506407260894775,0.0910189226269722
0,0.918055589876652,-0.206944452990142,-0.395833335809908,-0.0314595587551594,-0.599564254283905,0.107512280344963
0,0.915277806110144,-0.206944452990142,-0.397222227693163,-0.00946841109544039,-0.670119166374207,0.108123145997524
0,0.926388941176177,-0.206944452990142,-0.438888911254999,-0.0320704244077206,-0.612086951732635,0.0803287774324417
0,0.940277860008718,-0.236111109602691,-0.430555559955475,0.0739146918058395,-0.448069661855698,0.0907134860754013
0,0.930555616825939,-0.224999998848587,-0.447222262554524,-0.00885754637420177,-0.261144906282425,0.0351247526705265
0,0.940277860008718,-0.236111109602691,-0.480555570504907,-0.0271835029125214,-0.0149661982432008,0.0219911485910416
0,0.963888924776322,-0.234722242031366,-0.49444444071359,-0.0558941699564457,0.499993205070496,0.0161879286170006
0,0.95000000594378,-0.206944452990142,-0.551388910679293,0.0461203269660473,0.398894995450974,0.0177150927484035
0,0.952777789710289,-0.212499996211229,-0.502777792013115,-0.021685715764761,0.478918343782425,0.0045814891345799
0,0.881944498159761,-0.233333350148112,-0.418055581630046,0.182343274354935,0.207083314657211,0.0406225398182869
0,0.886111173809523,-0.237500001485945,-0.469444484062732,0.0531452745199203,0.49632802605629,0.0784961804747581
0,0.926388941176177,-0.226388890731841,-0.438888911254999,-0.0757472887635231,0.545808076858521,0.0412334054708481
0,0.918055589876652,-0.223611131277262,-0.418055581630046,-0.150578290224075,0.574213325977325,0.03176499158144
0,0.965277816659576,-0.223611131277262,-0.413888905980283,-0.299018532037735,0.958752989768982,0.00152716308366507
0,0.991666665193688,-0.236111109602691,-0.370833354847121,0.11636982858181,1.09222710132599,-0.0308486949652433
0,0.951388897827035,-0.24583335278547,-0.318055560531181,-0.194560587406159,0.582765460014343,0.02382374368608
0,0.980555627375371,-0.262500006760661,-0.469444484062732,-0.338724792003632,0.901942551136017,0.0103847095742822
0,0.969444492309338,-0.269444466176932,-0.218055563744246,0.120340451598167,0.418748140335083,-0.0213802829384804
0,1.00972225967599,-0.233333350148112,-0.273611117514765,0.0662788823246956,0.662177920341492,-0.0400116741657257
0,0.994444448960196,-0.197222234119292,-0.338888890156135,-0.0394008085131645,0.720820963382721,0.000916297896765172
0,0.955555573476797,-0.198611113846581,-0.326388911830706,-0.081855945289135,0.558636248111725,0.00427605677396059
0,0.923611157409668,-0.208333344873396,-0.29166668768514,-0.0229074470698834,0.315817326307297,0.0244346093386412
0,0.911111130460381,-0.198611113846581,-0.281944444502361,-0.0384845100343227,0.168598800897598,0.076052725315094
0,0.958333357243305,-0.213888888094483,-0.265277790527169,-0.00122173049021512,0.0641408488154411,0.0561996027827263
0,0.970833384192592,-0.224999998848587,-0.24583335278547,-0.00305432616733015,-0.145080491900444,0.0122173046693206
0,0.965277816659576,-0.227777782615095,-0.258333331110899,0.00397062394768,-0.210443079471588,0.00122173049021512
0,0.980555627375371,-0.229166674498349,-0.298611122789481,-0.00122173049021512,-0.122783914208412,-0.0183259565383196
0,1.00277780025972,-0.211111128639904,-0.308333341660331,-0.013744467869401,-0.013744467869401,-0.0149661982432008
0,0.977777843608863,-0.208333344873396,-0.306944449777077,-0.0439822971820831,-0.0925460830330849,-0.0204639863222837
0,0.979166735492117,-0.200000005729836,-0.298611122789481,-0.0113010071218014,-0.109650313854218,-0.0192422550171614
0,0.969444492309338,-0.218055563744246,-0.281944444502361,0.0394008085131645,-0.261144906282425,-0.00916297826915979
0,0.954166681593543,-0.222222239394008,-0.287500012035377,0.0696386396884918,-0.326812893152237,0.00427605677396059
0,0.96666670854283,-0.226388890731841,-0.298611122789481,0.0922406539320946,-0.336586743593216,-0.000305432622553781
0,0.95000000594378,-0.212499996211229,-0.323611128064198,0.05283984541893,-0.46059238910675,0.00549778714776039
0,0.913888914226889,-0.212499996211229,-0.301388906555989,-0.0357356183230877,-0.738230645656586,0.0464257597923279
0,0.952777789710289,-0.226388890731841,-0.348611133338914,-0.0940732508897781,-0.629191219806671,0.0390953756868839
0,0.994444448960196,-0.216666671860991,-0.391666684472075,-0.171653136610985,-0.317344486713409,0.0100792767480016
0,1.00138890837647,-0.216666671860991,-0.400000011459671,-0.17470745742321,0.0164933614432812,-0.03176499158144
0,0.951388897827035,-0.212499996211229,-0.355555568443255,-0.102014496922493,-0.01588249579072,-0.0384845100343227
0,0.940277860008718,-0.211111128639904,-0.358333352209763,-0.0836885422468185,-0.0430659987032413,-0.0290160998702049
0,0.948611114060526,-0.206944452990142,-0.377777789951463,-0.136222943663597,-0.0397062413394451,-0.0161879286170006
0,0.936111184358955,-0.202777789496344,-0.398611119576417,-0.249538451433182,-0.136222943663597,0.00946841109544039
0,0.945833330294018,-0.204166669223633,-0.354166676560001,-0.159130394458771,-0.0259617734700441,0.0262672062963247
0,0.969444492309338,-0.213888888094483,-0.345833349572405,-0.0109955742955208,0.0928515195846558,0.0461203269660473
0,0.96666670854283,-0.230555566381603,-0.33750002258481,0.0647517144680023,0.16371189057827,0.0222965814173222
0,0.956944465360051,-0.229166674498349,-0.341666673922643,0.137750118970871,0.144469633698463,-0.00824668072164059
0,0.92083337364316,-0.223611131277262,-0.351388892793493,0.0699440687894821,-0.021685715764761,0.00122173049021512
0,0.922222265526414,-0.212499996211229,-0.345833349572405,0.0714712366461754,-0.0885754600167274,0.00580321997404099
0,0.933333400592447,-0.212499996211229,-0.361111135976272,0.0302378293126821,-0.126449108123779,0.0125227374956012
0,0.952777789710289,-0.212499996211229,-0.384722225055805,-0.00885754637420177,-0.0482583530247212,0.00885754637420177
0,0.963888924776322,-0.206944452990142,-0.387500008822313,0.0277943685650826,0.0412334054708481,0.01191187184304
0,0.947222222177272,-0.227777782615095,-0.354166676560001,0.019547687843442,-0.00733038317412138,0.0033597587607801
0,0.952777789710289,-0.226388890731841,-0.358333352209763,-0.01588249579072,0.0100792767480016,-0.0226020142436027
0,0.945833330294018,-0.231944458264858,-0.363888895430851,0.00885754637420177,0.0659734457731247,-0.0213802829384804
0,0.941666654644256,-0.233333350148112,-0.340277782039389,0.148745685815811,0.0687223374843597,0.00580321997404099
0,0.93750007624221,-0.238888893369199,-0.340277782039389,0.23273965716362,0.0482583530247212,0.0201585534960032
0,0.936111184358955,-0.229166674498349,-0.358333352209763,0.180816113948822,0.0421497002243996,0.0033597587607801
0,0.954166681593543,-0.238888893369199,-0.327777779402031,0.263282924890518,0.147218525409698,-0.00671951752156019
0,0.955555573476797,-0.226388890731841,-0.334722238818301,0.212275668978691,0.129503428936005,-0.0131336031481624
0,0.956944465360051,-0.220833347510754,-0.370833354847121,-0.189979091286659,0.0360410511493683,-0.0522289797663689
0,0.969444492309338,-0.223611131277262,-0.352777784676747,-0.192117124795914,0.118813291192055,-0.0397062413394451
0,0.948611114060526,-0.229166674498349,-0.33750002258481,0.0448985956609249,-0.00610865233466029,-0.0021380283869803
0,0.956944465360051,-0.240277785252453,-0.344444457689151,0.0427605658769607,0.00671951752156019,0.000305432622553781
0,0.956944465360051,-0.233333350148112,-0.334722238818301,0.0613919571042061,0.00122173049021512,-0.0131336031481624
0,0.95000000594378,-0.233333350148112,-0.331944455051793,0.0626136884093285,-0.013744467869401,-0.00519235478714108
0,0.952777789710289,-0.226388890731841,-0.334722238818301,0.0699440687894821,-0.0259617734700441,-0.00885754637420177
0,0.948611114060526,-0.223611131277262,-0.336111130701556,0.0800233483314514,-0.0290160998702049,-0.0146607663482428
0,0.951388897827035,-0.223611131277262,-0.333333346935047,0.0879645943641663,-0.0387899428606033,-0.00641408516094089
0,0.95000000594378,-0.233333350148112,-0.331944455051793,0.102319926023483,-0.0433714315295219,-0.0109955742955208
0,0.954166681593543,-0.233333350148112,-0.322222236180943,0.122173048555851,-0.0436768643558025,-0.0131336031481624
0,0.951388897827035,-0.230555566381603,-0.326388911830706,0.138971850275993,-0.0635299831628799,-0.00519235478714108
0,0.95000000594378,-0.229166674498349,-0.333333346935047,0.145385921001434,-0.0870482996106148,-0.0131336031481624
0,0.95000000594378,-0.224999998848587,-0.344444457689151,0.149967417120934,-0.10567969083786,-0.00946841109544039
0,0.954166681593543,-0.215277779977737,-0.348611133338914,0.150883719325066,-0.105068825185299,-0.00885754637420177
0,0.954166681593543,-0.216666671860991,-0.363888895430851,0.149967417120934,-0.076052725315094,-0.0113010071218014
0,0.961111141009813,-0.216666671860991,-0.361111135976272,0.141720741987228,-0.0522289797663689,-0.00122173049021512
0,0.968055600426084,-0.20972223675665,-0.368055571080613,0.11636982858181,-0.0149661982432008,-0.0109955742955208
0,0.969444492309338,-0.197222234119292,-0.381944465601225,0.0852157026529312,-0.01588249579072,-0.0152716310694814
0,0.969444492309338,-0.18333333959868,-0.387500008822313,0.0345138870179653,-0.0027488935738802,-0.00610865233466029
0,0.96666670854283,-0.176388892338373,-0.377777789951463,-0.00488692196086049,0.0213802829384804,-0.0140499006956816
0,0.956944465360051,-0.177777784221628,-0.370833354847121,-0.0561996027827263,0.0436768643558025,0.00152716308366507
0,0.95000000594378,-0.184722231481934,-0.377777789951463,-0.0913243517279625,0.0510072484612465,0.00885754637420177
0,0.933333400592447,-0.213888888094483,-0.384722225055805,-0.0937678143382072,0.0488692186772823,0.0259617734700441
0,0.945833330294018,-0.222222239394008,-0.400000011459671,-0.254730820655823,0.0531452745199203,0.0430659987032413
0,0.95000000594378,-0.218055563744246,-0.313888909193348,-0.35491269826889,0.0390953756868839,0.0470366254448891
0,0.94305554652751,-0.206944452990142,-0.298611122789481,0.0360410511493683,0.113010071218014,0.0537561401724815
0,0.926388941176177,-0.223611131277262,-0.352777784676747,-0.122173048555851,-0.0354301854968071,0.0592539273202419
0,0.93750007624221,-0.241666677135707,-0.362500003547597,-0.0791070461273193,-0.00946841109544039,0.0513126812875271
0,0.929166724942685,-0.24583335278547,-0.358333352209763,-0.0891863256692886,-0.0671951770782471,0.0665843114256859
0,0.975000059842355,-0.269444466176932,-0.426388884305712,-0.0949895456433296,0.0284052342176437,0.0177150927484035
0,0.968055600426084,-0.259722222994153,-0.418055581630046,-0.219606056809425,-0.0583376325666905,0.01191187184304
0,0.916666697993398,-0.269444466176932,-0.363888895430851,-0.16951510310173,-0.176845490932465,0.05283984541893
0,0.947222222177272,-0.256944463539574,-0.315277801076602,0.00824668072164059,-0.115453533828259,0.0513126812875271
0,0.947222222177272,-0.236111109602691,-0.325000019947452,0.0632245540618896,0.00733038317412138,0.0403171069920063
0,0.96666670854283,-0.226388890731841,-0.350000000910239,0.121867619454861,0.109955742955208,0.0519235469400883
0,0.983333411141879,-0.234722242031366,-0.386111116939059,0.145080491900444,0.277943700551987,0.0256563406437635
0,0.973611167959101,-0.238888893369199,-0.400000011459671,0.000305432622553781,0.299018532037735,0.00305432616733015
0,0.95000000594378,-0.234722242031366,-0.370833354847121,-0.196393176913261,0.273973047733307,-0.00916297826915979
0,0.95000000594378,-0.234722242031366,-0.370833354847121,-0.237015709280968,0.205861583352089,-0.0210748501121998
0,0.945833330294018,-0.236111109602691,-0.320833344297689,-0.118507854640484,0.113315500319004,-0.00641408516094089
0,0.929166724942685,-0.236111109602691,-0.308333341660331,0.10567969083786,0.01191187184304,-0.00580321997404099
0,0.929166724942685,-0.236111109602691,-0.308333341660331,0.375376701354981,0.0357356183230877,0.0241291765123606
5,0.984722303025134,-0.204166669223633,-0.348611133338914,0.316428184509277,0.195171445608139,-0.0021380283869803
5,0.954166681593543,-0.212499996211229,-0.313888909193348,0.302683740854263,0.213191971182823,0.0232128798961639
5,0.954166681593543,-0.212499996211229,-0.313888909193348,0.215024560689926,0.0601702257990837,0.0262672062963247
5,0.933333400592447,-0.223611131277262,-0.33750002258481,0.18539759516716,-0.0580321997404099,0.037568211555481
5,0.926388941176177,-0.244444460902216,-0.326388911830706,0.0262672062963247,-0.143553331494331,0.0415388382971287
5,0.926388941176177,-0.244444460902216,-0.326388911830706,-0.00763581553474069,-0.164322748780251,0.0400116741657257
5,0.959722249126559,-0.258333331110899,-0.344444457689151,-0.103847093880177,-0.078801617026329,-0.0027488935738802
5,0.952777789710289,-0.258333331110899,-0.24583335278547,-0.0161879286170006,-0.0671951770782471,0.0320704244077206
5,0.904166671044111,-0.24583335278547,-0.301388906555989,-0.246484130620956,-0.372933238744736,0.0534507073462009
5,0.904166671044111,-0.24583335278547,-0.301388906555989,-0.181732416152954,-0.513432264328003,-0.0305432621389627
5,1.00000001649321,-0.230555566381603,-0.343055565805897,-0.324064016342163,-0.314901024103165,-0.101403631269932
5,1.02083339474202,-0.211111128639904,-0.420833365396554,0.311235845088959,0.0781907513737679,-0.0253509078174829
5,1.02083339474202,-0.211111128639904,-0.420833365396554,-0.11636982858181,0.189673662185669,0.0277943685650826
5,0.962500032893068,-0.259722222994153,-0.322222236180943,0.0458148941397667,0.0748309940099716,0.00855211354792118
5,0.947222222177272,-0.252777787889811,-0.318055560531181,0.0473420582711697,0.0241291765123606,-0.0146607663482428
5,0.947222222177272,-0.24583335278547,-0.313888909193348,0.0427605658769607,0.0222965814173222,-0.0180205255746841
5,0.938888968125464,-0.231944458264858,-0.329166671285285,0.04764748737216,0.00610865233466029,-0.00946841109544039
5,0.93750007624221,-0.233333350148112,-0.336111130701556,0.0445931628346443,-0.0210748501121998,-0.0033597587607801
5,0.947222222177272,-0.233333350148112,-0.345833349572405,0.0467311926186085,-0.0305432621389627,0.0033597587607801
5,0.947222222177272,-0.236111109602691,-0.348611133338914,0.0470366254448891,-0.0229074470698834,0.000610865245107561
5,0.945833330294018,-0.241666677135707,-0.359722244093018,0.0510072484612465,-0.021685715764761,-0.00824668072164059
5,0.940277860008718,-0.24583335278547,-0.356944460326509,0.0583376325666905,-0.0201585534960032,-0.0045814891345799
5,0.934722292475701,-0.252777787889811,-0.359722244093018,0.0675006061792374,-0.0387899428606033,-0.00183259579353034
5,0.930555616825939,-0.262500006760661,-0.358333352209763,0.0861319974064827,-0.0430659987032413,0.00122173049021512
5,0.931944508709193,-0.265277790527169,-0.358333352209763,0.0952949747443199,-0.0381790772080422,0.00305432616733015
5,0.925000049292922,-0.272222225631511,-0.358333352209763,0.114231802523136,-0.0445931628346443,0.00671951752156019
5,0.923611157409668,-0.276388901281273,-0.347222241455659,0.129808858036995,-0.0693332031369209,0.0204639863222837
5,0.92083337364316,-0.269444466176932,-0.345833349572405,0.153938040137291,-0.0901026204228401,0.0161879286170006
5,0.927777833059431,-0.25555557165632,-0.347222241455659,0.158214092254639,-0.096211276948452,0.00824668072164059
5,0.941666654644256,-0.250000004123303,-0.348611133338914,0.161573857069016,-0.0965167060494423,0.0192422550171614
5,0.95000000594378,-0.234722242031366,-0.356944460326509,0.127976268529892,-0.0907134860754013,0.01588249579072
5,0.958333357243305,-0.20972223675665,-0.369444462963867,0.0849102661013603,-0.0901026204228401,0.0134390350431204
5,0.958333357243305,-0.186111123365188,-0.370833354847121,0.0452040284872055,-0.0806342139840126,0.01191187184304
5,0.955555573476797,-0.180555567988136,-0.376388898068209,0.0021380283869803,-0.0729983970522881,0.0314595587551594
5,0.95000000594378,-0.181944447715425,-0.355555568443255,-0.0290160998702049,-0.0659734457731247,0.0513126812875271
5,0.948611114060526,-0.195833342236038,-0.350000000910239,-0.0561996027827263,-0.05283984541893,0.0678060427308083
5,0.947222222177272,-0.195833342236038,-0.351388892793493,-0.0849102661013603,-0.0311541277915239,0.0839939713478088
5,0.952777789710289,-0.20972223675665,-0.347222241455659,-0.104152522981167,-0.0204639863222837,0.0956004112958908
5,0.958333357243305,-0.223611131277262,-0.350000000910239,-0.110261179506779,-0.0369573459029198,0.10048733651638
5,0.956944465360051,-0.222222239394008,-0.354166676560001,-0.123089343309402,-0.0400116741657257,0.0974330082535744
5,0.959722249126559,-0.227777782615095,-0.33750002258481,-0.134084925055504,-0.0494800843298435,0.0891863256692886
5,0.955555573476797,-0.229166674498349,-0.330555563168539,-0.129197999835014,-0.0400116741657257,0.0729983970522881
5,0.954166681593543,-0.236111109602691,-0.333333346935047,-0.122783914208412,-0.0164933614432812,0.0650571510195732
5,0.958333357243305,-0.241666677135707,-0.341666673922643,-0.112399205565453,0.00885754637420177,0.0516181141138077
5,0.958333357243305,-0.238888893369199,-0.338888890156135,-0.117591559886932,0.0323758572340012,0.0381790772080422
5,0.959722249126559,-0.233333350148112,-0.341666673922643,-0.114231802523136,0.0308486949652433,0.0293215326964855
5,0.962500032893068,-0.226388890731841,-0.341666673922643,-0.119424156844616,0.0467311926186085,0.0326812900602817
5,0.959722249126559,-0.226388890731841,-0.348611133338914,-0.107817716896534,0.0427605658769607,0.0302378293126821
5,0.954166681593543,-0.223611131277262,-0.344444457689151,-0.115758962929249,0.0335975885391235,0.00519235478714108
5,0.952777789710289,-0.226388890731841,-0.350000000910239,-0.121256753802299,0.0210748501121998,0.00671951752156019
5,0.948611114060526,-0.236111109602691,-0.354166676560001,-0.11087204515934,0.0210748501121998,0.00183259579353034
5,0.94305554652751,-0.244444460902216,-0.370833354847121,-0.112399205565453,0.0180205255746841,-0.00488692196086049
5,0.93750007624221,-0.241666677135707,-0.368055571080613,-0.103541657328606,0.0180205255746841,-0.00519235478714108
5,0.938888968125464,-0.248611112240049,-0.377777789951463,-0.0980438739061356,0.0308486949652433,-0.019547687843442
5,0.93750007624221,-0.24583335278547,-0.379166681834717,-0.0956004112958908,0.0360410511493683,-0.0284052342176437
5,0.936111184358955,-0.241666677135707,-0.394444468238583,-0.104763388633728,0.0522289797663689,-0.0265726372599602
5,0.936111184358955,-0.238888893369199,-0.400000011459671,-0.0934623852372169,0.0574213340878487,-0.0287106670439243
5,0.931944508709193,-0.238888893369199,-0.393055576355329,-0.0971275717020035,0.058643065392971,-0.0226020142436027
5,0.941666654644256,-0.234722242031366,-0.383333357484479,-0.096211276948452,0.0668897479772568,-0.0329867228865623
5,0.938888968125464,-0.238888893369199,-0.387500008822313,-0.10567969083786,0.0733038261532784,-0.0287106670439243
5,0.941666654644256,-0.240277785252453,-0.390277792588821,-0.122173048555851,0.0745255574584007,-0.0430659987032413
5,0.936111184358955,-0.234722242031366,-0.404166687109433,-0.122173048555851,0.0726929605007172,-0.0394008085131645
5,0.930555616825939,-0.237500001485945,-0.397222227693163,-0.128892570734024,0.0445931628346443,-0.0259617734700441
5,0.916666697993398,-0.243055569018962,-0.397222227693163,-0.120951317250729,0.0299323964864016,-0.0149661982432008
5,0.908333346693873,-0.252777787889811,-0.395833335809908,-0.101098194718361,-0.0027488935738802,-0.00122173049021512
5,0.905555562927365,-0.254166679773066,-0.398611119576417,-0.0852157026529312,-0.00916297826915979,0.017409659922123
5,0.912500022343635,-0.265277790527169,-0.391666684472075,-0.0629191175103188,0.00610865233466029,0.0226020142436027
5,0.915277806110144,-0.270833333748257,-0.398611119576417,-0.0507018156349659,-0.00519235478714108,0.0308486949652433
5,0.915277806110144,-0.270833333748257,-0.400000011459671,-0.0354301854968071,-0.0409279726445675,0.0464257597923279
5,0.92083337364316,-0.259722222994153,-0.391666684472075,-0.0164933614432812,-0.0757472887635231,0.0378736443817616
5,0.926388941176177,-0.261111114877407,-0.393055576355329,-0.0100792767480016,-0.0754418596625328,0.0280998013913631
5,0.923611157409668,-0.25555557165632,-0.377777789951463,-0.00946841109544039,-0.0971275717020035,0.0381790772080422
5,0.919444481759906,-0.250000004123303,-0.370833354847121,0.019547687843442,-0.151494577527046,0.0482583530247212
5,0.911111130460381,-0.24583335278547,-0.383333357484479,0.0439822971820831,-0.202196389436722,0.05283984541893
5,0.893055633225794,-0.259722222994153,-0.397222227693163,0.0638354197144508,-0.257174253463745,0.0729983970522881
5,0.884722281926269,-0.262500006760661,-0.420833365396554,0.0748309940099716,-0.274278491735458,0.08460483700037
5,0.89722221162784,-0.268055574293678,-0.430555559955475,0.0778853222727776,-0.192727982997894,0.104457959532738
5,0.918055589876652,-0.262500006760661,-0.452777781463682,0.0968221426010132,-0.0971275717020035,0.109344877302647
5,0.947222222177272,-0.251388896006557,-0.486111138037923,0.0888808965682983,0.0280998013913631,0.118813291192055
5,0.93750007624221,-0.238888893369199,-0.459722240879953,0.0177150927484035,0.0394008085131645,0.0977384373545647
5,0.944444438410764,-0.227777782615095,-0.433333343721983,-0.0290160998702049,-0.00519235478714108,0.0723875313997269
5,0.926388941176177,-0.233333350148112,-0.420833365396554,-0.070249505341053,-0.0314595587551594,0.0577267669141293
5,0.890277849459286,-0.25555557165632,-0.413888905980283,-0.0806342139840126,-0.0910189226269722,0.0705549344420433
5,0.887500065692777,-0.269444466176932,-0.413888905980283,-0.0736092627048492,-0.129503428936005,0.106290549039841
5,0.884722281926269,-0.272222225631511,-0.422222257279808,-0.0641408488154411,-0.132863193750381,0.124616511166096
5,0.886111173809523,-0.281944444502361,-0.426388884305712,-0.04764748737216,-0.151494577527046,0.147523954510689
5,0.904166671044111,-0.295833339022973,-0.424999992422458,-0.00885754637420177,-0.156992360949516,0.139277279376984
5,0.915277806110144,-0.312500017310094,-0.431944451838729,0.0290160998702049,-0.135001212358475,0.12156218290329
5,0.911111130460381,-0.33750002258481,-0.42916666807222,0.0610865242779255,-0.115148097276688,0.0763581544160843
5,0.906944454810619,-0.318055560531181,-0.431944451838729,0.11636982858181,-0.0867428630590439,0.0598647929728031
5,0.901388887277602,-0.319444452414435,-0.430555559955475,0.125227376818657,-0.0320704244077206,0.0549778714776039
5,0.894444525109048,-0.266666682410424,-0.426388884305712,0.139888137578964,-0.00580321997404099,0.0830776765942574
5,0.895833319744586,-0.263888898643915,-0.430555559955475,0.136528387665749,-0.00152716308366507,0.0882700309157372
5,0.894444525109048,-0.262500006760661,-0.444444478788016,0.120035022497177,-0.0100792767480016,0.0959058403968811
5,0.890277849459286,-0.272222225631511,-0.447222262554524,0.0968221426010132,-0.0253509078174829,0.0794124826788902
5,0.890277849459286,-0.273611117514765,-0.449999997697174,0.0678060427308083,-0.0467311926186085,0.103236228227615
5,0.89722221162784,-0.276388901281273,-0.426388884305712,0.0473420582711697,-0.0601702257990837,0.115148097276688
5,0.880555606276507,-0.269444466176932,-0.426388884305712,0.0305432621389627,-0.106595985591412,0.138666406273842
5,0.86805557932722,-0.269444466176932,-0.426388884305712,0.00641408516094089,-0.155770644545555,0.184786736965179
5,0.863888903677457,-0.261111114877407,-0.405555578992687,-0.000916297896765172,-0.22204951941967,0.231823354959488
5,0.873611146860236,-0.259722222994153,-0.402777795226179,-0.00519235478714108,-0.257785141468048,0.278249114751816
5,0.884722281926269,-0.259722222994153,-0.388888900705567,0.0100792767480016,-0.291993588209152,0.303905457258224
5,0.899999995394348,-0.263888898643915,-0.387500008822313,0.0232128798961639,-0.305127203464508,0.32742378115654
5,0.922222265526414,-0.277777793164528,-0.383333357484479,0.0271835029125214,-0.289855569601059,0.342084527015686
5,0.948611114060526,-0.275000009398019,-0.390277792588821,0.0403171069920063,-0.245873257517815,0.314595609903336
5,0.969444492309338,-0.275000009398019,-0.391666684472075,0.0418442711234093,-0.198836639523506,0.263282924890518
5,0.976388951725609,-0.281944444502361,-0.394444468238583,0.0302378293126821,-0.162184715270996,0.217773467302322
5,0.977777843608863,-0.29166668768514,-0.406944470875941,0.0320704244077206,-0.10598511993885,0.158824965357781
5,0.981944519258625,-0.309722233543585,-0.406944470875941,0.0161879286170006,-0.0574213340878487,0.102319926023483
5,0.968055600426084,-0.315277801076602,-0.406944470875941,-0.00610865233466029,-0.0186313893646002,0.0421497002243996
5,0.959722249126559,-0.309722233543585,-0.397222227693163,-0.0143553335219622,0.0103847095742822,-0.0198531206697226
5,0.958333357243305,-0.294444447139719,-0.402777795226179,-0.00427605677396059,0.027488935738802,-0.0390953756868839
5,0.959722249126559,-0.293055555256465,-0.397222227693163,0.00397062394768,0.0736092627048492,-0.0748309940099716
5,0.933333400592447,-0.29166668768514,-0.383333357484479,0.00122173049021512,0.0882700309157372,-0.0803287774324417
5,0.926388941176177,-0.295833339022973,-0.380555573717971,0.00671951752156019,0.0665843114256859,-0.0714712366461754
5,0.925000049292922,-0.29166668768514,-0.387500008822313,0.0128281703218818,0.0754418596625328,-0.0665843114256859
5,0.930555616825939,-0.288888903918631,-0.386111116939059,0.0186313893646002,0.103236228227615,-0.0647517144680023
5,0.936111184358955,-0.279166685047782,-0.383333357484479,0.00855211354792118,0.132557764649391,-0.0812450796365738
5,0.95000000594378,-0.272222225631511,-0.386111116939059,-0.00519235478714108,0.149051114916802,-0.0983493030071259
5,0.954166681593543,-0.262500006760661,-0.384722225055805,-0.021685715764761,0.17470745742321,-0.12156218290329
5,0.959722249126559,-0.265277790527169,-0.394444468238583,-0.0415388382971287,0.205556154251099,-0.147523954510689
5,0.95000000594378,-0.263888898643915,-0.391666684472075,-0.0684169083833694,0.19578230381012,-0.166460782289505
5,0.940277860008718,-0.269444466176932,-0.401388903342925,-0.0705549344420433,0.175929188728332,-0.178983509540558
5,0.94305554652751,-0.280555576931036,-0.390277792588821,-0.0815505087375641,0.187841057777405,-0.182954147458077
5,0.934722292475701,-0.293055555256465,-0.404166687109433,-0.0754418596625328,0.206777885556221,-0.192117124795914
5,0.934722292475701,-0.290277795801886,-0.405555578992687,-0.0613919571042061,0.235793977975845,-0.204334422945976
5,0.934722292475701,-0.290277795801886,-0.405555578992687,-0.0507018156349659,0.239153742790222,-0.231823354959488
5,0.923611157409668,-0.297222230906227,-0.411111122213775,-0.0329867228865623,0.25870144367218,-0.267558991909027
5,0.926388941176177,-0.301388906555989,-0.397222227693163,-0.00946841109544039,0.266337245702743,-0.30757063627243
5,0.926388941176177,-0.301388906555989,-0.397222227693163,0.00763581553474069,0.284052342176437,-0.359188765287399
5,0.911111130460381,-0.287500012035377,-0.405555578992687,-0.000916297896765172,0.276416510343552,-0.38576140999794
5,0.906944454810619,-0.277777793164528,-0.418055581630046,0.0134390350431204,0.221133217215538,-0.378125578165054
5,0.906944454810619,-0.277777793164528,-0.418055581630046,0.0455094613134861,0.193949714303017,-0.363770246505737
5,0.902777779160856,-0.276388901281273,-0.415277797863537,0.0635299831628799,0.170736834406853,-0.344527989625931
5,0.908333346693873,-0.259722222994153,-0.440277803138253,0.0836885422468185,0.186008468270302,-0.339641064405441
5,0.908333346693873,-0.259722222994153,-0.440277803138253,0.0794124826788902,0.235488548874855,-0.329561799764633
5,0.902777779160856,-0.254166679773066,-0.434722235605237,0.0675006061792374,0.239764615893364,-0.302378296852112
5,0.894444525109048,-0.252777787889811,-0.420833365396554,0.0729983970522881,0.248316720128059,-0.281303435564041
5,0.894444525109048,-0.252777787889811,-0.420833365396554,0.0791070461273193,0.224187538027763,-0.262977480888367
5,0.890277849459286,-0.244444460902216,-0.415277797863537,0.0699440687894821,0.183870434761047,-0.249538451433182
5,0.908333346693873,-0.24583335278547,-0.422222257279808,0.0842994004487991,0.165849909186363,-0.224187538027763
5,0.913888914226889,-0.247222220356795,-0.413888905980283,0.0812450796365738,0.161268427968025,-0.201890960335732
5,0.913888914226889,-0.247222220356795,-0.413888905980283,0.0821613743901253,0.155159771442413,-0.17989981174469
5,0.911111130460381,-0.243055569018962,-0.413888905980283,0.0607810914516449,0.138971850275993,-0.16401731967926
5,0.912500022343635,-0.230555566381603,-0.423611149163062,0.0543670058250427,0.132557764649391,-0.137750118970871
5,0.899999995394348,-0.223611131277262,-0.423611149163062,0.0314595587551594,0.117286130785942,-0.101098194718361
5,0.893055633225794,-0.223611131277262,-0.412500014097029,0.0247400421649218,0.0815505087375641,-0.0510072484612465
5,0.894444525109048,-0.220833347510754,-0.390277792588821,0.0210748501121998,0.0259617734700441,-0.0122173046693206
5,0.904166671044111,-0.216666671860991,-0.390277792588821,0.0241291765123606,-0.01191187184304,0.0250454749912024
5,0.915277806110144,-0.224999998848587,-0.390277792588821,0.0235183127224445,-0.0320704244077206,0.0436768643558025
5,0.925000049292922,-0.226388890731841,-0.387500008822313,0.0305432621389627,-0.0546724386513233,0.0497855171561241
5,0.933333400592447,-0.2194444556275,-0.370833354847121,0.0452040284872055,-0.0546724386513233,0.0616973899304867
5,0.94305554652751,-0.211111128639904,-0.380555573717971,0.0525344125926495,-0.0555887371301651,0.0757472887635231
5,0.947222222177272,-0.20138889761309,-0.369444462963867,0.0473420582711697,-0.0665843114256859,0.0882700309157372
5,0.94305554652751,-0.190277786858986,-0.361111135976272,0.0394008085131645,-0.0784961804747581,0.0925460830330849
5,0.93750007624221,-0.193055558469529,-0.341666673922643,0.0250454749912024,-0.098960168659687,0.0910189226269722
5,0.940277860008718,-0.187500003092477,-0.343055565805897,0.0131336031481624,-0.120035022497177,0.121867619454861
5,0.938888968125464,-0.188888894975731,-0.352777784676747,0.00519235478714108,-0.116675265133381,0.134390354156494
5,0.95000000594378,-0.194444450352783,-0.352777784676747,-0.00152716308366507,-0.113620936870575,0.154548913240433
5,0.95000000594378,-0.206944452990142,-0.361111135976272,0.00641408516094089,-0.106595985591412,0.160352125763893
5,0.955555573476797,-0.213888888094483,-0.372222246730376,-0.00244346098043024,-0.0855211317539215,0.167682513594627
5,0.959722249126559,-0.2194444556275,-0.377777789951463,-0.000916297896765172,-0.0516181141138077,0.147218525409698
5,0.962500032893068,-0.227777782615095,-0.366666679197359,-0.0143553335219622,-0.00671951752156019,0.129197999835014
5,0.962500032893068,-0.223611131277262,-0.362500003547597,0.00641408516094089,0.00549778714776039,0.118813291192055
5,0.962500032893068,-0.229166674498349,-0.355555568443255,0.00977384392172098,0.0103847095742822,0.10567969083786
5,0.956944465360051,-0.233333350148112,-0.354166676560001,0.01588249579072,0.015577063895762,0.104457959532738
5,0.956944465360051,-0.226388890731841,-0.348611133338914,0.0277943685650826,0.0259617734700441,0.098960168659687
5,0.961111141009813,-0.231944458264858,-0.344444457689151,0.0378736443817616,0.0222965814173222,0.0858265683054924
5,0.961111141009813,-0.230555566381603,-0.341666673922643,0.0497855171561241,0.0164933614432812,0.0543670058250427
5,0.959722249126559,-0.233333350148112,-0.343055565805897,0.0507018156349659,0.00824668072164059,0.0390953756868839
5,0.958333357243305,-0.233333350148112,-0.350000000910239,0.0565050356090069,0.00397062394768,0.0164933614432812
5,0.958333357243305,-0.237500001485945,-0.341666673922643,0.064446285367012,0.00580321997404099,-0.00610865233466029
5,0.955555573476797,-0.243055569018962,-0.344444457689151,0.0616973899304867,0.00427605677396059,-0.00397062394768
5,0.95000000594378,-0.24583335278547,-0.344444457689151,0.0607810914516449,0.019547687843442,-0.00366519158706069
5,0.955555573476797,-0.241666677135707,-0.352777784676747,0.0473420582711697,0.01588249579072,-0.000610865245107561
5,0.952777789710289,-0.244444460902216,-0.351388892793493,0.0565050356090069,0.0131336031481624,0.00244346098043024
5,0.95000000594378,-0.236111109602691,-0.352777784676747,0.0519235469400883,0.00702495034784079,0.00946841109544039
5,0.94305554652751,-0.237500001485945,-0.355555568443255,0.0458148941397667,-0.00397062394768,0.0113010071218014
5,0.940277860008718,-0.237500001485945,-0.350000000910239,0.0351247526705265,-0.0113010071218014,0.0033597587607801
5,0.93750007624221,-0.241666677135707,-0.351388892793493,0.0305432621389627,-0.0143553335219622,0.000916297896765172
5,0.93750007624221,-0.248611112240049,-0.345833349572405,0.0226020142436027,-0.0149661982432008,-0.00488692196086049
5,0.95000000594378,-0.247222220356795,-0.341666673922643,0.0229074470698834,-0.0161879286170006,-0.00763581553474069
5,0.961111141009813,-0.252777787889811,-0.348611133338914,0.021685715764761,-0.00122173049021512,-0.00427605677396059
5,0.956944465360051,-0.244444460902216,-0.351388892793493,0.00916297826915979,0.00946841109544039,-0.0161879286170006
5,0.951388897827035,-0.24583335278547,-0.354166676560001,0.01191187184304,0.0128281703218818,-0.00855211354792118
5,0.941666654644256,-0.248611112240049,-0.351388892793493,0.0109955742955208,0.0027488935738802,-0.00702495034784079
5,0.940277860008718,-0.247222220356795,-0.348611133338914,0.00794124789535999,0.00305432616733015,0.0021380283869803
5,0.93750007624221,-0.24583335278547,-0.351388892793493,0.0131336031481624,-0.00671951752156019,0.0131336031481624
5,0.936111184358955,-0.241666677135707,-0.344444457689151,0.00763581553474069,-0.00977384392172098,0.00488692196086049
5,0.941666654644256,-0.243055569018962,-0.344444457689151,0.00855211354792118,-0.00366519158706069,0.0033597587607801
5,0.952777789710289,-0.252777787889811,-0.343055565805897,0.00794124789535999,0.0033597587607801,-0.00366519158706069
5,0.952777789710289,-0.24583335278547,-0.356944460326509,0.00977384392172098,0.00824668072164059,-0.0134390350431204
5,0.955555573476797,-0.24583335278547,-0.351388892793493,0.00244346098043024,0.0171042270958424,-0.0109955742955208
5,0.952777789710289,-0.243055569018962,-0.343055565805897,0.00549778714776039,0.00549778714776039,-0.00519235478714108
5,0.951388897827035,-0.237500001485945,-0.341666673922643,0.0033597587607801,0.00733038317412138,-0.00641408516094089
5,0.95000000594378,-0.233333350148112,-0.330555563168539,-0.00916297826915979,0.00855211354792118,-0.000610865245107561
5,0.947222222177272,-0.233333350148112,-0.340277782039389,-0.0143553335219622,0.000610865245107561,0.00549778714776039
5,0.945833330294018,-0.230555566381603,-0.344444457689151,-0.0253509078174829,-0.017409659922123,0.000305432622553781
5,0.944444438410764,-0.230555566381603,-0.348611133338914,-0.0326812900602817,-0.0247400421649218,0.0164933614432812
5,0.94305554652751,-0.233333350148112,-0.351388892793493,-0.0464257597923279,-0.0149661982432008,0.0146607663482428
5,0.945833330294018,-0.236111109602691,-0.354166676560001,-0.0430659987032413,-0.013744467869401,0.0259617734700441
5,0.947222222177272,-0.243055569018962,-0.350000000910239,-0.0500909499824047,-0.00122173049021512,0.0235183127224445
5,0.940277860008718,-0.24583335278547,-0.354166676560001,-0.0452040284872055,0.0021380283869803,0.0201585534960032
5,0.948611114060526,-0.25555557165632,-0.358333352209763,-0.0507018156349659,0.0201585534960032,0.01191187184304
5,0.95000000594378,-0.250000004123303,-0.358333352209763,-0.0415388382971287,0.0103847095742822,0.00580321997404099
5,0.940277860008718,-0.254166679773066,-0.358333352209763,-0.0409279726445675,0.0198531206697226,0.00702495034784079
5,0.938888968125464,-0.254166679773066,-0.358333352209763,-0.0415388382971287,0.0210748501121998,0.00610865233466029
5,0.936111184358955,-0.251388896006557,-0.351388892793493,-0.0320704244077206,0.0143553335219622,0.00427605677396059
5,0.934722292475701,-0.250000004123303,-0.368055571080613,-0.0250454749912024,0.00122173049021512,0.0113010071218014
5,0.938888968125464,-0.252777787889811,-0.363888895430851,-0.0146607663482428,0.00824668072164059,0.00885754637420177
5,0.94305554652751,-0.254166679773066,-0.358333352209763,-0.0125227374956012,0.00946841109544039,0.0164933614432812
5,0.940277860008718,-0.25555557165632,-0.358333352209763,-0.00702495034784079,-0.00152716308366507,0.00885754637420177
5,0.940277860008718,-0.252777787889811,-0.354166676560001,0.0027488935738802,0.00183259579353034,-0.0033597587607801
5,0.934722292475701,-0.250000004123303,-0.355555568443255,0.0143553335219622,-0.0146607663482428,0.0109955742955208
5,0.938888968125464,-0.248611112240049,-0.365277787314105,0.0143553335219622,-0.0140499006956816,0.0021380283869803
5,0.94305554652751,-0.240277785252453,-0.358333352209763,0.019547687843442,-0.0229074470698834,0.00305432616733015
5,0.94305554652751,-0.243055569018962,-0.361111135976272,0.01588249579072,-0.0177150927484035,-0.00305432616733015
5,0.94305554652751,-0.24583335278547,-0.365277787314105,0.0186313893646002,-0.00916297826915979,-0.00152716308366507
5,0.944444438410764,-0.243055569018962,-0.361111135976272,0.0161879286170006,-0.00519235478714108,0.0021380283869803
5,0.944444438410764,-0.238888893369199,-0.358333352209763,0.013744467869401,-0.00610865233466029,0.00733038317412138
5,0.948611114060526,-0.237500001485945,-0.361111135976272,0.00702495034784079,-0.0134390350431204,0.00152716308366507
5,0.944444438410764,-0.237500001485945,-0.359722244093018,0.00763581553474069,-0.00244346098043024,0.0027488935738802
5,0.940277860008718,-0.238888893369199,-0.361111135976272,0.000610865245107561,-0.0045814891345799,0.00305432616733015
5,0.941666654644256,-0.240277785252453,-0.361111135976272,0.00366519158706069,-0.00855211354792118,-0.0033597587607801
5,0.944444438410764,-0.244444460902216,-0.356944460326509,-0.00305432616733015,-0.01191187184304,0.000916297896765172
5,0.94305554652751,-0.237500001485945,-0.362500003547597,0.00152716308366507,-0.0189368221908808,0.00305432616733015
5,0.941666654644256,-0.243055569018962,-0.366666679197359,0.00824668072164059,-0.019547687843442,-0.00122173049021512
5,0.94305554652751,-0.243055569018962,-0.361111135976272,0.0106901414692402,-0.00946841109544039,-0.00977384392172098
5,0.94305554652751,-0.240277785252453,-0.368055571080613,0.0207694191485643,-0.00702495034784079,-0.00641408516094089
5,0.947222222177272,-0.240277785252453,-0.358333352209763,0.03176499158144,-0.00702495034784079,-0.00580321997404099
5,0.948611114060526,-0.240277785252453,-0.363888895430851,0.0226020142436027,-0.00641408516094089,-0.00122173049021512
5,0.95000000594378,-0.237500001485945,-0.361111135976272,0.0311541277915239,-0.00152716308366507,-0.0125227374956012
5,0.945833330294018,-0.233333350148112,-0.358333352209763,0.0241291765123606,-0.0027488935738802,0.00183259579353034
5,0.945833330294018,-0.233333350148112,-0.351388892793493,0.0268780700862408,0.00519235478714108,-0.0045814891345799
5,0.947222222177272,-0.233333350148112,-0.361111135976272,0.017409659922123,-0.00152716308366507,-0.00549778714776039
5,0.94305554652751,-0.234722242031366,-0.366666679197359,0.00946841109544039,-0.00580321997404099,-0.000610865245107561
5,0.94305554652751,-0.229166674498349,-0.354166676560001,0.0109955742955208,-0.00763581553474069,-0.00122173049021512
5,0.940277860008718,-0.229166674498349,-0.355555568443255,0.00702495034784079,-0.00183259579353034,-0.000916297896765172
5,0.938888968125464,-0.231944458264858,-0.350000000910239,0.0045814891345799,-0.00702495034784079,-0.00763581553474069
5,0.940277860008718,-0.231944458264858,-0.355555568443255,0.0045814891345799,-0.00671951752156019,0.00641408516094089
5,0.941666654644256,-0.229166674498349,-0.359722244093018,0.000916297896765172,-0.00733038317412138,0.0109955742955208
5,0.94305554652751,-0.231944458264858,-0.351388892793493,-0.00152716308366507,-0.00610865233466029,0.0113010071218014
5,0.94305554652751,-0.236111109602691,-0.355555568443255,-0.000305432622553781,-0.00488692196086049,0.01588249579072
5,0.947222222177272,-0.237500001485945,-0.348611133338914,-0.00610865233466029,-0.00702495034784079,0.00183259579353034
5,0.94305554652751,-0.238888893369199,-0.354166676560001,-0.00977384392172098,0.00610865233466029,0.0125227374956012
5,0.945833330294018,-0.243055569018962,-0.368055571080613,-0.00855211354792118,0.00122173049021512,0.00397062394768
5,0.940277860008718,-0.238888893369199,-0.366666679197359,-0.0143553335219622,0.00671951752156019,0.00794124789535999
5,0.940277860008718,-0.234722242031366,-0.359722244093018,-0.0146607663482428,-0.00519235478714108,0.0109955742955208
5,0.940277860008718,-0.240277785252453,-0.354166676560001,-0.0134390350431204,-0.0109955742955208,0.00946841109544039
5,0.940277860008718,-0.243055569018962,-0.359722244093018,-0.00610865233466029,-0.00824668072164059,0.0140499006956816
5,0.938888968125464,-0.238888893369199,-0.368055571080613,-0.00488692196086049,-0.0021380283869803,-0.0027488935738802
5,0.941666654644256,-0.243055569018962,-0.368055571080613,-0.00885754637420177,-0.0106901414692402,0.0143553335219622
5,0.941666654644256,-0.243055569018962,-0.370833354847121,-0.01191187184304,-0.0192422550171614,0.0201585534960032
5,0.944444438410764,-0.250000004123303,-0.361111135976272,-0.00488692196086049,-0.00366519158706069,0.0149661982432008
5,0.945833330294018,-0.243055569018962,-0.358333352209763,0.00641408516094089,-0.0103847095742822,0.00183259579353034
5,0.94305554652751,-0.241666677135707,-0.368055571080613,0.0033597587607801,-0.013744467869401,-0.00641408516094089
5,0.940277860008718,-0.241666677135707,-0.368055571080613,0.00183259579353034,-0.00366519158706069,-0.00641408516094089
5,0.945833330294018,-0.24583335278547,-0.372222246730376,0.00183259579353034,-0.000305432622553781,-0.000610865245107561
5,0.947222222177272,-0.248611112240049,-0.368055571080613,0.0045814891345799,0.00397062394768,-0.00824668072164059
5,0.94305554652751,-0.241666677135707,-0.361111135976272,0.0027488935738802,0.000305432622553781,-0.00977384392172098
5,0.936111184358955,-0.241666677135707,-0.365277787314105,0.01588249579072,-0.00641408516094089,-0.00519235478714108
5,0.934722292475701,-0.244444460902216,-0.363888895430851,0.013744467869401,-0.00610865233466029,-0.00366519158706069
5,0.93750007624221,-0.241666677135707,-0.358333352209763,0.0186313893646002,-0.00122173049021512,0.0140499006956816
5,0.93750007624221,-0.243055569018962,-0.359722244093018,0.0161879286170006,-0.0027488935738802,-0.00305432616733015
5,0.93750007624221,-0.243055569018962,-0.359722244093018,0.0210748501121998,-0.0103847095742822,-0.0033597587607801
5,0.945833330294018,-0.243055569018962,-0.355555568443255,0.00885754637420177,-0.0113010071218014,-0.00671951752156019
5,0.945833330294018,-0.243055569018962,-0.355555568443255,0.011606439948082,-0.00488692196086049,0.000305432622553781
5,0.94305554652751,-0.243055569018962,-0.362500003547597,0.0100792767480016,-0.00397062394768,0.00366519158706069
5,0.94305554652751,-0.243055569018962,-0.362500003547597,-0.000610865245107561,0.000916297896765172,0.00549778714776039
5,0.941666654644256,-0.238888893369199,-0.356944460326509,-0.0027488935738802,-0.00427605677396059,0.00641408516094089
5,0.941666654644256,-0.237500001485945,-0.373611114301701,0.00366519158706069,-0.00152716308366507,0.0134390350431204
5,0.941666654644256,-0.237500001485945,-0.373611114301701,-0.00152716308366507,0.0045814891345799,0.00702495034784079
5,0.93750007624221,-0.238888893369199,-0.366666679197359,-0.0021380283869803,-0.00794124789535999,0.00885754637420177
5,0.938888968125464,-0.236111109602691,-0.368055571080613,-0.000916297896765172,-0.017409659922123,0.00488692196086049
5,0.938888968125464,-0.236111109602691,-0.368055571080613,0.000305432622553781,-0.00946841109544039,0.00702495034784079
5,0.945833330294018,-0.244444460902216,-0.362500003547597,0.00366519158706069,-0.00885754637420177,0.00580321997404099
5,0.945833330294018,-0.244444460902216,-0.365277787314105,0.0027488935738802,-0.000305432622553781,-0.000916297896765172
5,0.940277860008718,-0.24583335278547,-0.363888895430851,0.00122173049021512,0.00763581553474069,0.00427605677396059
5,0.93750007624221,-0.243055569018962,-0.368055571080613,0.0128281703218818,0.01191187184304,-0.0027488935738802
5,0.940277860008718,-0.238888893369199,-0.369444462963867,0.00397062394768,0.00641408516094089,-0.00977384392172098
5,0.938888968125464,-0.238888893369199,-0.366666679197359,0.0045814891345799,0.00397062394768,-0.00702495034784079
5,0.94305554652751,-0.241666677135707,-0.361111135976272,0.00488692196086049,0.00580321997404099,-0.00122173049021512
5,0.940277860008718,-0.234722242031366,-0.375000006184955,-0.0033597587607801,-0.0100792767480016,0.00733038317412138
5,0.94305554652751,-0.237500001485945,-0.369444462963867,-0.00519235478714108,-0.00305432616733015,0.00397062394768
5,0.947222222177272,-0.24583335278547,-0.359722244093018,0.0027488935738802,-0.000305432622553781,0.0106901414692402
5,0.940277860008718,-0.241666677135707,-0.370833354847121,0.00824668072164059,0.000916297896765172,0.00702495034784079
5,0.936111184358955,-0.243055569018962,-0.366666679197359,0.00824668072164059,-0.00397062394768,0.000305432622553781
5,0.94305554652751,-0.238888893369199,-0.362500003547597,0.00763581553474069,0.00733038317412138,-0.00305432616733015
5,0.941666654644256,-0.243055569018962,-0.370833354847121,0.0122173046693206,0.0045814891345799,0.000916297896765172
5,0.944444438410764,-0.237500001485945,-0.369444462963867,0.00427605677396059,0.000610865245107561,-0.00580321997404099
5,0.94305554652751,-0.234722242031366,-0.368055571080613,0.00549778714776039,-0.0033597587607801,-0.00397062394768
5,0.940277860008718,-0.241666677135707,-0.359722244093018,0.0027488935738802,0.0021380283869803,-0.00427605677396059
5,0.947222222177272,-0.24583335278547,-0.355555568443255,0.000916297896765172,0.00366519158706069,-0.00305432616733015
5,0.944444438410764,-0.24583335278547,-0.358333352209763,-0.00183259579353034,0.0045814891345799,-0.00397062394768
5,0.94305554652751,-0.248611112240049,-0.363888895430851,0.00183259579353034,0.00733038317412138,0.0033597587607801
5,0.947222222177272,-0.248611112240049,-0.363888895430851,0.00183259579353034,0.0106901414692402,-0.00671951752156019
5,0.940277860008718,-0.243055569018962,-0.359722244093018,0.0021380283869803,-0.00397062394768,-0.00671951752156019
5,0.938888968125464,-0.241666677135707,-0.356944460326509,-0.000916297896765172,-0.00580321997404099,0.00122173049021512
5,0.940277860008718,-0.243055569018962,-0.361111135976272,0.0106901414692402,-0.00580321997404099,0.00519235478714108
5,0.94305554652751,-0.248611112240049,-0.362500003547597,0.00946841109544039,-0.000305432622553781,0.00397062394768
5,0.940277860008718,-0.250000004123303,-0.365277787314105,0.00580321997404099,-0.0027488935738802,-0.00183259579353034
5,0.945833330294018,-0.244444460902216,-0.375000006184955,0.00733038317412138,-0.00244346098043024,-0.00366519158706069
5,0.947222222177272,-0.240277785252453,-0.370833354847121,0.00641408516094089,0.0125227374956012,-0.00671951752156019
5,0.945833330294018,-0.238888893369199,-0.376388898068209,0.015577063895762,0.0100792767480016,0.0033597587607801
5,0.94305554652751,-0.234722242031366,-0.377777789951463,0.00641408516094089,0.0109955742955208,-0.00397062394768
5,0.93750007624221,-0.238888893369199,-0.370833354847121,0.00824668072164059,0.00885754637420177,-0.0100792767480016
5,0.93750007624221,-0.236111109602691,-0.368055571080613,0.00885754637420177,0.000610865245107561,0.000610865245107561
5,0.936111184358955,-0.240277785252453,-0.361111135976272,0.00824668072164059,0.00122173049021512,-0.00305432616733015
5,0.93750007624221,-0.241666677135707,-0.365277787314105,0.011606439948082,-0.00641408516094089,-0.000916297896765172
5,0.938888968125464,-0.236111109602691,-0.369444462963867,0.0113010071218014,0.000305432622553781,-0.00671951752156019
5,0.944444438410764,-0.236111109602691,-0.368055571080613,0.0109955742955208,0.00580321997404099,0.00305432616733015
5,0.94305554652751,-0.234722242031366,-0.377777789951463,0.0125227374956012,0.0027488935738802,0.00152716308366507
5,0.94305554652751,-0.236111109602691,-0.377777789951463,0.0109955742955208,0.0152716310694814,-0.00305432616733015
5,0.947222222177272,-0.234722242031366,-0.363888895430851,0.00641408516094089,0.0113010071218014,0.00580321997404099
5,0.940277860008718,-0.243055569018962,-0.375000006184955,0.00305432616733015,0.0171042270958424,-0.000305432622553781
5,0.940277860008718,-0.238888893369199,-0.368055571080613,0.00183259579353034,0.0131336031481624,0.000916297896765172
5,0.941666654644256,-0.233333350148112,-0.369444462963867,-0.00244346098043024,0.00946841109544039,-0.00305432616733015
5,0.940277860008718,-0.238888893369199,-0.365277787314105,-0.000610865245107561,0.00122173049021512,0.00397062394768
5,0.94305554652751,-0.238888893369199,-0.363888895430851,-0.00519235478714108,-0.0033597587607801,0.0021380283869803
5,0.944444438410764,-0.236111109602691,-0.363888895430851,0.00641408516094089,-0.00305432616733015,0.00427605677396059
5,0.947222222177272,-0.238888893369199,-0.372222246730376,0.00946841109544039,0.01191187184304,-0.00549778714776039
5,0.944444438410764,-0.240277785252453,-0.362500003547597,0.0033597587607801,0.00641408516094089,-0.00641408516094089
5,0.940277860008718,-0.241666677135707,-0.368055571080613,-0.000610865245107561,0.00855211354792118,-0.00305432616733015
5,0.94305554652751,-0.240277785252453,-0.361111135976272,0.00549778714776039,0.0149661982432008,-0.00366519158706069
5,0.938888968125464,-0.243055569018962,-0.363888895430851,0.0027488935738802,0.00916297826915979,-0.00885754637420177
5,0.938888968125464,-0.236111109602691,-0.363888895430851,0.00824668072164059,-0.0021380283869803,0.00702495034784079
5,0.940277860008718,-0.238888893369199,-0.356944460326509,0.00824668072164059,-0.00488692196086049,0.00183259579353034
5,0.938888968125464,-0.24583335278547,-0.351388892793493,0.00946841109544039,-0.0113010071218014,-0.000916297896765172
5,0.934722292475701,-0.243055569018962,-0.354166676560001,0.0192422550171614,-0.017409659922123,-0.00702495034784079
5,0.94305554652751,-0.243055569018962,-0.361111135976272,0.021685715764761,-0.0122173046693206,-0.00122173049021512
5,0.947222222177272,-0.248611112240049,-0.363888895430851,0.0226020142436027,-0.0106901414692402,-0.00702495034784079
5,0.948611114060526,-0.241666677135707,-0.369444462963867,0.0219911485910416,0.00610865233466029,-0.011606439948082
5,0.952777789710289,-0.229166674498349,-0.370833354847121,0.01191187184304,0.00305432616733015,-0.015577063895762
5,0.945833330294018,-0.229166674498349,-0.359722244093018,0.00794124789535999,0.00824668072164059,-0.00733038317412138
5,0.938888968125464,-0.226388890731841,-0.362500003547597,0.00549778714776039,0.00855211354792118,-0.0113010071218014
5,0.934722292475701,-0.229166674498349,-0.370833354847121,0.00488692196086049,-0.000610865245107561,-0.000305432622553781
5,0.93750007624221,-0.234722242031366,-0.358333352209763,0.0100792767480016,-0.00427605677396059,0.000305432622553781
5,0.941666654644256,-0.238888893369199,-0.355555568443255,0.0146607663482428,0.00427605677396059,-0.00397062394768
5,0.941666654644256,-0.237500001485945,-0.354166676560001,0.00885754637420177,0.00305432616733015,-0.00549778714776039
5,0.94305554652751,-0.234722242031366,-0.368055571080613,0.0122173046693206,-0.000916297896765172,0.0033597587607801
5,0.947222222177272,-0.233333350148112,-0.359722244093018,0.0131336031481624,0.0033597587607801,0.00488692196086049
5,0.945833330294018,-0.237500001485945,-0.359722244093018,0.0106901414692402,0.00671951752156019,-0.00610865233466029
5,0.94305554652751,-0.240277785252453,-0.358333352209763,0.00794124789535999,0.0103847095742822,0.0021380283869803
5,0.947222222177272,-0.238888893369199,-0.361111135976272,0.0152716310694814,0.0100792767480016,0.0021380283869803
5,0.947222222177272,-0.238888893369199,-0.361111135976272,0.00763581553474069,0.0180205255746841,-0.00183259579353034
5,0.948611114060526,-0.233333350148112,-0.359722244093018,0.00610865233466029,0.0143553335219622,-0.0021380283869803
5,0.948611114060526,-0.229166674498349,-0.362500003547597,0.00366519158706069,0.0201585534960032,-0.0027488935738802
5,0.952777789710289,-0.236111109602691,-0.355555568443255,0.0045814891345799,0.0180205255746841,-0.000916297896765172
5,0.947222222177272,-0.230555566381603,-0.358333352209763,0.000305432622553781,0.00885754637420177,-0.00244346098043024
5,0.941666654644256,-0.231944458264858,-0.361111135976272,0.0027488935738802,0.0128281703218818,-0.00671951752156019
5,0.944444438410764,-0.226388890731841,-0.355555568443255,0.00519235478714108,0.0210748501121998,-0.00183259579353034
5,0.94305554652751,-0.227777782615095,-0.356944460326509,0.00397062394768,0.0164933614432812,0.000305432622553781
5,0.94305554652751,-0.233333350148112,-0.351388892793493,-0.000305432622553781,0.0143553335219622,0.0027488935738802
5,0.941666654644256,-0.236111109602691,-0.351388892793493,0.0033597587607801,0.00855211354792118,0.0033597587607801
5,0.940277860008718,-0.234722242031366,-0.358333352209763,0.0027488935738802,0.00946841109544039,0.00549778714776039
5,0.94305554652751,-0.229166674498349,-0.358333352209763,0.00244346098043024,-0.00549778714776039,-0.000610865245107561
5,0.945833330294018,-0.234722242031366,-0.363888895430851,-0.000305432622553781,-0.0021380283869803,0.00610865233466029
5,0.947222222177272,-0.230555566381603,-0.351388892793493,0.00549778714776039,0.00183259579353034,0.000916297896765172
5,0.94305554652751,-0.226388890731841,-0.358333352209763,0.00244346098043024,0.0122173046693206,0.0021380283869803
5,0.94305554652751,-0.230555566381603,-0.363888895430851,0.00824668072164059,0.013744467869401,0.00397062394768
5,0.945833330294018,-0.231944458264858,-0.355555568443255,0.0021380283869803,0.0171042270958424,0.0045814891345799
5,0.948611114060526,-0.231944458264858,-0.358333352209763,-0.00305432616733015,0.0164933614432812,0.00733038317412138
5,0.948611114060526,-0.231944458264858,-0.352777784676747,-0.0027488935738802,0.0152716310694814,0.00519235478714108
5,0.94305554652751,-0.230555566381603,-0.354166676560001,-0.00946841109544039,0.0140499006956816,0.00183259579353034
5,0.94305554652751,-0.233333350148112,-0.358333352209763,-0.01588249579072,0.0140499006956816,-0.00671951752156019
5,0.944444438410764,-0.233333350148112,-0.354166676560001,-0.0113010071218014,0.0125227374956012,-0.000305432622553781
5,0.947222222177272,-0.240277785252453,-0.362500003547597,-0.0152716310694814,0.0146607663482428,0.00824668072164059
5,0.95000000594378,-0.238888893369199,-0.356944460326509,-0.011606439948082,0.00946841109544039,0.00244346098043024
5,0.947222222177272,-0.237500001485945,-0.348611133338914,-0.00580321997404099,0.0027488935738802,-0.00305432616733015
5,0.940277860008718,-0.236111109602691,-0.348611133338914,-0.00733038317412138,0.000610865245107561,0.00183259579353034
5,0.94305554652751,-0.238888893369199,-0.351388892793493,-0.00427605677396059,-0.0177150927484035,0.0146607663482428
5,0.940277860008718,-0.234722242031366,-0.355555568443255,-0.00122173049021512,-0.0167987942695618,0.0146607663482428
5,0.94305554652751,-0.234722242031366,-0.361111135976272,-0.0021380283869803,-0.00916297826915979,0.0167987942695618
5,0.95000000594378,-0.237500001485945,-0.363888895430851,-0.00122173049021512,-0.00946841109544039,0.00488692196086049
5,0.947222222177272,-0.244444460902216,-0.375000006184955,0.00152716308366507,0.0146607663482428,-0.00427605677396059
5,0.947222222177272,-0.244444460902216,-0.370833354847121,-0.0027488935738802,0.021685715764761,-0.00152716308366507
5,0.947222222177272,-0.241666677135707,-0.359722244093018,0.0027488935738802,0.0244346093386412,-0.00824668072164059
5,0.947222222177272,-0.241666677135707,-0.351388892793493,0.00519235478714108,0.0366519130766392,-0.0143553335219622
5,0.948611114060526,-0.237500001485945,-0.356944460326509,0.00549778714776039,0.0189368221908808,-0.0213802829384804
5,0.947222222177272,-0.233333350148112,-0.361111135976272,0.00183259579353034,0.0100792767480016,-0.0021380283869803
5,0.948611114060526,-0.231944458264858,-0.365277787314105,-0.00916297826915979,0.0167987942695618,-0.00519235478714108
5,0.945833330294018,-0.236111109602691,-0.363888895430851,-0.00549778714776039,0.00794124789535999,-0.00366519158706069
5,0.941666654644256,-0.233333350148112,-0.358333352209763,-0.00549778714776039,0.0122173046693206,-0.00610865233466029
5,0.94305554652751,-0.234722242031366,-0.355555568443255,-0.00305432616733015,0.0152716310694814,0.000916297896765172
5,0.940277860008718,-0.233333350148112,-0.355555568443255,0.00702495034784079,0.00671951752156019,0.00183259579353034
5,0.947222222177272,-0.234722242031366,-0.358333352209763,0.000305432622553781,0.0021380283869803,-0.00397062394768
5,0.955555573476797,-0.236111109602691,-0.350000000910239,0.00824668072164059,-0.00488692196086049,0.0021380283869803
5,0.95000000594378,-0.233333350148112,-0.356944460326509,0.00305432616733015,-0.000916297896765172,0.00763581553474069
5,0.948611114060526,-0.236111109602691,-0.354166676560001,0.00427605677396059,-0.00580321997404099,0.0103847095742822
5,0.944444438410764,-0.231944458264858,-0.359722244093018,0.00641408516094089,-0.00702495034784079,0.00946841109544039
5,0.945833330294018,-0.231944458264858,-0.344444457689151,0.0109955742955208,-0.00733038317412138,0.0161879286170006
5,0.948611114060526,-0.236111109602691,-0.345833349572405,0.00916297826915979,-0.00824668072164059,0.01588249579072
5,0.948611114060526,-0.233333350148112,-0.354166676560001,0.0164933614432812,-0.00122173049021512,0.00946841109544039
5,0.952777789710289,-0.234722242031366,-0.358333352209763,0.0103847095742822,-0.00824668072164059,0.0100792767480016
5,0.947222222177272,-0.236111109602691,-0.354166676560001,0.0106901414692402,-0.0033597587607801,0.00244346098043024
5,0.95000000594378,-0.238888893369199,-0.356944460326509,0.00549778714776039,0.00916297826915979,0.00305432616733015
5,0.951388897827035,-0.229166674498349,-0.355555568443255,0.00733038317412138,0.0106901414692402,0.00305432616733015
5,0.947222222177272,-0.233333350148112,-0.363888895430851,0.0113010071218014,0.0226020142436027,-0.00152716308366507
5,0.94305554652751,-0.233333350148112,-0.372222246730376,0.00519235478714108,0.0219911485910416,0.00122173049021512
5,0.94305554652751,-0.233333350148112,-0.372222246730376,0.00549778714776039,0.0103847095742822,-0.00397062394768
5,0.940277860008718,-0.233333350148112,-0.361111135976272,0.00519235478714108,0.0128281703218818,0.000305432622553781
5,0.940277860008718,-0.233333350148112,-0.361111135976272,0.00763581553474069,-0.00519235478714108,0.000610865245107561
5,0.941666654644256,-0.233333350148112,-0.354166676560001,0.00733038317412138,-0.00733038317412138,0.0131336031481624
5,0.944444438410764,-0.229166674498349,-0.358333352209763,0.0143553335219622,-0.0244346093386412,0.00946841109544039
5,0.948611114060526,-0.231944458264858,-0.356944460326509,0.0143553335219622,-0.0103847095742822,0.00824668072164059
5,0.948611114060526,-0.231944458264858,-0.356944460326509,0.0204639863222837,-0.00488692196086049,0.00641408516094089
5,0.95000000594378,-0.234722242031366,-0.351388892793493,0.0146607663482428,0.0021380283869803,-0.00152716308366507
5,0.95000000594378,-0.234722242031366,-0.351388892793493,0.0152716310694814,-0.000916297896765172,-0.00366519158706069
5,0.951388897827035,-0.229166674498349,-0.344444457689151,0.0100792767480016,0.0033597587607801,0.000916297896765172
5,0.952777789710289,-0.229166674498349,-0.356944460326509,0.00519235478714108,0.0109955742955208,0.0045814891345799
5,0.952777789710289,-0.234722242031366,-0.354166676560001,0.00244346098043024,0.0106901414692402,0.0027488935738802
5,0.945833330294018,-0.236111109602691,-0.359722244093018,0.000916297896765172,0.00763581553474069,-0.0021380283869803
5,0.947222222177272,-0.238888893369199,-0.362500003547597,0.00733038317412138,0.0180205255746841,-0.011606439948082
5,0.947222222177272,-0.240277785252453,-0.368055571080613,0.00305432616733015,0.0229074470698834,-0.00702495034784079
5,0.948611114060526,-0.240277785252453,-0.347222241455659,0.0122173046693206,0.0244346093386412,-0.0140499006956816
5,0.94305554652751,-0.238888893369199,-0.351388892793493,0.00763581553474069,-0.0021380283869803,-0.00397062394768
5,0.940277860008718,-0.233333350148112,-0.361111135976272,0.0109955742955208,-0.00397062394768,0.00549778714776039
5,0.941666654644256,-0.233333350148112,-0.358333352209763,0.0149661982432008,-0.017409659922123,0.0106901414692402
5,0.938888968125464,-0.236111109602691,-0.356944460326509,0.00855211354792118,-0.0189368221908808,0.0128281703218818
5,0.933333400592447,-0.238888893369199,-0.359722244093018,0.0152716310694814,-0.0293215326964855,0.00885754637420177
5,0.93750007624221,-0.236111109602691,-0.358333352209763,0.00885754637420177,-0.019547687843442,0.00519235478714108
5,0.95000000594378,-0.229166674498349,-0.359722244093018,0.0131336031481624,-0.00244346098043024,-0.00152716308366507
5,0.947222222177272,-0.236111109602691,-0.358333352209763,0.0113010071218014,0.0045814891345799,0.00122173049021512
5,0.944444438410764,-0.236111109602691,-0.358333352209763,0.0100792767480016,-0.00122173049021512,-0.000610865245107561
5,0.94305554652751,-0.231944458264858,-0.352777784676747,0.0167987942695618,0.0100792767480016,-0.00671951752156019
5,0.947222222177272,-0.233333350148112,-0.352777784676747,0.0164933614432812,0.00519235478714108,-0.0100792767480016
5,0.94305554652751,-0.236111109602691,-0.348611133338914,0.0125227374956012,0.00183259579353034,-0.0161879286170006
5,0.945833330294018,-0.234722242031366,-0.358333352209763,0.0204639863222837,0.00946841109544039,-0.00977384392172098
5,0.945833330294018,-0.229166674498349,-0.345833349572405,0.0262672062963247,0.00763581553474069,-0.0109955742955208
5,0.948611114060526,-0.224999998848587,-0.351388892793493,0.0207694191485643,-0.00702495034784079,-0.0103847095742822
5,0.947222222177272,-0.226388890731841,-0.351388892793493,0.0146607663482428,-0.00885754637420177,0.0027488935738802
5,0.945833330294018,-0.231944458264858,-0.356944460326509,0.0213802829384804,-0.00824668072164059,-0.00183259579353034
5,0.945833330294018,-0.229166674498349,-0.354166676560001,0.0177150927484035,-0.00580321997404099,-0.00488692196086049
5,0.948611114060526,-0.229166674498349,-0.355555568443255,0.0128281703218818,0.00183259579353034,0.00152716308366507
5,0.95000000594378,-0.237500001485945,-0.358333352209763,0.00733038317412138,0.0122173046693206,-0.00824668072164059
5,0.955555573476797,-0.236111109602691,-0.358333352209763,0.0122173046693206,0.0134390350431204,-0.00488692196086049
5,0.952777789710289,-0.223611131277262,-0.366666679197359,0.00580321997404099,0.00366519158706069,-0.0106901414692402
5,0.945833330294018,-0.226388890731841,-0.362500003547597,0.00305432616733015,-0.00610865233466029,-0.00183259579353034
5,0.940277860008718,-0.223611131277262,-0.359722244093018,0.00152716308366507,-0.00946841109544039,0.00549778714776039
5,0.941666654644256,-0.231944458264858,-0.361111135976272,-0.000610865245107561,-0.00855211354792118,0.00183259579353034
5,0.940277860008718,-0.233333350148112,-0.361111135976272,-0.0033597587607801,-0.00763581553474069,0.00152716308366507
5,0.947222222177272,-0.230555566381603,-0.359722244093018,-0.00244346098043024,-0.00152716308366507,0.0045814891345799
5,0.945833330294018,-0.236111109602691,-0.358333352209763,0.0033597587607801,-0.01191187184304,0.011606439948082
5,0.947222222177272,-0.238888893369199,-0.352777784676747,0.0027488935738802,-0.0210748501121998,0.0100792767480016
5,0.948611114060526,-0.233333350148112,-0.359722244093018,0.00885754637420177,-0.0287106670439243,0.0189368221908808
5,0.94305554652751,-0.231944458264858,-0.361111135976272,0.01191187184304,-0.019547687843442,0.01191187184304
5,0.94305554652751,-0.234722242031366,-0.358333352209763,0.0232128798961639,-0.0387899428606033,0.011606439948082
5,0.941666654644256,-0.236111109602691,-0.363888895430851,0.0229074470698834,-0.0363464802503586,0.0146607663482428
5,0.947222222177272,-0.238888893369199,-0.365277787314105,0.027488935738802,-0.0250454749912024,0.000305432622553781
5,0.947222222177272,-0.243055569018962,-0.373611114301701,0.0305432621389627,-0.0100792767480016,-0.00580321997404099
5,0.948611114060526,-0.234722242031366,-0.363888895430851,0.0305432621389627,0.00519235478714108,-0.00488692196086049
5,0.948611114060526,-0.233333350148112,-0.358333352209763,0.0293215326964855,0.0232128798961639,-0.0250454749912024
5,0.947222222177272,-0.223611131277262,-0.359722244093018,0.015577063895762,0.00885754637420177,-0.00946841109544039
5,0.95000000594378,-0.218055563744246,-0.354166676560001,0.017409659922123,0.00916297826915979,-0.0113010071218014
5,0.954166681593543,-0.2194444556275,-0.350000000910239,0.00122173049021512,0.00244346098043024,-0.00122173049021512
5,0.954166681593543,-0.2194444556275,-0.350000000910239,-0.0045814891345799,0.00183259579353034,0.0106901414692402
5,0.954166681593543,-0.227777782615095,-0.352777784676747,-0.0180205255746841,0.00397062394768,0.0033597587607801
5,0.95000000594378,-0.229166674498349,-0.354166676560001,-0.0210748501121998,0.0250454749912024,0.00152716308366507
5,0.95000000594378,-0.231944458264858,-0.344444457689151,-0.0268780700862408,0.019547687843442,0.00733038317412138
5,0.947222222177272,-0.229166674498349,-0.343055565805897,-0.0280998013913631,0.0265726372599602,0.000305432622553781
5,0.945833330294018,-0.233333350148112,-0.361111135976272,-0.021685715764761,0.0146607663482428,0.00916297826915979
5,0.945833330294018,-0.233333350148112,-0.361111135976272,-0.0259617734700441,0.000916297896765172,0.0109955742955208
5,0.947222222177272,-0.234722242031366,-0.351388892793493,-0.0250454749912024,-0.00519235478714108,0.011606439948082
5,0.94305554652751,-0.237500001485945,-0.347222241455659,-0.0146607663482428,-0.000610865245107561,0.0171042270958424
5,0.94305554652751,-0.237500001485945,-0.347222241455659,-0.0177150927484035,-0.00397062394768,0.021685715764761
5,0.947222222177272,-0.233333350148112,-0.356944460326509,-0.00794124789535999,0.00580321997404099,0.00671951752156019
5,0.955555573476797,-0.233333350148112,-0.366666679197359,-0.0140499006956816,0.0146607663482428,0.00885754637420177
5,0.952777789710289,-0.233333350148112,-0.370833354847121,-0.0128281703218818,0.0186313893646002,0.0033597587607801
5,0.947222222177272,-0.233333350148112,-0.356944460326509,-0.0113010071218014,0.0229074470698834,-0.0021380283869803
5,0.945833330294018,-0.233333350148112,-0.356944460326509,-0.00885754637420177,0.0241291765123606,0.000916297896765172
5,0.944444438410764,-0.231944458264858,-0.354166676560001,-0.0149661982432008,0.00580321997404099,0.0021380283869803
5,0.940277860008718,-0.231944458264858,-0.356944460326509,-0.0189368221908808,0.00397062394768,0.00885754637420177
5,0.940277860008718,-0.229166674498349,-0.370833354847121,-0.0186313893646002,0.00824668072164059,0.0033597587607801
5,0.940277860008718,-0.236111109602691,-0.368055571080613,-0.0226020142436027,-0.00366519158706069,0.013744467869401
5,0.947222222177272,-0.231944458264858,-0.361111135976272,-0.0201585534960032,-0.000610865245107561,0.0210748501121998
5,0.95000000594378,-0.230555566381603,-0.359722244093018,-0.0241291765123606,-0.00549778714776039,0.0280998013913631
5,0.94305554652751,-0.230555566381603,-0.363888895430851,-0.0302378293126821,-0.00916297826915979,0.0229074470698834
5,0.94305554652751,-0.222222239394008,-0.358333352209763,-0.0259617734700441,-0.0201585534960032,0.0284052342176437
5,0.938888968125464,-0.230555566381603,-0.361111135976272,-0.0183259565383196,-0.0186313893646002,0.0308486949652433
5,0.941666654644256,-0.229166674498349,-0.363888895430851,-0.00977384392172098,-0.00549778714776039,0.0232128798961639
5,0.94305554652751,-0.238888893369199,-0.355555568443255,-0.00885754637420177,-0.0109955742955208,0.0253509078174829
5,0.948611114060526,-0.241666677135707,-0.365277787314105,-0.00885754637420177,-0.00733038317412138,0.0146607663482428
5,0.948611114060526,-0.240277785252453,-0.363888895430851,-0.00244346098043024,-0.00397062394768,0.0161879286170006
5,0.948611114060526,-0.240277785252453,-0.365277787314105,0.000610865245107561,0.0033597587607801,0.0103847095742822
5,0.95000000594378,-0.236111109602691,-0.358333352209763,0.00946841109544039,0.00152716308366507,-0.000916297896765172
5,0.941666654644256,-0.233333350148112,-0.356944460326509,0.00916297826915979,0.00427605677396059,-0.00641408516094089
5,0.944444438410764,-0.226388890731841,-0.368055571080613,0.00122173049021512,0.0113010071218014,0.00641408516094089
5,0.945833330294018,-0.229166674498349,-0.366666679197359,0.00152716308366507,0.00977384392172098,0.00885754637420177
5,0.94305554652751,-0.230555566381603,-0.347222241455659,0.00366519158706069,0.00794124789535999,0.00824668072164059
5,0.944444438410764,-0.236111109602691,-0.350000000910239,0.00977384392172098,-0.0134390350431204,0.00671951752156019
5,0.941666654644256,-0.230555566381603,-0.355555568443255,0.00946841109544039,-0.0250454749912024,0.0201585534960032
5,0.941666654644256,-0.233333350148112,-0.362500003547597,0.0109955742955208,-0.0198531206697226,0.00977384392172098
5,0.94305554652751,-0.234722242031366,-0.358333352209763,0.00977384392172098,-0.0287106670439243,0.0210748501121998
5,0.947222222177272,-0.233333350148112,-0.361111135976272,0.00916297826915979,-0.0183259565383196,0.0134390350431204
5,0.954166681593543,-0.227777782615095,-0.354166676560001,0.0125227374956012,-0.00946841109544039,0.00580321997404099
5,0.95000000594378,-0.230555566381603,-0.354166676560001,0.0109955742955208,-0.0027488935738802,0.00183259579353034
5,0.94305554652751,-0.230555566381603,-0.361111135976272,0.01191187184304,-0.0134390350431204,0.00916297826915979
5,0.94305554652751,-0.230555566381603,-0.362500003547597,0.0161879286170006,-0.0186313893646002,0.0140499006956816
5,0.947222222177272,-0.231944458264858,-0.359722244093018,0.0128281703218818,-0.0134390350431204,0.00763581553474069
5,0.947222222177272,-0.236111109602691,-0.354166676560001,0.0171042270958424,-0.0201585534960032,0.00733038317412138
5,0.95000000594378,-0.241666677135707,-0.363888895430851,0.01191187184304,-0.0143553335219622,0.00366519158706069
5,0.944444438410764,-0.236111109602691,-0.369444462963867,0.0180205255746841,0.000305432622553781,0.00580321997404099
5,0.944444438410764,-0.233333350148112,-0.358333352209763,0.0198531206697226,-0.00733038317412138,0.0027488935738802
5,0.941666654644256,-0.233333350148112,-0.361111135976272,0.0186313893646002,-0.0131336031481624,0.0109955742955208
5,0.944444438410764,-0.229166674498349,-0.363888895430851,0.0100792767480016,-0.019547687843442,0.0106901414692402
5,0.944444438410764,-0.233333350148112,-0.368055571080613,0.0149661982432008,-0.02382374368608,0.0109955742955208
5,0.94305554652751,-0.233333350148112,-0.368055571080613,0.0109955742955208,-0.0146607663482428,0.0131336031481624
5,0.94305554652751,-0.234722242031366,-0.361111135976272,0.0167987942695618,-0.017409659922123,0.00549778714776039
5,0.94305554652751,-0.238888893369199,-0.363888895430851,0.0171042270958424,-0.00671951752156019,0.0134390350431204
5,0.948611114060526,-0.237500001485945,-0.375000006184955,0.01191187184304,-0.0045814891345799,0.00580321997404099
5,0.948611114060526,-0.233333350148112,-0.363888895430851,0.01588249579072,0.00152716308366507,-0.00183259579353034
5,0.947222222177272,-0.234722242031366,-0.363888895430851,0.011606439948082,0.000610865245107561,-0.00427605677396059
5,0.944444438410764,-0.240277785252453,-0.368055571080613,0.00580321997404099,0.0045814891345799,0.00488692196086049
5,0.95000000594378,-0.236111109602691,-0.355555568443255,0.0100792767480016,0.000916297896765172,0.0045814891345799
5,0.944444438410764,-0.231944458264858,-0.358333352209763,0.00733038317412138,0.00916297826915979,-0.00122173049021512
5,0.94305554652751,-0.236111109602691,-0.358333352209763,0.00946841109544039,-0.00519235478714108,0.00366519158706069
5,0.940277860008718,-0.229166674498349,-0.368055571080613,0.00794124789535999,-0.00671951752156019,0.015577063895762
5,0.944444438410764,-0.231944458264858,-0.361111135976272,0.00733038317412138,-0.0113010071218014,0.011606439948082
5,0.947222222177272,-0.236111109602691,-0.368055571080613,0.00580321997404099,-0.0226020142436027,0.0125227374956012
5,0.94305554652751,-0.241666677135707,-0.366666679197359,0.00977384392172098,-0.0204639863222837,0.0103847095742822
5,0.94305554652751,-0.238888893369199,-0.363888895430851,0.0045814891345799,-0.0146607663482428,0.0106901414692402
5,0.938888968125464,-0.236111109602691,-0.365277787314105,0.00763581553474069,-0.00641408516094089,0.00824668072164059
5,0.934722292475701,-0.236111109602691,-0.369444462963867,0.00641408516094089,-0.0164933614432812,0.00855211354792118
5,0.93750007624221,-0.238888893369199,-0.359722244093018,0.00580321997404099,-0.00702495034784079,0.0131336031481624
5,0.941666654644256,-0.238888893369199,-0.366666679197359,0.00702495034784079,0.00122173049021512,0.0109955742955208
5,0.936111184358955,-0.236111109602691,-0.373611114301701,0.00519235478714108,-0.0106901414692402,0.0161879286170006
5,0.940277860008718,-0.233333350148112,-0.363888895430851,-0.00152716308366507,-0.0183259565383196,0.0134390350431204
5,0.941666654644256,-0.238888893369199,-0.368055571080613,-0.0045814891345799,-0.0192422550171614,0.0161879286170006
5,0.941666654644256,-0.238888893369199,-0.368055571080613,0.00397062394768,-0.0122173046693206,0.0180205255746841
5,0.93750007624221,-0.238888893369199,-0.363888895430851,0.00183259579353034,-0.015577063895762,0.0100792767480016
5,0.940277860008718,-0.243055569018962,-0.369444462963867,-0.00702495034784079,-0.0207694191485643,0.01191187184304
5,0.940277860008718,-0.243055569018962,-0.369444462963867,0.00122173049021512,-0.00549778714776039,0.0131336031481624
5,0.940277860008718,-0.243055569018962,-0.372222246730376,0.00549778714776039,-0.00519235478714108,0.0146607663482428
5,0.944444438410764,-0.241666677135707,-0.368055571080613,-0.000305432622553781,0.00519235478714108,0.0134390350431204
5,0.944444438410764,-0.241666677135707,-0.368055571080613,-0.00122173049021512,-0.00122173049021512,0.0106901414692402
5,0.931944508709193,-0.24583335278547,-0.373611114301701,0.0021380283869803,0.00122173049021512,0.0143553335219622
5,0.938888968125464,-0.243055569018962,-0.369444462963867,0.00702495034784079,-0.00702495034784079,0.00977384392172098
5,0.940277860008718,-0.243055569018962,-0.362500003547597,0.00733038317412138,-0.0109955742955208,0.00763581553474069
5,0.940277860008718,-0.244444460902216,-0.370833354847121,0.01191187184304,-0.00183259579353034,0.00977384392172098
5,0.93750007624221,-0.24583335278547,-0.370833354847121,0.0164933614432812,-0.0045814891345799,0.0161879286170006
5,0.938888968125464,-0.247222220356795,-0.373611114301701,0.0143553335219622,-0.00946841109544039,0.0146607663482428
5,0.938888968125464,-0.243055569018962,-0.375000006184955,0.0207694191485643,-0.00977384392172098,0.00763581553474069
5,0.940277860008718,-0.243055569018962,-0.376388898068209,0.0265726372599602,0.00183259579353034,0.00733038317412138
5,0.94305554652751,-0.240277785252453,-0.372222246730376,0.0204639863222837,-0.00763581553474069,0.00152716308366507
5,0.94305554652751,-0.240277785252453,-0.376388898068209,0.0189368221908808,-0.000305432622553781,0.00702495034784079
5,0.940277860008718,-0.234722242031366,-0.376388898068209,0.0229074470698834,-0.00763581553474069,0.0027488935738802
5,0.940277860008718,-0.236111109602691,-0.375000006184955,0.0161879286170006,-0.00397062394768,0.00397062394768
5,0.940277860008718,-0.243055569018962,-0.368055571080613,0.0113010071218014,-0.00549778714776039,-0.00366519158706069
5,0.940277860008718,-0.241666677135707,-0.375000006184955,0.00916297826915979,0.00244346098043024,0.00610865233466029
5,0.940277860008718,-0.241666677135707,-0.370833354847121,0.0100792767480016,-0.00366519158706069,-0.00183259579353034
5,0.940277860008718,-0.236111109602691,-0.376388898068209,0.0131336031481624,0.00580321997404099,0.00549778714776039
5,0.944444438410764,-0.238888893369199,-0.373611114301701,0.00946841109544039,0.00763581553474069,0.00427605677396059
5,0.941666654644256,-0.243055569018962,-0.369444462963867,0.00580321997404099,0.00244346098043024,0.0027488935738802
5,0.947222222177272,-0.250000004123303,-0.369444462963867,0.0128281703218818,0.00122173049021512,0.00427605677396059
5,0.945833330294018,-0.248611112240049,-0.370833354847121,0.01191187184304,0.00427605677396059,0.00152716308366507
5,0.94305554652751,-0.248611112240049,-0.372222246730376,0.0134390350431204,0.0033597587607801,0.00183259579353034
5,0.938888968125464,-0.244444460902216,-0.368055571080613,0.0189368221908808,0.00244346098043024,0.00244346098043024
5,0.94305554652751,-0.244444460902216,-0.366666679197359,0.0140499006956816,0.0027488935738802,0.00702495034784079
5,0.938888968125464,-0.244444460902216,-0.369444462963867,0.0177150927484035,0.00152716308366507,-0.00733038317412138
5,0.936111184358955,-0.244444460902216,-0.370833354847121,0.0140499006956816,0.0103847095742822,-0.00122173049021512
5,0.93750007624221,-0.243055569018962,-0.366666679197359,0.0253509078174829,0.0113010071218014,0.000305432622553781
5,0.933333400592447,-0.24583335278547,-0.368055571080613,0.0222965814173222,0.0161879286170006,0.000916297896765172
5,0.94305554652751,-0.24583335278547,-0.377777789951463,0.0183259565383196,0.0226020142436027,-0.0027488935738802
5,0.947222222177272,-0.24583335278547,-0.384722225055805,0.0235183127224445,0.021685715764761,-0.01191187184304
5,0.941666654644256,-0.24583335278547,-0.370833354847121,0.0183259565383196,0.0284052342176437,-0.01191187184304
5,0.938888968125464,-0.248611112240049,-0.361111135976272,0.017409659922123,0.0131336031481624,-0.00794124789535999
5,0.93750007624221,-0.244444460902216,-0.361111135976272,0.0192422550171614,0.00763581553474069,0.000610865245107561
5,0.93750007624221,-0.238888893369199,-0.361111135976272,0.0180205255746841,-0.0100792767480016,0.011606439948082
5,0.93750007624221,-0.238888893369199,-0.366666679197359,0.0204639863222837,-0.0161879286170006,0.0201585534960032
5,0.947222222177272,-0.244444460902216,-0.366666679197359,0.017409659922123,-0.00488692196086049,0.0106901414692402
5,0.945833330294018,-0.247222220356795,-0.375000006184955,0.0207694191485643,0.00610865233466029,0.00885754637420177
5,0.948611114060526,-0.247222220356795,-0.368055571080613,0.0171042270958424,0.015577063895762,-0.0027488935738802
5,0.948611114060526,-0.24583335278547,-0.370833354847121,0.0122173046693206,0.0329867228865623,-0.01588249579072
5,0.947222222177272,-0.238888893369199,-0.368055571080613,0.00946841109544039,0.0568104684352875,-0.0189368221908808
5,0.95000000594378,-0.244444460902216,-0.354166676560001,0.00427605677396059,0.0360410511493683,-0.0280998013913631
5,0.947222222177272,-0.252777787889811,-0.363888895430851,-0.0198531206697226,0.0226020142436027,-0.0229074470698834
5,0.94305554652751,-0.247222220356795,-0.365277787314105,-0.0232128798961639,0.00427605677396059,-0.0351247526705265
5,0.947222222177272,-0.241666677135707,-0.361111135976272,-0.0351247526705265,0.00183259579353034,-0.0287106670439243
5,0.951388897827035,-0.250000004123303,-0.368055571080613,-0.0186313893646002,0.0342084541916847,-0.0497855171561241
5,0.944444438410764,-0.24583335278547,-0.369444462963867,-0.0103847095742822,0.0280998013913631,-0.0500909499824047
5,0.913888914226889,-0.238888893369199,-0.354166676560001,-0.0045814891345799,-0.00610865233466029,-0.0277943685650826
5,0.918055589876652,-0.233333350148112,-0.343055565805897,0.0103847095742822,-0.0247400421649218,0.00763581553474069
5,0.916666697993398,-0.231944458264858,-0.345833349572405,0.0259617734700441,-0.0326812900602817,0.0265726372599602
5,0.931944508709193,-0.233333350148112,-0.340277782039389,0.0293215326964855,-0.0219911485910416,0.0400116741657257
5,0.940277860008718,-0.231944458264858,-0.358333352209763,0.0335975885391235,-0.00397062394768,0.0403171069920063
5,0.954166681593543,-0.240277785252453,-0.377777789951463,0.0311541277915239,-0.0226020142436027,0.0183259565383196
5,0.96666670854283,-0.24583335278547,-0.379166681834717,0.027488935738802,-0.0241291765123606,-0.00366519158706069
5,0.968055600426084,-0.248611112240049,-0.380555573717971,0.02382374368608,0.03176499158144,-0.0311541277915239
5,0.96666670854283,-0.241666677135707,-0.377777789951463,0.0271835029125214,0.0806342139840126,-0.0430659987032413
5,0.954166681593543,-0.227777782615095,-0.358333352209763,0.0244346093386412,0.0806342139840126,-0.0589484944939613
5,0.941666654644256,-0.2194444556275,-0.333333346935047,0.00885754637420177,0.0482583530247212,-0.0503963828086853
5,0.940277860008718,-0.2194444556275,-0.33750002258481,-0.0106901414692402,-0.00488692196086049,-0.0167987942695618
5,0.945833330294018,-0.220833347510754,-0.369444462963867,-0.0299323964864016,-0.0366519130766392,0.00977384392172098
5,0.944444438410764,-0.226388890731841,-0.370833354847121,-0.0320704244077206,-0.0284052342176437,0.0280998013913631
5,0.93750007624221,-0.226388890731841,-0.368055571080613,-0.0305432621389627,0.0140499006956816,0.0302378293126821
5,0.933333400592447,-0.224999998848587,-0.366666679197359,-0.0363464802503586,0.0326812900602817,0.0210748501121998
5,0.934722292475701,-0.226388890731841,-0.362500003547597,-0.0326812900602817,0.0552833043038845,0.011606439948082
5,0.936111184358955,-0.238888893369199,-0.365277787314105,-0.027488935738802,0.0561996027827263,0.0125227374956012
5,0.936111184358955,-0.238888893369199,-0.365277787314105,-0.0113010071218014,0.017409659922123,0.0149661982432008
5,0.947222222177272,-0.247222220356795,-0.376388898068209,0.00641408516094089,-0.0045814891345799,-0.0033597587607801
5,0.947222222177272,-0.247222220356795,-0.376388898068209,0.00763581553474069,-0.00855211354792118,-0.00977384392172098
5,0.934722292475701,-0.259722222994153,-0.379166681834717,0.0339030213654041,0.0143553335219622,-0.0219911485910416
5,0.927777833059431,-0.256944463539574,-0.370833354847121,0.0540615729987621,0.0103847095742822,-0.0232128798961639
5,0.922222265526414,-0.248611112240049,-0.365277787314105,0.0726929605007172,0.0109955742955208,-0.000610865245107561
5,0.930555616825939,-0.236111109602691,-0.340277782039389,0.0916297882795334,0.00244346098043024,0.0189368221908808
5,0.940277860008718,-0.236111109602691,-0.331944455051793,0.0949895456433296,-0.0494800843298435,0.0189368221908808
5,0.93750007624221,-0.236111109602691,-0.338888890156135,0.0778853222727776,-0.0748309940099716,0.021685715764761
5,0.945833330294018,-0.236111109602691,-0.344444457689151,0.0821613743901253,-0.0897971913218498,0.0415388382971287
5,0.969444492309338,-0.236111109602691,-0.354166676560001,0.0797179117798805,-0.0232128798961639,0.0500909499824047
5,0.981944519258625,-0.241666677135707,-0.361111135976272,0.0641408488154411,0.0461203269660473,0.0284052342176437
5,0.970833384192592,-0.250000004123303,-0.369444462963867,0.0387899428606033,0.0687223374843597,-0.00977384392172098
5,0.970833384192592,-0.250000004123303,-0.369444462963867,0.037568211555481,0.0699440687894821,-0.0235183127224445
5,0.956944465360051,-0.240277785252453,-0.343055565805897,0.0299323964864016,0.0797179117798805,-0.0342084541916847
5,0.956944465360051,-0.240277785252453,-0.343055565805897,0.0250454749912024,0.0748309940099716,-0.0394008085131645
5,0.938888968125464,-0.231944458264858,-0.33750002258481,0.0164933614432812,0.0397062413394451,-0.0271835029125214
5,0.931944508709193,-0.233333350148112,-0.351388892793493,0.00488692196086049,0.01588249579072,-0.0171042270958424
5,0.931944508709193,-0.233333350148112,-0.351388892793493,0.0033597587607801,0.0177150927484035,-0.0128281703218818
5,0.945833330294018,-0.233333350148112,-0.345833349572405,-0.0021380283869803,0.0219911485910416,-0.000916297896765172
5,0.947222222177272,-0.241666677135707,-0.338888890156135,0.00671951752156019,0.0177150927484035,0.00244346098043024
5,0.947222222177272,-0.241666677135707,-0.338888890156135,0.011606439948082,0.000916297896765172,0.00580321997404099
5,0.938888968125464,-0.243055569018962,-0.355555568443255,0.0171042270958424,-0.00305432616733015,0.000916297896765172
5,0.929166724942685,-0.250000004123303,-0.343055565805897,0.0180205255746841,-0.0329867228865623,0.00519235478714108
5,0.929166724942685,-0.250000004123303,-0.343055565805897,0.0256563406437635,-0.0610865242779255,0.00916297826915979
5,0.94305554652751,-0.248611112240049,-0.351388892793493,0.0357356183230877,-0.0574213340878487,0.0122173046693206
5,0.968055600426084,-0.248611112240049,-0.361111135976272,0.0363464802503586,-0.00488692196086049,0.00397062394768
5,0.968055600426084,-0.248611112240049,-0.361111135976272,0.0271835029125214,0.0387899428606033,-0.0131336031481624
5,0.961111141009813,-0.238888893369199,-0.345833349572405,0.017409659922123,0.0507018156349659,-0.0125227374956012
5,0.956944465360051,-0.234722242031366,-0.334722238818301,0.00427605677396059,0.0452040284872055,-0.00488692196086049
5,0.95000000594378,-0.224999998848587,-0.33750002258481,-0.00916297826915979,0.0326812900602817,0.0125227374956012
5,0.944444438410764,-0.2194444556275,-0.338888890156135,-0.0271835029125214,0.0235183127224445,0.0287106670439243
5,0.947222222177272,-0.223611131277262,-0.344444457689151,-0.0430659987032413,0.0146607663482428,0.0363464802503586
5,0.948611114060526,-0.229166674498349,-0.361111135976272,-0.0507018156349659,0.0177150927484035,0.0390953756868839
5,0.947222222177272,-0.229166674498349,-0.368055571080613,-0.0561996027827263,0.0601702257990837,0.0326812900602817
5,0.94305554652751,-0.243055569018962,-0.363888895430851,-0.0537561401724815,0.0684169083833694,0.029626963660121
5,0.951388897827035,-0.252777787889811,-0.365277787314105,-0.0244346093386412,0.0812450796365738,0.0268780700862408
5,0.956944465360051,-0.261111114877407,-0.352777784676747,0.00519235478714108,0.0717766657471657,0.00763581553474069
5,0.952777789710289,-0.259722222994153,-0.344444457689151,0.0531452745199203,0.0436768643558025,-0.00794124789535999
5,0.948611114060526,-0.251388896006557,-0.330555563168539,0.0675006061792374,0.00519235478714108,-0.0308486949652433
5,0.940277860008718,-0.238888893369199,-0.322222236180943,0.0879645943641663,-0.0183259565383196,-0.0320704244077206
5,0.93750007624221,-0.227777782615095,-0.322222236180943,0.104457959532738,-0.0354301854968071,-0.0134390350431204
5,0.95000000594378,-0.229166674498349,-0.341666673922643,0.100792765617371,-0.0302378293126821,-0.0229074470698834
5,0.959722249126559,-0.250000004123303,-0.348611133338914,0.0897971913218498,-0.0232128798961639,-0.0360410511493683
5,0.96666670854283,-0.256944463539574,-0.354166676560001,0.0665843114256859,0.0186313893646002,-0.0580321997404099
5,0.962500032893068,-0.256944463539574,-0.352777784676747,0.0339030213654041,0.0647517144680023,-0.0629191175103188
5,0.95000000594378,-0.240277785252453,-0.351388892793493,0.015577063895762,0.0720821022987366,-0.0335975885391235
5,0.945833330294018,-0.229166674498349,-0.348611133338914,-0.0204639863222837,0.0192422550171614,-0.0106901414692402
5,0.927777833059431,-0.208333344873396,-0.358333352209763,-0.0589484944939613,-0.0381790772080422,0.0122173046693206
5,0.936111184358955,-0.206944452990142,-0.352777784676747,-0.0943786799907684,-0.0571159012615681,0.0400116741657257
5,0.94305554652751,-0.216666671860991,-0.354166676560001,-0.10598511993885,-0.0421497002243996,0.0491746515035629
5,0.962500032893068,-0.227777782615095,-0.341666673922643,-0.11117747426033,-0.00305432616733015,0.0552833043038845
5,0.968055600426084,-0.247222220356795,-0.350000000910239,-0.103541657328606,0.0103847095742822,0.0616973899304867
5,0.956944465360051,-0.24583335278547,-0.343055565805897,-0.0852157026529312,-0.0177150927484035,0.0540615729987621
5,0.94305554652751,-0.252777787889811,-0.333333346935047,-0.0647517144680023,-0.0369573459029198,0.0503963828086853
5,0.944444438410764,-0.25555557165632,-0.334722238818301,-0.029626963660121,-0.03176499158144,0.0277943685650826
5,0.95000000594378,-0.265277790527169,-0.341666673922643,-0.011606439948082,-0.01191187184304,0.0143553335219622
5,0.954166681593543,-0.270833333748257,-0.334722238818301,0.0106901414692402,0.0128281703218818,-0.00397062394768
5,0.959722249126559,-0.270833333748257,-0.329166671285285,0.0247400421649218,0.0180205255746841,-0.0342084541916847
5,0.958333357243305,-0.259722222994153,-0.333333346935047,0.0265726372599602,0.0277943685650826,-0.0436768643558025
5,0.961111141009813,-0.250000004123303,-0.341666673922643,0.0482583530247212,0.0565050356090069,-0.0775798857212067
5,0.955555573476797,-0.24583335278547,-0.344444457689151,0.0577267669141293,0.0699440687894821,-0.0751364231109619
5,0.95000000594378,-0.238888893369199,-0.348611133338914,0.0708603709936142,0.0842994004487991,-0.0662788823246956
5,0.933333400592447,-0.234722242031366,-0.336111130701556,0.0729983970522881,0.0739146918058395,-0.0577267669141293
5,0.930555616825939,-0.237500001485945,-0.334722238818301,0.0781907513737679,0.029626963660121,-0.0360410511493683
5,0.933333400592447,-0.236111109602691,-0.330555563168539,0.0729983970522881,-0.00794124789535999,-0.0192422550171614
5,0.941666654644256,-0.231944458264858,-0.327777779402031,0.064446285367012,-0.0339030213654041,0.00366519158706069
5,0.940277860008718,-0.230555566381603,-0.325000019947452,0.0470366254448891,-0.0372627787292004,0.00122173049021512
5,0.944444438410764,-0.233333350148112,-0.302777798439244,0.0381790772080422,-0.0629191175103188,0.01588249579072
5,0.952777789710289,-0.230555566381603,-0.316666668647927,0.0308486949652433,-0.0791070461273193,0.0290160998702049
5,0.956944465360051,-0.233333350148112,-0.323611128064198,0.027488935738802,-0.0897971913218498,0.0430659987032413
5,0.956944465360051,-0.233333350148112,-0.323611128064198,0.0244346093386412,-0.0632245540618896,0.0409279726445675
5,0.961111141009813,-0.238888893369199,-0.341666673922643,0.015577063895762,-0.0549778714776039,0.0384845100343227
5,0.962500032893068,-0.241666677135707,-0.327777779402031,0.0265726372599602,-0.0458148941397667,0.0406225398182869
5,0.962500032893068,-0.241666677135707,-0.327777779402031,0.0152716310694814,-0.0332921557128429,0.0186313893646002
5,0.951388897827035,-0.252777787889811,-0.358333352209763,0.0305432621389627,-0.017409659922123,0.00977384392172098
5,0.947222222177272,-0.251388896006557,-0.370833354847121,0.0348193198442459,0.00366519158706069,0.00244346098043024
5,0.947222222177272,-0.251388896006557,-0.370833354847121,0.0342084541916847,0.0229074470698834,-0.00946841109544039
5,0.947222222177272,-0.252777787889811,-0.362500003547597,0.0265726372599602,0.0479529201984406,-0.0219911485910416
5,0.944444438410764,-0.234722242031366,-0.344444457689151,0.0222965814173222,0.0522289797663689,-0.029626963660121
5,0.944444438410764,-0.234722242031366,-0.344444457689151,0.00794124789535999,0.019547687843442,-0.02382374368608
5,0.94305554652751,-0.227777782615095,-0.33750002258481,0.000305432622553781,-0.0125227374956012,-0.00733038317412138
5,0.947222222177272,-0.230555566381603,-0.329166671285285,0.00305432616733015,-0.0433714315295219,0.0152716310694814
5,0.944444438410764,-0.227777782615095,-0.343055565805897,0.000610865245107561,-0.0656680166721344,0.0250454749912024
5,0.947222222177272,-0.230555566381603,-0.336111130701556,0.0027488935738802,-0.0729983970522881,0.0384845100343227
5,0.95000000594378,-0.238888893369199,-0.348611133338914,0.00488692196086049,-0.0580321997404099,0.0397062413394451
5,0.958333357243305,-0.241666677135707,-0.341666673922643,0.011606439948082,-0.0491746515035629,0.0400116741657257
5,0.961111141009813,-0.238888893369199,-0.331944455051793,0.00794124789535999,-0.0372627787292004,0.0271835029125214
