Activity,acc_x,acc_y,acc_z,gyro_x,gyro_y,gyro_z
0,0.473611111088636,0.0222222230277034,0.887500065692777,0.0290160998702049,0.0198531206697226,-0.00855211354792118
0,0.477777786738398,0.0222222230277034,0.890277849459286,0.0250454749912024,0.0390953756868839,-0.01191187184304
0,0.476388894855144,0.0208333341834404,0.883333390043015,0.00855211354792118,0.0109955742955208,-0.00244346098043024
0,0.477777786738398,0.0222222230277034,0.888888957576031,-0.0397062413394451,0.0152716310694814,0.0189368221908808
0,0.473611111088636,0.0347222241455659,0.872222254976982,-0.0610865242779255,0.0189368221908808,0.0271835029125214
0,0.470833327322128,0.027777779924251,0.863888903677457,-0.0299323964864016,-0.00794124789535999,0.0500909499824047
0,0.486111138037923,0.0180555564949145,0.883333390043015,-0.0210748501121998,-0.0351247526705265,0.0781907513737679
0,0.486111138037923,0.0180555564949145,0.883333390043015,-0.0503963828086853,0.0916297882795334,0.115453533828259
0,0.476388894855144,0.0194444453391775,0.898611103511094,0.00397062394768,0.0222965814173222,0.0827722400426865
0,0.476388894855144,0.0194444453391775,0.898611103511094,-0.0027488935738802,0.0125227374956012,0.0867428630590439
0,0.46527780841297,0.0194444453391775,0.86805557932722,-0.0134390350431204,-0.0369573459029198,0.0971275717020035
0,0.459722240879953,0.0208333341834404,0.884722281926269,-0.00763581553474069,-0.111482910811901,0.115758962929249
0,0.454166673346937,0.0194444453391775,0.877777822509998,-0.0335975885391235,-0.131030589342117,0.150883719325066
0,0.473611111088636,0.0138888899621255,0.894444525109048,-0.0684169083833694,-0.0754418596625328,0.161268427968025
0,0.473611111088636,0.0138888899621255,0.887500065692777,-0.0635299831628799,-0.00794124789535999,0.147829383611679
0,0.484722246154669,-0.0361111129898289,0.894444525109048,-0.0363464802503586,-0.0183259565383196,0.19028452038765
0,0.486111138037923,-0.0430555572111439,0.899999995394348,0.0659734457731247,-0.0482583530247212,0.214719131588936
0,0.486111138037923,-0.0430555572111439,0.899999995394348,0.0580321997404099,-0.125227376818657,0.255647093057633
0,0.481944462388161,-0.0513888902767219,0.873611146860236,-0.0259617734700441,-0.213497400283814,0.346666038036346
0,0.493055597454194,-0.0458333348996699,0.863888903677457,-0.0839939713478088,-0.238542884588242,0.401949346065521
0,0.512500035195893,-0.0625000010308258,0.849999984844916,-0.0412334054708481,-0.202196389436722,0.434936046600342
0,0.512500035195893,-0.0625000010308258,0.849999984844916,0.0320704244077206,-0.120645888149738,0.471282541751862
0,0.548611126912784,-0.0638888929140799,0.893055633225794,0.215024560689926,-0.108734011650086,0.433714330196381
0,0.573611132187501,-0.0597222233422998,0.893055633225794,0.205556154251099,0.116980694234371,0.336586743593216
0,0.518055554105052,0.0111111115138517,0.720833380069289,-0.240680903196335,1.08306407928467,0.501520395278931
0,0.454166673346937,-0.0444444460554069,0.843055622676362,-0.53969943523407,0.63438355922699,0.6722571849823
0,0.454166673346937,-0.0444444460554069,0.843055622676362,-0.0781907513737679,0.0204639863222837,0.608727216720581
0,0.500000008246606,-0.0444444460554069,0.940277860008718,0.232128798961639,-0.0140499006956816,0.649655163288116
0,0.466666700296224,-0.0222222230277034,0.908333346693873,0.129503428936005,0.17470745742321,0.77640974521637
0,0.462500024646461,-0.0388888906783549,0.951388897827035,0.103847093880177,0.286495804786682,1.01373088359833
0,0.469444484062732,-0.101388894748172,0.940277860008718,0.251371055841446,0.0360410511493683,1.10291719436646
0,0.488888921804431,-0.161111118090472,0.836111163260091,0.188451930880547,-0.350636661052704,1.10719323158264
0,0.459722240879953,-0.166666673467524,0.870833363093728,0.359494209289551,-0.963334500789642,1.18874371051788
0,0.479166678621653,-0.123611110178398,0.813888941751883,0.170431405305862,-0.570242702960968,1.22661745548248
0,0.530555581054339,-0.125000002061652,0.926388941176177,0.264810085296631,-0.346971452236175,1.14079082012176
0,0.47500000297189,-0.0888888921108138,0.951388897827035,0.414777487516403,-0.271529614925385,1.14598321914673
0,0.455555565230191,-0.0958333393711199,0.918055589876652,0.223271250724793,-0.441960990428925,1.30297553539276
0,0.500000008246606,-0.130555557438704,0.884722281926269,0.200669229030609,-0.639270484447479,1.23028254508972
0,0.598611137462217,-0.186111123365188,0.888888957576031,0.397978693246841,-0.398894995450974,0.849408149719238
0,0.548611126912784,-0.13750000469901,0.816666676894533,0.276721954345703,0.00977384392172098,0.739452362060547
0,0.373611114301701,-0.0222222230277034,0.731944466511464,-0.0901026204228401,0.732427418231964,0.892168700695038
0,0.423611149163062,-0.0583333375370279,0.752777796136418,-0.344222575426102,0.582765460014343,1.01098203659058
0,0.476388894855144,-0.104166672436698,1.01527782720901,0.0952949747443199,-0.48685958981514,0.95294976234436
0,0.488888921804431,-0.0708333340964038,1.06527783775844,1.02014493942261,-0.755334854125977,0.916603326797485
0,0.502777792013115,-0.0972222251763917,0.915277806110144,1.16827976703644,-0.379652738571167,0.826500654220581
0,0.538888932353864,-0.140277788465518,0.837500055143345,1.09619772434235,-0.340557366609573,0.796262860298157
0,0.598611137462217,-0.161111118090472,0.801388914802596,1.12460291385651,-0.510988771915436,0.778242349624634
0,0.581944483487025,-0.105555564319952,0.798611131036088,1.34146010875702,-0.616973876953125,1.32618844509125
0,0.636111121062362,-0.0569444456537738,0.812500049868629,1.53999125957489,-0.430965423583984,1.661248087883
0,0.656944450687316,-0.0236111118719664,0.768055606852213,1.40926611423492,0.141109868884087,1.49203836917877
0,0.656944450687316,-0.0236111118719664,0.768055606852213,0.233655959367752,0.464868456125259,1.65330684185028
0,0.786111152710659,-0.162500009973726,0.702777785586986,-0.506101846694946,0.160352125763893,1.95843398571014
0,0.831944487610329,-0.24583335278547,0.729166682744956,-0.717155814170837,-1.54671084880829,2.54303193092346
0,0.811111157985375,-0.325000019947452,0.733333358394718,-0.358883321285248,-3.56409335136414,3.06623816490173
0,0.793055563503071,-0.272222225631511,0.673611153286365,-0.217468023300171,-5.11049842834473,2.77119016647339
0,0.763888931202451,-0.212499996211229,0.608333332021137,-0.377209275960922,-6.21249961853027,2.40986347198486
0,0.825000028194058,-0.208333344873396,0.50138890012986,-0.560774266719818,-6.90766429901123,2.33014535903931
0,0.858333336144441,-0.254166679773066,0.538888932353864,-0.425773084163666,-7.12849187850952,2.27638936042786
0,0.798611131036088,-0.325000019947452,0.651388931778157,-0.980744123458862,-6.68103313446045,1.83473372459412
0,0.673611153286365,-0.351388892793493,0.765277823085705,-2.00333261489868,-4.72718048095703,1.2855658531189
0,0.515277818962402,-0.318055560531181,0.626388926503441,-1.93674826622009,-3.34662532806396,1.2467759847641
0,0.515277818962402,-0.223611131277262,0.505555575779623,-1.36620008945465,-3.1957414150238,0.7889324426651
0,0.801388914802596,-0.229166674498349,0.430555559955475,-1.28434419631958,-2.86098742485046,0.30695977807045
0,1.00000001649321,-0.308333341660331,0.222222239394008,-2.13955545425415,-3.72291827201843,-0.389426589012146
0,1.18194446420864,-0.440277803138253,0.101388894748172,-1.33687853813171,-3.17069602012634,-0.5555819272995
0,0.986111194908388,-0.479166678621653,0.0791666671619817,0.720820963382721,-1.97309470176697,0.365602850914002
0,0.863888903677457,-0.515277818962402,-0.0680555564078778,1.12765729427338,-1.03663837909699,1.10841500759125
0,0.801388914802596,-0.468055592179478,-0.283333336385615,-0.177150920033455,-0.779769480228424,1.07817721366882
0,0.811111157985375,-0.420833365396554,-0.344444457689151,-0.4758640229702,-1.35459363460541,0.658207297325134
0,0.630555602153203,-0.270833333748257,-0.351388892793493,-0.406530827283859,-1.48256993293762,0.398284137248993
0,0.61944446708717,-0.261111114877407,-0.300000014672736,-0.553749322891235,-1.31549835205078,-0.500298619270325
0,1.00972225967599,-0.281944444502361,0.325000019947452,0.985020220279694,1.87413454055786,-2.14077734947205
0,0.994444448960196,-0.484722246154669,0.026388891079988,0.625220596790314,1.09528136253357,-1.94652211666107
0,1.0513889189259,-0.433333343721983,0.0513888902767219,-0.0650571510195732,1.19485247135162,-1.94804930686951
0,1.2250000153418,-0.420833365396554,-0.0194444453391775,-1.59435832500458,-0.00671951752156019,-1.8490891456604
0,1.29583340414004,-0.462500024646461,-0.170833336961321,-1.88696277141571,0.103541657328606,-1.56748020648956
0,1.16666675074056,-0.406944470875941,-0.0500000014324589,-1.36284041404724,-0.0968221426010132,-1.77303636074066
0,0.948611114060526,-0.229166674498349,-0.216666671860991,-0.802676916122437,0.282219737768173,-2.56319046020508
0,0.969444492309338,-0.026388891079988,-0.273611117514765,0.552833020687103,0.669202864170074,-0.0131336031481624
0,1.35138898222249,-0.404166687109433,-0.395833335809908,0.0299323964864016,0.704022169113159,-0.309403240680695
0,1.23611115040783,-0.213888888094483,-0.236111109602691,-0.00122173049021512,0.738230645656586,-0.970359444618225
0,0.979166735492117,-0.375000006184955,-0.168055565350778,-0.0638354197144508,1.0134254693985,-0.315511912107468
0,0.883333390043015,-0.295833339022973,-0.0500000014324589,0.0919352173805237,1.30908417701721,-0.357967019081116
0,0.94305554652751,-0.236111109602691,-0.195833342236038,0.405919969081879,0.803898692131042,-0.260228604078293
0,1.05277781080915,-0.206944452990142,-0.100000002864918,0.393397212028503,0.727845966815948,-0.28008171916008
0,1.09166668629255,-0.250000004123303,0.00277777787846293,0.118813291192055,0.59650993347168,-0.771217346191406
0,0.987499989543926,-0.169444445078067,-0.0347222241455659,0.0192422550171614,0.310624986886978,-0.842688620090485
0,0.930555616825939,-0.162500009973726,-0.00555555575692586,-0.178067222237587,0.155465200543404,-1.07695543766022
0,0.941666654644256,-0.166666673467524,0.03194444645704,-0.188146501779556,-0.375987559556961,-1.55587375164032
0,0.962500032893068,-0.144444451959316,0.00694444498106275,-0.152410879731178,-0.408057987689972,-1.3301590681076
0,0.93750007624221,-0.0777777813567098,-0.0138888899621255,-0.0693332031369209,-0.207388743758202,-1.351233959198
0,0.888888957576031,-0.0222222230277034,-0.0652777787193518,-0.0888808965682983,0.116675265133381,-1.57297801971436
0,1.02916674604155,-0.0416666683668809,-0.13750000469901,-0.0516181141138077,0.549778699874878,-1.34573614597321
0,1.19583338304118,-0.0791666671619817,-0.0208333341834404,-0.0992656052112579,0.932180345058441,-0.974635481834412
0,1.10972228077486,-0.03194444645704,0.00277777787846293,-0.0592539273202419,0.658207297325134,-1.02533733844757
0,1.06527783775844,0.0138888899621255,0.0152777788063885,-0.0946841165423393,0.546724379062653,-0.939510762691498
0,1.04444445950963,0.0666666706026059,0.0236111118719664,-0.0186313893646002,0.341168224811554,-0.717766642570496
0,1.08472222687628,0.0736111117849297,0.0194444453391775,-0.00519235478714108,0.191811680793762,-0.476780325174332
0,1.11250006454136,0.126388893944906,-0.00972222266958873,0.0629191175103188,0.0494800843298435,-0.096211276948452
0,1.03194452980806,0.0861111144222878,0.0361111129898289,0.0592539273202419,-0.102319926023483,0.0293215326964855
0,1.01944450285877,0.0888888921108138,0.033333335301303,0.0723875313997269,-0.229379892349243,0.0675006061792374
0,1.02777785415829,0.0833333367337618,0.0500000014324589,0.0956004112958908,-0.444709897041321,0.0772744566202164
0,1.01666671909226,0.0805555590452358,0.00972222266958873,0.165239050984383,0.0366519130766392,0.173791155219078
0,0.981944519258625,0.0666666706026059,-0.0250000007162294,0.0815505087375641,0.377820163965225,0.00580321997404099
0,1.07083340529146,0.0152777788063885,-0.150000007336368,0.18509216606617,1.19485247135162,-0.133168622851372
0,0.976388951725609,0.0819444448505077,0.120833338567854,0.0549778714776039,0.478918343782425,0.0326812900602817
0,1.00277780025972,0.0680555564078778,0.0944444474878658,0.199447497725487,0.707687377929688,-0.00855211354792118
0,1.01527782720901,0.0819444448505077,0.029166668768514,0.0592539273202419,0.67836582660675,0.0268780700862408
0,1.01527782720901,0.0777777813567098,0.0166666676506515,0.0568104684352875,0.883311152458191,-0.00305432616733015
0,0.940277860008718,0.10972222781375,0.163888889701015,0.131336033344269,0.511599659919739,0.0864374339580536
0,0.955555573476797,0.100000002864918,0.186111123365188,0.0470366254448891,-0.42271876335144,0.120645888149738
0,1.02500007039179,0.0888888921108138,-0.0347222241455659,0.0201585534960032,0.417220950126648,0.132557764649391
0,1.00000001649321,0.0930555616825939,0.115277783190802,0.0271835029125214,0.413555771112442,0.160657554864883
0,1.02361117850853,0.055555559848502,0.140277788465518,0.0323758572340012,-0.0784961804747581,0.104763388633728
0,1.00000001649321,0.0569444456537738,0.0875000002275597,0.01191187184304,-0.0928515195846558,0.128892570734024
0,0.993055557076942,0.0583333375370279,0.055555559848502,0.0247400421649218,0.10598511993885,0.170125976204872
0,1.01388893532575,0.0444444460554069,0.0666666706026059,0.0403171069920063,0.203418120741844,0.214719131588936
0,1.05555559457566,0.0444444460554069,-0.00972222266958873,0.0397062413394451,0.69730269908905,0.0922406539320946
0,0.987499989543926,0.0805555590452358,0.0250000007162294,0.0589484944939613,1.06626534461975,0.137750118970871
0,0.99583334084345,0.0722222259796579,0.055555559848502,0.0183259565383196,1.95996117591858,0.239764615893364
0,0.899999995394348,0.0402777795226179,0.170833336961321,0.0473420582711697,2.15177273750305,0.142026171088219
0,0.71111113688651,0.0361111129898289,0.238888893369199,0.121256753802299,1.93705368041992,0.62338799238205
0,1.04305556762637,0.0513888902767219,0.312500017310094,-0.0540615729987621,1.32069063186646,0.817032277584076
0,1.08194444310977,0.030555557612777,0.424999992422458,0.037568211555481,0.229074463248253,0.553138494491577
0,1.147222264375,-0.0166666676506515,0.288888903918631,0.178067222237587,-0.253203630447388,0.808785557746887
0,1.04444445950963,-0.029166668768514,0.222222239394008,0.101709060370922,-0.192422553896904,0.685390830039978
0,0.948611114060526,-0.03194444645704,0.266666682410424,-0.0262672062963247,-0.224492982029915,0.550084173679352
0,0.948611114060526,-0.03194444645704,0.266666682410424,-0.0479529201984406,-0.622777104377747,0.578489363193512
0,0.884722281926269,-0.00972222266958873,0.286111120152123,-0.011606439948082,-0.736398041248322,0.873537302017212
0,1.06250005399193,-0.0402777795226179,0.223611131277262,-0.0222965814173222,-0.555887401103973,0.731511116027832
0,0.905555562927365,-0.0916666697993398,0.244444460902216,0.00946841109544039,-0.517097413539886,0.889419794082642
0,0.905555562927365,-0.0916666697993398,0.244444460902216,0.0122173046693206,-0.447153359651566,0.594371855258942
0,0.955555573476797,-0.102777780553444,0.227777782615095,0.0589484944939613,-0.410806864500046,0.201585531234741
0,1.01805561097552,-0.104166672436698,0.190277786858986,0.0180205255746841,-0.26419922709465,-0.226325571537018
0,1.01805561097552,-0.104166672436698,0.190277786858986,-0.00733038317412138,-0.158824965357781,-0.495717138051987
5,0.791666671619817,-0.0597222233422998,0.216666671860991,-0.102930791676045,-0.19028452038765,-1.24402701854706
5,1.02222228662528,-0.105555564319952,0.200000005729836,-0.178067222237587,-0.196393176913261,-0.697608113288879
5,1.26666667459171,-0.0486111125881959,0.0805555590452358,-0.164933621883392,-0.188451930880547,-0.960280179977417
5,1.15416672379127,-0.0458333348996699,0.105555564319952,-0.0345138870179653,-0.102625362575054,-1.04183065891266
5,0.856944444261187,-0.00972222266958873,0.175000000455119,-0.0778853222727776,-0.255952537059784,-0.733038306236267
5,1.37083337134033,-0.0388888906783549,0.150000007336368,-0.0134390350431204,-0.173180297017098,-0.53481251001358
5,1.19722227492443,0.027777779924251,0.12777778582816,-0.10567969083786,-0.0613919571042061,-0.142637029290199
5,1.09861114570882,0.033333335301303,0.151388899219622,-0.0577267669141293,0.00244346098043024,-0.0568104684352875
5,1.0361111082101,0.0361111129898289,0.166666673467524,-0.00519235478714108,-0.00824668072164059,-0.0213802829384804
5,1.01527782720901,-0.00138888893923146,0.180555567988136,-0.0552833043038845,-0.266948103904724,-0.103847093880177
5,1.01666671909226,-0.00972222266958873,0.15555556271342,-0.0351247526705265,-0.316428184509277,-0.121867619454861
5,1.00555558402623,-0.00972222266958873,0.161111118090472,0.00549778714776039,-0.342695415019989,-0.0641408488154411
5,1.0361111082101,0.0208333341834404,0.134722233088466,0.0720821022987366,-0.23304508626461,0.00671951752156019
5,1.06111116210868,0.0125000003581147,0.104166672436698,0.0974330082535744,0.12156218290329,0.144469633698463
5,1.04861113515939,0.0152777788063885,0.115277783190802,0.22754730284214,0.430049121379852,0.229074463248253
5,1.10416671324184,0.0180555564949145,0.104166672436698,0.165239050984383,0.86773407459259,0.188451930880547
5,1.13055556177595,-0.0208333341834404,0.161111118090472,-0.0675006061792374,1.17591559886932,0.04764748737216
5,0.84583340644287,0.00555555575692586,0.355555568443255,-0.0167987942695618,-0.320093393325806,-0.0797179117798805
5,0.955555573476797,0.00277777787846293,0.243055569018962,0.0299323964864016,-0.377820163965225,0.0543670058250427
5,1.10138892947533,-0.0763888894734557,-0.180555567988136,0.260228604078293,1.72783231735229,-0.0277943685650826
5,0.926388941176177,-0.00277777787846293,0.358333352209763,-0.0613919571042061,0.586125195026398,-0.0824668109416962
5,0.863888903677457,0.0152777788063885,0.356944460326509,0.0433714315295219,0.0772744566202164,0.0293215326964855
5,0.93750007624221,0.00277777787846293,0.263888898643915,0.0378736443817616,0.0345138870179653,0.0268780700862408
5,0.983333411141879,0.00277777787846293,0.250000004123303,0.000305432622553781,0.000305432622553781,-0.00549778714776039
5,0.997222232726705,-0.00555555575692586,0.240277785252453,-0.00610865233466029,0.0131336031481624,-0.029626963660121
5,1.00000001649321,-0.0194444453391775,0.229166674498349,0.106595985591412,0.142637029290199,-0.00671951752156019
5,0.979166735492117,-0.00416666691266287,0.25555557165632,0.200974673032761,0.0519235469400883,-0.0226020142436027
5,1.02222228662528,-0.0138888899621255,0.230555566381603,0.29596421122551,0.253203630447388,0.0171042270958424
5,0.968055600426084,-0.00694444498106275,0.216666671860991,0.135306656360626,0.0733038261532784,0.00122173049021512
5,0.968055600426084,-0.00694444498106275,0.216666671860991,0.019547687843442,-0.0745255574584007,0.0152716310694814
5,0.979166735492117,0.00138888893923146,0.241666677135707,0.0491746515035629,0.0589484944939613,0.0684169083833694
5,0.979166735492117,0.00138888893923146,0.241666677135707,0.112399205565453,0.0192422550171614,0.0280998013913631
5,1.00972225967599,0.00972222266958873,0.236111109602691,0.0213802829384804,0.00305432616733015,0.0638354197144508
5,1.00277780025972,0.0375000018340919,0.241666677135707,-0.0339030213654041,-0.013744467869401,0.120340451598167
5,0.979166735492117,0.055555559848502,0.241666677135707,-0.132863193750381,-0.0739146918058395,0.167377084493637
5,0.972222276075846,0.0458333348996699,0.234722242031366,-0.098960168659687,-0.0241291765123606,0.25870144367218
5,1.0125000434425,0.00138888893923146,0.236111109602691,0.0522289797663689,-0.274889349937439,0.0436768643558025
5,1.06527783775844,-0.0875000002275597,0.229166674498349,0.0345138870179653,-0.0146607663482428,-0.161573857069016
5,1.01388893532575,-0.0250000007162294,0.2194444556275,-0.0140499006956816,-0.0439822971820831,-0.140804439783096
5,0.95000000594378,0.03194444645704,0.240277785252453,0.00885754637420177,-0.123700208961964,0.0345138870179653
5,0.970833384192592,0.030555557612777,0.198611113846581,0.0189368221908808,0.0763581544160843,0.121256753802299
5,1.02083339474202,0.0125000003581147,0.20972223675665,0.0629191175103188,0.170431405305862,0.119729585945606
5,1.04583335139288,-0.0652777787193518,0.231944458264858,0.0189368221908808,0.122783914208412,-0.108734011650086
5,0.969444492309338,-0.029166668768514,0.262500006760661,-0.00916297826915979,-0.133474051952362,-0.0965167060494423
5,0.983333411141879,-0.0111111115138517,0.24583335278547,0.0305432621389627,-0.0986547395586967,-0.0974330082535744
5,0.98888888142718,0.0125000003581147,0.243055569018962,0.0507018156349659,-0.0723875313997269,-0.0992656052112579
5,1.00138890837647,-0.0125000003581147,0.200000005729836,0.00152716308366507,0.0204639863222837,-0.117286130785942
5,1.00277780025972,0.00694444498106275,0.220833347510754,0.00855211354792118,0.037568211555481,-0.0326812900602817
5,0.984722303025134,0.0208333341834404,0.226388890731841,-0.0381790772080422,-0.00916297826915979,0.00305432616733015
5,0.993055557076942,0.00555555575692586,0.215277779977737,0.0351247526705265,0.0510072484612465,0.0207694191485643
5,1.00138890837647,0.0125000003581147,0.236111109602691,0.127976268529892,0.0311541277915239,0.0277943685650826
5,0.987499989543926,0.0125000003581147,0.24583335278547,0.10567969083786,-0.0222965814173222,0.0348193198442459
5,0.981944519258625,-0.00277777787846293,0.266666682410424,0.122478485107422,0.119118720293045,0.0305432621389627
5,0.96666670854283,-0.00555555575692586,0.25555557165632,0.0326812900602817,0.0354301854968071,-0.0720821022987366
5,0.998611124609959,0.0125000003581147,0.24583335278547,0.0213802829384804,0.0620028227567673,-0.123394779860973
5,1.00000001649321,0.0250000007162294,0.233333350148112,0.00824668072164059,0.017409659922123,-0.037568211555481
5,1.01111115155925,0.0208333341834404,0.216666671860991,0.0164933614432812,0.143247902393341,-0.0467311926186085
5,1.01111115155925,0.0125000003581147,0.259722222994153,0.0277943685650826,0.102930791676045,0.0241291765123606
5,0.990277773310434,0.0486111125881959,0.261111114877407,-0.12156218290329,-0.187535628676414,0.0363464802503586
5,0.970833384192592,0.0194444453391775,0.229166674498349,-0.0033597587607801,-0.0351247526705265,-0.0235183127224445
5,0.993055557076942,0.00555555575692586,0.236111109602691,0.0335975885391235,-0.0103847095742822,-0.0675006061792374
5,0.998611124609959,0.0208333341834404,0.234722242031366,-0.0387899428606033,0.0164933614432812,-0.0222965814173222
5,0.991666665193688,0.0194444453391775,0.197222234119292,-0.141720741987228,-0.01588249579072,-0.0656680166721344
5,0.987499989543926,0.027777779924251,0.238888893369199,-0.0381790772080422,-0.0455094613134861,-0.0314595587551594
5,0.983333411141879,0.026388891079988,0.240277785252453,0.00610865233466029,-0.0177150927484035,-0.0226020142436027
5,0.993055557076942,0.00833333382532574,0.229166674498349,-0.0507018156349659,-0.0662788823246956,-0.0934623852372169
5,1.01527782720901,0.0625000010308258,0.218055563744246,0.0525344125926495,0.0445931628346443,0.0100792767480016
5,0.986111194908388,0.0402777795226179,0.222222239394008,-0.0620028227567673,-0.0623082555830479,0.0342084541916847
5,1.00138890837647,0.0111111115138517,0.220833347510754,-0.0668897479772568,-0.019547687843442,0.037568211555481
5,0.986111194908388,-0.0138888899621255,0.215277779977737,-0.0824668109416962,-0.0907134860754013,-0.0229074470698834
5,0.993055557076942,0.00555555575692586,0.211111128639904,-0.132557764649391,-0.0901026204228401,-0.0394008085131645
5,0.98888888142718,0.0583333375370279,0.248611112240049,-0.0931569486856461,-0.102319926023483,0.0103847095742822
5,0.993055557076942,0.0666666706026059,0.251388896006557,-0.10048733651638,-0.141415297985077,0.0262672062963247
5,0.99583334084345,0.0222222230277034,0.233333350148112,-0.159435823559761,-0.170431405305862,0.00152716308366507
5,1.01388893532575,-0.00555555575692586,0.226388890731841,-0.103236228227615,-0.147218525409698,-0.0470366254448891
5,1.07222229717471,-0.00277777787846293,0.205555561106887,0.233655959367752,0.20616702735424,0.134390354156494
5,1.03194452980806,-0.00694444498106275,0.212499996211229,0.0742201283574104,0.410806864500046,-0.108123145997524
5,0.96666670854283,0.0166666676506515,0.243055569018962,0.0308486949652433,0.257785141468048,-0.0354301854968071
5,0.934722292475701,0.0208333341834404,0.259722222994153,-0.0305432621389627,0.019547687843442,-0.0244346093386412
5,0.976388951725609,0.0194444453391775,0.251388896006557,-0.0253509078174829,-0.0131336031481624,-0.0244346093386412
5,0.99583334084345,0.0125000003581147,0.250000004123303,-0.0180205255746841,0.00488692196086049,-0.0332921557128429
5,1.00000001649321,0.0152777788063885,0.248611112240049,0.0033597587607801,0.0308486949652433,-0.0256563406437635
5,1.00000001649321,0.0111111115138517,0.250000004123303,0.0128281703218818,0.0348193198442459,-0.019547687843442
5,1.00000001649321,0.0125000003581147,0.252777787889811,0.000305432622553781,0.0335975885391235,-0.0198531206697226
5,0.993055557076942,0.0138888899621255,0.265277790527169,-0.00885754637420177,0.0103847095742822,-0.0232128798961639
5,0.991666665193688,0.0222222230277034,0.25555557165632,-0.0226020142436027,0.0161879286170006,-0.0284052342176437
5,0.993055557076942,0.0222222230277034,0.248611112240049,-0.0198531206697226,0.017409659922123,-0.0201585534960032
5,0.998611124609959,0.027777779924251,0.248611112240049,-0.0186313893646002,0.0186313893646002,-0.0128281703218818
5,1.00000001649321,0.029166668768514,0.243055569018962,-0.0259617734700441,0.0308486949652433,-0.0143553335219622
5,0.99583334084345,0.027777779924251,0.244444460902216,-0.0442877300083637,0.0363464802503586,-0.0180205255746841
5,0.99583334084345,0.027777779924251,0.244444460902216,-0.0516181141138077,0.0210748501121998,-0.0149661982432008
5,0.987499989543926,0.0250000007162294,0.254166679773066,-0.0623082555830479,0.0204639863222837,-0.00305432616733015
5,0.990277773310434,0.0250000007162294,0.244444460902216,-0.0552833043038845,0.0128281703218818,-0.015577063895762
5,0.990277773310434,0.0250000007162294,0.244444460902216,-0.0507018156349659,0.00549778714776039,-0.00122173049021512
5,0.993055557076942,0.0250000007162294,0.243055569018962,-0.0583376325666905,0.013744467869401,0.0021380283869803
5,0.990277773310434,0.0250000007162294,0.251388896006557,-0.0549778714776039,0.00122173049021512,-0.00427605677396059
5,0.993055557076942,0.0194444453391775,0.25555557165632,-0.0565050356090069,-0.00946841109544039,-0.0146607663482428
5,0.994444448960196,0.0138888899621255,0.250000004123303,-0.0577267669141293,-0.00427605677396059,-0.021685715764761
5,0.998611124609959,0.00694444498106275,0.248611112240049,-0.0329867228865623,-0.0122173046693206,-0.0287106670439243
5,0.997222232726705,0.00694444498106275,0.25555557165632,-0.00916297826915979,-0.0348193198442459,-0.0302378293126821
5,0.99583334084345,0.00555555575692586,0.251388896006557,0.0222965814173222,-0.0332921557128429,-0.0308486949652433
5,1.00000001649321,0.0125000003581147,0.247222220356795,0.0320704244077206,-0.0189368221908808,-0.0140499006956816
5,0.993055557076942,0.0166666676506515,0.241666677135707,0.0433714315295219,-0.0198531206697226,0.00946841109544039
5,0.990277773310434,0.0222222230277034,0.243055569018962,0.0534507073462009,-0.01191187184304,0.00671951752156019
5,0.993055557076942,0.027777779924251,0.243055569018962,0.0531452745199203,0.00122173049021512,0.000916297896765172
5,0.993055557076942,0.0416666683668809,0.247222220356795,0.00916297826915979,0.0189368221908808,0.0033597587607801
5,0.98888888142718,0.0416666683668809,0.250000004123303,-0.0167987942695618,-0.000305432622553781,-0.000305432622553781
5,0.993055557076942,0.0416666683668809,0.244444460902216,-0.02382374368608,-0.00885754637420177,-0.00824668072164059
5,0.99583334084345,0.026388891079988,0.248611112240049,-0.0167987942695618,0.0222965814173222,-0.0186313893646002
5,0.997222232726705,0.0250000007162294,0.251388896006557,-0.00855211354792118,0.0299323964864016,-0.0326812900602817
5,0.997222232726705,0.0222222230277034,0.250000004123303,-0.00916297826915979,0.0192422550171614,-0.0394008085131645
5,1.00000001649321,0.0430555572111439,0.247222220356795,-0.0485637858510017,0.0219911485910416,-0.0293215326964855
5,0.99583334084345,0.0458333348996699,0.252777787889811,-0.0641408488154411,0.0131336031481624,-0.0152716310694814
5,0.986111194908388,0.0500000014324589,0.247222220356795,-0.0754418596625328,0.00794124789535999,-0.00641408516094089
5,0.98888888142718,0.0430555572111439,0.241666677135707,-0.0888808965682983,0.0161879286170006,-0.0152716310694814
5,0.993055557076942,0.03194444645704,0.240277785252453,-0.100792765617371,0.0134390350431204,-0.0262672062963247
5,0.997222232726705,0.03194444645704,0.24583335278547,-0.103847093880177,0.000916297896765172,-0.0381790772080422
5,0.99583334084345,0.0361111129898289,0.24583335278547,-0.0995710343122482,-0.000916297896765172,-0.0171042270958424
5,0.98888888142718,0.0388888906783549,0.254166679773066,-0.0931569486856461,-0.00610865233466029,-0.0103847095742822
5,0.993055557076942,0.0388888906783549,0.250000004123303,-0.0995710343122482,-0.0210748501121998,-0.00519235478714108
5,0.993055557076942,0.0388888906783549,0.250000004123303,-0.102014496922493,-0.0210748501121998,-0.0021380283869803
5,0.997222232726705,0.030555557612777,0.238888893369199,-0.123089343309402,-0.0134390350431204,-0.0167987942695618
5,0.994444448960196,0.030555557612777,0.252777787889811,-0.140499010682106,-0.0222965814173222,-0.0253509078174829
5,0.993055557076942,0.03194444645704,0.244444460902216,-0.130114302039146,-0.0284052342176437,-0.0198531206697226
5,0.993055557076942,0.0194444453391775,0.238888893369199,-0.102930791676045,-0.0152716310694814,-0.0213802829384804
5,0.997222232726705,0.0180555564949145,0.238888893369199,-0.101098194718361,-0.00946841109544039,-0.0290160998702049
5,0.993055557076942,0.029166668768514,0.238888893369199,-0.107206851243973,-0.0229074470698834,-0.0430659987032413
5,0.991666665193688,0.0388888906783549,0.261111114877407,-0.129197999835014,-0.0287106670439243,-0.0213802829384804
5,0.990277773310434,0.0430555572111439,0.238888893369199,-0.144164204597473,-0.0384845100343227,-0.0103847095742822
5,0.991666665193688,0.0375000018340919,0.237500001485945,-0.151189148426056,-0.0397062413394451,-0.0125227374956012
5,0.991666665193688,0.0375000018340919,0.237500001485945,-0.148440256714821,-0.0403171069920063,-0.01191187184304
5,0.991666665193688,0.0375000018340919,0.237500001485945,-0.137750118970871,-0.0436768643558025,-0.0183259565383196
5,1.00138890837647,0.0208333341834404,0.233333350148112,-0.129503428936005,-0.0577267669141293,-0.0140499006956816
5,1.00555558402623,0.0194444453391775,0.237500001485945,-0.15332718193531,-0.0482583530247212,-0.00427605677396059
5,0.994444448960196,0.029166668768514,0.250000004123303,-0.161879286170006,-0.0372627787292004,-0.0109955742955208
5,0.994444448960196,0.027777779924251,0.227777782615095,-0.15332718193531,-0.0299323964864016,-0.00366519158706069
5,0.997222232726705,0.0361111129898289,0.233333350148112,-0.163101017475128,-0.02382374368608,0.00885754637420177
5,1.00277780025972,0.033333335301303,0.234722242031366,-0.191200822591782,-0.00763581553474069,0.00122173049021512
5,1.00000001649321,0.03194444645704,0.226388890731841,-0.214108273386955,0.00366519158706069,-0.0149661982432008
5,0.993055557076942,0.030555557612777,0.230555566381603,-0.226020142436027,0.00580321997404099,-0.0186313893646002
5,1.00138890837647,0.0125000003581147,0.234722242031366,-0.214413702487946,-0.0100792767480016,0.0113010071218014
5,1.00000001649321,0.00972222266958873,0.237500001485945,-0.199752941727638,-0.00397062394768,0.0103847095742822
5,0.997222232726705,0.00555555575692586,0.227777782615095,-0.188146501779556,-0.000305432622553781,-0.00397062394768
5,0.993055557076942,0.00555555575692586,0.236111109602691,-0.192117124795914,0.0021380283869803,-0.0210748501121998
5,0.993055557076942,0.00555555575692586,0.24583335278547,-0.166766211390495,0.0021380283869803,-0.0284052342176437
5,0.99583334084345,0.00138888893923146,0.230555566381603,-0.139888137578964,0.00702495034784079,-0.0204639863222837
5,1.00416669214298,0.00138888893923146,0.243055569018962,-0.140193566679955,0.0183259565383196,-0.0186313893646002
5,1.00555558402623,0.00277777787846293,0.241666677135707,-0.131641462445259,0.021685715764761,-0.000916297896765172
5,1.00000001649321,0.00555555575692586,0.247222220356795,-0.119424156844616,0.00977384392172098,0.00977384392172098
5,0.99583334084345,0.00555555575692586,0.243055569018962,-0.118202425539494,0.00580321997404099,0.011606439948082
5,0.990277773310434,0.00555555575692586,0.240277785252453,-0.131030589342117,0.0134390350431204,-0.00366519158706069
5,0.993055557076942,0.00555555575692586,0.24583335278547,-0.148440256714821,0.0167987942695618,-0.00549778714776039
5,1.00000001649321,-0.00555555575692586,0.250000004123303,-0.149356558918953,0.0271835029125214,-0.01191187184304
5,0.997222232726705,-0.0166666676506515,0.251388896006557,-0.135917514562607,0.0287106670439243,-0.00519235478714108
5,0.997222232726705,-0.0166666676506515,0.251388896006557,-0.108734011650086,0.0207694191485643,-0.00916297826915979
5,0.993055557076942,-0.026388891079988,0.254166679773066,-0.0751364231109619,0.0415388382971287,-0.0271835029125214
5,1.00000001649321,-0.027777779924251,0.258333331110899,-0.0543670058250427,0.0503963828086853,-0.0100792767480016
5,1.00833336779274,-0.026388891079988,0.24583335278547,-0.0372627787292004,0.0513126812875271,0.00885754637420177
5,1.00833336779274,-0.026388891079988,0.24583335278547,-0.0329867228865623,0.0415388382971287,0.0189368221908808
5,1.00138890837647,-0.0347222241455659,0.244444460902216,-0.00763581553474069,0.0497855171561241,0.0284052342176437
5,1.00277780025972,-0.0347222241455659,0.248611112240049,0.00794124789535999,0.0626136884093285,0.0363464802503586
5,1.00277780025972,-0.0347222241455659,0.248611112240049,0.0219911485910416,0.0513126812875271,0.0500909499824047
5,1.00416669214298,-0.0222222230277034,0.244444460902216,0.0394008085131645,0.0561996027827263,0.0693332031369209
5,1.00416669214298,-0.0222222230277034,0.244444460902216,0.0507018156349659,0.0552833043038845,0.10048733651638
5,0.994444448960196,-0.0222222230277034,0.240277785252453,0.0729983970522881,0.0641408488154411,0.128892570734024
5,1.00138890837647,-0.03194444645704,0.25555557165632,0.0754418596625328,0.0659734457731247,0.125838235020638
5,1.01111115155925,-0.0388888906783549,0.25555557165632,0.0861319974064827,0.0705549344420433,0.118202425539494
5,1.00555558402623,-0.0416666683668809,0.247222220356795,0.108428582549095,0.0754418596625328,0.112093769013882
5,0.990277773310434,-0.0444444460554069,0.259722222994153,0.117591559886932,0.0629191175103188,0.125227376818657
5,0.98888888142718,-0.0375000018340919,0.254166679773066,0.113926365971565,0.0629191175103188,0.164933621883392
5,0.987499989543926,-0.0583333375370279,0.254166679773066,0.140804439783096,0.0711658000946045,0.179288953542709
5,0.998611124609959,-0.0777777813567098,0.266666682410424,0.207388743758202,0.070249505341053,0.195171445608139
5,1.00694447590948,-0.0847222225390337,0.262500006760661,0.276416510343552,0.0891863256692886,0.203723564743996
5,1.01111115155925,-0.0944444474878658,0.262500006760661,0.328645497560501,0.11087204515934,0.218078896403313
5,1.00972225967599,-0.0875000002275597,0.256944463539574,0.376293003559113,0.112093769013882,0.242513507604599
5,1.01388893532575,-0.0777777813567098,0.256944463539574,0.399811297655106,0.143247902393341,0.273973047733307
5,1.01944450285877,-0.0583333375370279,0.254166679773066,0.400422155857086,0.175623759627342,0.304210901260376
5,1.0125000434425,-0.0569444456537738,0.263888898643915,0.361937671899795,0.183565005660057,0.325285732746124
5,1.00694447590948,-0.0680555564078778,0.265277790527169,0.359188765287399,0.199142068624496,0.3378084897995
5,0.990277773310434,-0.0777777813567098,0.272222225631511,0.361632227897644,0.220827788114548,0.351552963256836
5,0.986111194908388,-0.0777777813567098,0.277777793164528,0.388510286808014,0.22754730284214,0.370184332132339
5,0.983333411141879,-0.0763888894734557,0.290277795801886,0.453567445278168,0.200974673032761,0.360715925693512
5,0.975000059842355,-0.0708333340964038,0.295833339022973,0.446847915649414,0.167987942695618,0.344833433628082
5,0.976388951725609,-0.0430555572111439,0.288888903918631,0.467617332935333,0.157908663153648,0.339641064405441
5,0.968055600426084,-0.0180555564949145,0.305555557893823,0.488386750221252,0.168293371796608,0.344527989625931
5,0.947222222177272,-0.00416666691266287,0.313888909193348,0.497244298458099,0.142026171088219,0.325591176748276
5,0.930555616825939,0.00416666691266287,0.315277801076602,0.459065228700638,0.10567969083786,0.285884946584701
5,0.936111184358955,0.00277777787846293,0.33750002258481,0.400422155857086,0.0745255574584007,0.24862214922905
5,0.940277860008718,0.00416666691266287,0.341666673922643,0.336281329393387,0.0357356183230877,0.219606056809425
5,0.947222222177272,0.00555555575692586,0.340277782039389,0.248316720128059,0.0122173046693206,0.197614908218384
5,0.93750007624221,-0.00277777787846293,0.336111130701556,0.206472456455231,0.0213802829384804,0.182037845253944
5,0.938888968125464,-0.0166666676506515,0.356944460326509,0.177456349134445,-0.00122173049021512,0.158214092254639
5,0.955555573476797,-0.027777779924251,0.368055571080613,0.189368233084679,-0.0406225398182869,0.12705996632576
5,0.976388951725609,-0.0388888906783549,0.369444462963867,0.194560587406159,-0.0485637858510017,0.115148097276688
5,0.976388951725609,-0.0388888906783549,0.373611114301701,0.200363799929619,-0.0280998013913631,0.108123145997524
5,0.95000000594378,-0.029166668768514,0.372222246730376,0.193033412098885,-0.00763581553474069,0.109344877302647
5,0.919444481759906,-0.0375000018340919,0.375000006184955,0.160657554864883,-0.0659734457731247,0.0577267669141293
5,0.915277806110144,-0.0486111125881959,0.381944465601225,0.156076073646545,-0.13744467496872,0.00824668072164059
5,0.927777833059431,-0.055555559848502,0.370833354847121,0.162184715270996,-0.19058994948864,-0.00885754637420177
5,0.956944465360051,-0.0611111152255539,0.368055571080613,0.228463605046272,-0.20616702735424,0.00152716308366507
5,0.977777843608863,-0.0694444482911319,0.361111135976272,0.265115529298782,-0.152410879731178,0.0125227374956012
5,0.952777789710289,-0.0750000036681839,0.348611133338914,0.281608879566193,-0.105374254286289,0.00885754637420177
5,0.945833330294018,-0.0888888921108138,0.351388892793493,0.328950941562653,-0.124616511166096,-0.00366519158706069
5,0.93750007624221,-0.0791666671619817,0.347222241455659,0.385150551795959,-0.162490159273148,-0.0189368221908808
5,0.93750007624221,-0.0638888929140799,0.341666673922643,0.406836241483688,-0.178983509540558,-0.0418442711234093
5,0.926388941176177,-0.0388888906783549,0.33750002258481,0.392175495624542,-0.185703039169311,-0.0534507073462009
5,0.923611157409668,-0.0152777788063885,0.327777779402031,0.320398807525635,-0.233655959367752,-0.0806342139840126
5,0.941666654644256,-0.0152777788063885,0.325000019947452,0.237321153283119,-0.22174409031868,-0.106901414692402
5,0.96666670854283,-0.00416666691266287,0.319444452414435,0.166460782289505,-0.221133217215538,-0.125227376818657
5,1.00000001649321,-0.0152777788063885,0.309722233543585,0.138360977172852,-0.215024560689926,-0.153938040137291
5,1.00555558402623,-0.0125000003581147,0.300000014672736,0.108428582549095,-0.17440202832222,-0.189062789082527
5,1.00555558402623,-0.0125000003581147,0.300000014672736,0.0794124826788902,-0.146913096308708,-0.196393176913261
5,1.00694447590948,-0.00833333382532574,0.288888903918631,0.00641408516094089,-0.0965167060494423,-0.191200822591782
5,1.00555558402623,-0.0152777788063885,0.298611122789481,-0.0326812900602817,-0.0891863256692886,-0.208915919065475
5,0.986111194908388,-0.0472222237439329,0.300000014672736,-0.076052725315094,-0.096211276948452,-0.218995183706284
5,0.987499989543926,-0.0541666679652478,0.29166668768514,-0.0870482996106148,-0.0897971913218498,-0.240986332297325
5,0.977777843608863,-0.0611111152255539,0.275000009398019,-0.103847093880177,-0.110566608607769,-0.255036234855652
5,0.981944519258625,-0.0250000007162294,0.279166685047782,-0.110261179506779,-0.135001212358475,-0.244040668010712
5,1.00000001649321,0.0125000003581147,0.269444466176932,-0.130725160241127,-0.0934623852372169,-0.170736834406853
5,1.01388893532575,0.0194444453391775,0.275000009398019,-0.171042263507843,-0.0638354197144508,-0.096211276948452
5,1.00138890837647,-0.00277777787846293,0.275000009398019,-0.19058994948864,-0.0739146918058395,-0.0943786799907684
5,1.00138890837647,-0.00277777787846293,0.275000009398019,-0.162490159273148,-0.112093769013882,-0.106290549039841
5,1.00138890837647,-0.055555559848502,0.261111114877407,-0.120951317250729,-0.103847093880177,-0.113926365971565
5,0.997222232726705,-0.0722222259796579,0.251388896006557,-0.0620028227567673,-0.0583376325666905,-0.106595985591412
5,0.94305554652751,-0.0708333340964038,0.251388896006557,-0.0171042270958424,-0.0525344125926495,-0.111788339912891
5,0.929166724942685,-0.0513888902767219,0.263888898643915,0.0164933614432812,-0.154243469238281,-0.110566608607769
5,0.969444492309338,-0.0361111129898289,0.244444460902216,0.015577063895762,-0.231823354959488,-0.107817716896534
5,1.00416669214298,-0.029166668768514,0.220833347510754,-0.000916297896765172,-0.239153742790222,-0.0907134860754013
5,1.0333333244436,-0.0250000007162294,0.215277779977737,-0.0171042270958424,-0.201280102133751,-0.0726929605007172
5,1.02222228662528,-0.0222222230277034,0.212499996211229,-0.0171042270958424,-0.182648703455925,-0.0623082555830479
5,0.990277773310434,-0.0125000003581147,0.213888888094483,-0.0201585534960032,-0.219300627708435,-0.0198531206697226
5,0.990277773310434,-0.0125000003581147,0.213888888094483,0.00610865233466029,-0.268475264310837,0.00671951752156019
5,1.02222228662528,-0.00972222266958873,0.202777789496344,-0.00946841109544039,-0.276111096143722,0.0552833043038845
5,1.02222228662528,-0.00972222266958873,0.202777789496344,-0.0271835029125214,-0.238542884588242,0.0601702257990837
5,1.0305556379248,-0.0111111115138517,0.176388892338373,-0.0433714315295219,-0.209832206368446,0.0372627787292004
5,1.01666671909226,-0.0138888899621255,0.172222228844576,-0.0894917547702789,-0.239459171891212,0.0143553335219622
5,1.00000001649321,-0.0111111115138517,0.172222228844576,-0.131946891546249,-0.247094988822937,-0.00152716308366507
5,1.00833336779274,-0.00277777787846293,0.163888889701015,-0.150272846221924,-0.255647093057633,0.0109955742955208
5,1.01527782720901,0.00277777787846293,0.162500009973726,-0.16401731967926,-0.296269655227661,0.0167987942695618
5,1.0513889189259,0.00972222266958873,0.150000007336368,-0.177456349134445,-0.229379892349243,0.0128281703218818
5,1.02916674604155,0.030555557612777,0.13750000469901,-0.232128798961639,-0.229685336351395,0.0461203269660473
5,1.00138890837647,0.0513888902767219,0.140277788465518,-0.308486938476563,-0.273667633533478,0.0968221426010132
5,0.994444448960196,0.052777782159976,0.134722233088466,-0.38026362657547,-0.276721954345703,0.139277279376984
5,0.986111194908388,0.0500000014324589,0.133333341205212,-0.432492583990097,-0.300851136445999,0.177150920033455
5,0.994444448960196,0.0430555572111439,0.138888896582264,-0.434936046600342,-0.332616120576859,0.138666406273842
5,1.00972225967599,0.0180555564949145,0.141666668192807,-0.41263946890831,-0.375071257352829,0.102625362575054
5,1.01666671909226,0.0180555564949145,0.13750000469901,-0.421191573143005,-0.425467640161514,0.0394008085131645
5,0.986111194908388,0.055555559848502,0.10972222781375,-0.632550954818726,-0.393091797828674,-0.0607810914516449
5,1.00277780025972,0.0597222233422998,0.120833338567854,-0.728762209415436,-0.614835858345032,-0.235488548874855
5,1.03194452980806,0.00694444498106275,0.0666666706026059,-0.493579119443893,-0.4758640229702,-0.0729983970522881
5,1.09305557817581,-0.00555555575692586,0.0236111118719664,-0.347582310438156,-0.273667633533478,-0.0100792767480016
5,1.09444447005906,-0.029166668768514,0.029166668768514,-0.137139245867729,-0.076052725315094,0.0473420582711697
5,1.11111117265811,-0.0750000036681839,0.0361111129898289,0.0366519130766392,0.0027488935738802,0.0390953756868839
5,1.06805562152495,-0.0833333367337618,0.0458333348996699,0.18509216606617,0.115453533828259,-0.0314595587551594
5,0.998611124609959,-0.030555557612777,0.0972222251763917,0.272751331329346,0.10598511993885,-0.0424551330506802
5,1.01805561097552,0.026388891079988,0.102777780553444,0.283746898174286,0.10598511993885,-0.0253509078174829
5,1.00000001649321,0.0763888894734557,0.101388894748172,0.175623759627342,0.0439822971820831,-0.0354301854968071
5,1.01944450285877,0.101388894748172,0.0680555564078778,0.0427605658769607,0.00549778714776039,-0.029626963660121
5,1.04444445950963,0.0763888894734557,0.0500000014324589,-0.0736092627048492,0.0595593601465225,-0.0445931628346443
5,1.06527783775844,0.033333335301303,0.0541666679652478,-0.115758962929249,0.118813291192055,-0.0965167060494423
5,1.05555559457566,0.00277777787846293,0.055555559848502,-0.0968221426010132,0.146913096308708,-0.167987942695618
5,1.06666672964169,-0.0138888899621255,0.0666666706026059,-0.0516181141138077,0.146302223205566,-0.215330004692078
5,1.06527783775844,-0.0166666676506515,0.0750000036681839,0.0235183127224445,0.2379320114851,-0.24862214922905
5,1.01666671909226,-0.0180555564949145,0.0916666697993398,0.0668897479772568,0.247705861926079,-0.266337245702743
5,1.00000001649321,-0.0194444453391775,0.111111119697004,0.102625362575054,0.215940862894058,-0.257785141468048
5,1.00694447590948,-0.0222222230277034,0.113888891307548,0.153632611036301,0.182037845253944,-0.236099421977997
5,1.02083339474202,-0.026388891079988,0.104166672436698,0.201280102133751,0.187535628676414,-0.20616702735424
5,1.02222228662528,-0.029166668768514,0.101388894748172,0.266031801700592,0.193949714303017,-0.200363799929619
5,1.01805561097552,-0.0250000007162294,0.115277783190802,0.32742378115654,0.209832206368446,-0.173180297017098
5,1.01805561097552,-0.0236111118719664,0.125000002061652,0.367740869522095,0.22785273194313,-0.197920337319374
5,1.01527782720901,-0.0194444453391775,0.130555557438704,0.345749735832214,0.24312436580658,-0.255036234855652
5,1.0125000434425,-0.00694444498106275,0.13750000469901,0.313984721899033,0.236710280179977,-0.28008171916008
5,1.00000001649321,0.0583333375370279,0.179166676104882,0.281303435564041,0.229074463248253,-0.233655959367752
5,0.998611124609959,0.0708333340964038,0.187500003092477,0.261755764484406,0.22785273194313,-0.0965167060494423
5,1.00277780025972,0.0847222225390337,0.186111123365188,0.253509074449539,0.188451930880547,-0.0103847095742822
5,1.01527782720901,0.0583333375370279,0.179166676104882,0.218995183706284,0.151189148426056,0.0229074470698834
5,1.01944450285877,0.0458333348996699,0.170833336961321,0.144469633698463,0.170736834406853,-0.00305432616733015
5,1.01944450285877,0.0166666676506515,0.170833336961321,0.0943786799907684,0.201585531234741,-0.0510072484612465
5,0.99583334084345,0.00833333382532574,0.187500003092477,0.0723875313997269,0.226020142436027,-0.0739146918058395
5,0.968055600426084,0.00555555575692586,0.205555561106887,0.0894917547702789,0.175929188728332,-0.0833831056952477
5,0.979166735492117,0.00277777787846293,0.20972223675665,0.0910189226269722,0.0803287774324417,-0.0739146918058395
5,0.979166735492117,0.00277777787846293,0.20972223675665,0.10598511993885,0.00366519158706069,-0.0412334054708481
5,1.03750000009336,-0.0152777788063885,0.18333333959868,0.168598800897598,0.0222965814173222,-0.0363464802503586
5,1.0333333244436,-0.00694444498106275,0.176388892338373,0.223882108926773,0.0977384373545647,-0.00885754637420177
5,1.0333333244436,-0.00694444498106275,0.176388892338373,0.247705861926079,0.110261179506779,0.00671951752156019
5,1.0305556379248,0.0125000003581147,0.20972223675665,0.287106662988663,0.0384845100343227,0.0604756586253643
5,1.06527783775844,0.0138888899621255,0.20138889761309,0.350636661052704,0.0665843114256859,0.0901026204228401
5,1.06527783775844,0.0138888899621255,0.20138889761309,0.387899428606033,0.171653136610985,0.11636982858181
5,0.969444492309338,0.0111111115138517,0.20972223675665,0.365908294916153,0.151800006628036,0.182037845253944
5,0.94305554652751,0.0222222230277034,0.2194444556275,0.421802461147308,0.0937678143382072,0.19028452038765
5,0.94305554652751,0.0222222230277034,0.2194444556275,0.339335650205612,0.0250454749912024,0.127365410327911
5,0.958333357243305,0.0680555564078778,0.198611113846581,0.193644285202026,0.00305432616733015,0.10598511993885
5,0.955555573476797,0.0958333393711199,0.190277786858986,0.0839939713478088,-0.0381790772080422,0.0916297882795334
5,0.973611167959101,0.0819444448505077,0.190277786858986,0.0381790772080422,-0.0696386396884918,0.0986547395586967
5,1.02500007039179,0.0472222237439329,0.187500003092477,0.0720821022987366,0.00610865233466029,0.0830776765942574
5,1.06111116210868,0.0361111129898289,0.198611113846581,0.124005645513535,0.101098194718361,0.0971275717020035
5,1.01944450285877,0.0347222241455659,0.2194444556275,0.141109868884087,0.0699440687894821,0.11087204515934
5,0.983333411141879,0.03194444645704,0.224999998848587,0.139582708477974,0.0247400421649218,0.113315500319004
5,0.970833384192592,0.0375000018340919,0.212499996211229,0.131641462445259,-0.0134390350431204,0.0934623852372169
5,0.973611167959101,0.0347222241455659,0.206944452990142,0.0803287774324417,-0.0204639863222837,0.0723875313997269
5,0.99583334084345,0.03194444645704,0.200000005729836,0.0262672062963247,-0.0192422550171614,0.0473420582711697
5,1.00694447590948,0.0222222230277034,0.20138889761309,0.011606439948082,0.0045814891345799,0.0387899428606033
5,1.00972225967599,0.0125000003581147,0.20138889761309,0.0461203269660473,0.0345138870179653,0.0473420582711697
5,1.01527782720901,0.0125000003581147,0.206944452990142,0.0558941699564457,0.0485637858510017,0.0555887371301651
5,1.01527782720901,0.0125000003581147,0.205555561106887,0.0332921557128429,0.0204639863222837,0.081855945289135
5,1.01805561097552,0.0138888899621255,0.213888888094483,-0.0134390350431204,0.0226020142436027,0.0742201283574104
5,1.00000001649321,0.0152777788063885,0.206944452990142,-0.0510072484612465,0.0219911485910416,0.0620028227567673
5,0.984722303025134,0.0111111115138517,0.206944452990142,-0.0342084541916847,-0.0287106670439243,0.0901026204228401
5,1.00416669214298,0.0111111115138517,0.208333344873396,0.00763581553474069,-0.0424551330506802,0.105374254286289
5,1.0305556379248,-0.00972222266958873,0.198611113846581,0.0287106670439243,-0.00946841109544039,0.151189148426056
5,1.04166667574312,-0.00277777787846293,0.19166667874224,0.0733038261532784,0.0207694191485643,0.239459171891212
5,0.968055600426084,0.0152777788063885,0.190277786858986,0.190895393490791,-0.0632245540618896,0.193949714303017
5,0.968055600426084,0.0152777788063885,0.190277786858986,0.0974330082535744,-0.0335975885391235,0.120035022497177
5,0.951388897827035,0.0847222225390337,0.194444450352783,-0.0965167060494423,-0.0607810914516449,0.133168622851372
5,0.96666670854283,0.0722222259796579,0.212499996211229,-0.109344877302647,-0.104763388633728,0.172874867916107
5,0.99583334084345,0.0250000007162294,0.223611131277262,0.00702495034784079,-0.0839939713478088,0.167682513594627
5,1.0125000434425,-0.0138888899621255,0.205555561106887,0.0705549344420433,-0.019547687843442,0.11636982858181
5,1.02222228662528,-0.0138888899621255,0.213888888094483,0.0482583530247212,0.0302378293126821,0.058643065392971
5,0.976388951725609,0.0444444460554069,0.233333350148112,-0.0522289797663689,-0.0448985956609249,0.0742201283574104
5,0.95000000594378,0.055555559848502,0.226388890731841,-0.131336033344269,-0.150272846221924,0.131946891546249
5,0.98888888142718,0.00694444498106275,0.212499996211229,-0.102930791676045,-0.193033412098885,0.165849909186363
5,1.04583335139288,-0.0361111129898289,0.200000005729836,0.0021380283869803,-0.141720741987228,0.147523954510689
5,1.06250005399193,-0.027777779924251,0.187500003092477,0.0448985956609249,0.04764748737216,0.0742201283574104
5,1.03194452980806,-0.00277777787846293,0.20138889761309,0.0360410511493683,0.0558941699564457,0.0699440687894821
5,1.00277780025972,0.0194444453391775,0.212499996211229,0.0656680166721344,0.00427605677396059,0.0891863256692886
5,0.975000059842355,0.027777779924251,0.213888888094483,0.0763581544160843,-0.0626136884093285,0.0907134860754013
5,0.99583334084345,0.0236111118719664,0.20972223675665,0.0555887371301651,-0.0934623852372169,0.0812450796365738
5,1.01111115155925,0.0250000007162294,0.195833342236038,0.0140499006956816,-0.00580321997404099,0.0635299831628799
5,1.0125000434425,0.0194444453391775,0.194444450352783,-0.0033597587607801,0.0287106670439243,0.0497855171561241
5,1.00277780025972,0.00833333382532574,0.193055558469529,-0.0247400421649218,0.0219911485910416,0.0323758572340012
5,0.997222232726705,0.00833333382532574,0.193055558469529,-0.0287106670439243,0.0198531206697226,0.0201585534960032
5,1.00000001649321,-0.00972222266958873,0.187500003092477,-0.0167987942695618,0.0027488935738802,0.0192422550171614
5,1.00972225967599,-0.0152777788063885,0.197222234119292,0.0326812900602817,-0.0164933614432812,0.0045814891345799
5,1.02500007039179,-0.0194444453391775,0.190277786858986,0.0812450796365738,-0.00122173049021512,-0.0186313893646002
5,1.02500007039179,-0.00972222266958873,0.206944452990142,0.0986547395586967,0.0134390350431204,-0.0381790772080422
5,1.00555558402623,0.00416666691266287,0.206944452990142,0.090408056974411,-0.000305432622553781,-0.0326812900602817
5,0.986111194908388,0.00694444498106275,0.208333344873396,0.0665843114256859,-0.0186313893646002,-0.019547687843442
5,0.986111194908388,0.00555555575692586,0.204166669223633,0.0720821022987366,-0.04764748737216,-0.0161879286170006
5,0.998611124609959,0.00694444498106275,0.186111123365188,0.0781907513737679,-0.029626963660121,-0.0161879286170006
5,1.01666671909226,0.00833333382532574,0.169444445078067,0.0794124826788902,0.02382374368608,-0.00488692196086049
5,1.02916674604155,0.00833333382532574,0.176388892338373,0.0849102661013603,0.0613919571042061,-0.00122173049021512
5,1.01527782720901,-0.0222222230277034,0.18333333959868,0.0723875313997269,0.0852157026529312,-0.00549778714776039
5,1.01527782720901,-0.030555557612777,0.194444450352783,0.0552833043038845,0.0711658000946045,-0.0381790772080422
5,1.00277780025972,-0.030555557612777,0.187500003092477,0.0201585534960032,0.0326812900602817,-0.0754418596625328
5,1.01527782720901,-0.0347222241455659,0.193055558469529,0.00794124789535999,-0.0149661982432008,-0.087659165263176
5,1.02222228662528,-0.029166668768514,0.187500003092477,0.00549778714776039,-0.0122173046693206,-0.0949895456433296
5,1.01527782720901,-0.0250000007162294,0.184722231481934,0.0045814891345799,0.0021380283869803,-0.0974330082535744
5,1.00833336779274,-0.0222222230277034,0.187500003092477,0.019547687843442,0.00916297826915979,-0.090408056974411
5,1.00833336779274,-0.0222222230277034,0.187500003092477,0.0439822971820831,-0.00702495034784079,-0.0870482996106148
5,0.99583334084345,0.00555555575692586,0.180555567988136,0.0412334054708481,-0.00580321997404099,-0.076052725315094
5,1.00000001649321,0.0250000007162294,0.19166667874224,0.0125227374956012,0.0247400421649218,-0.0613919571042061
5,1.00000001649321,0.0250000007162294,0.19166667874224,-0.00244346098043024,0.0180205255746841,-0.0540615729987621
5,1.00000001649321,0.0194444453391775,0.200000005729836,-0.0198531206697226,0.000610865245107561,-0.0555887371301651
5,1.00833336779274,0.00972222266958873,0.194444450352783,-0.0232128798961639,-0.000610865245107561,-0.0516181141138077
5,1.00833336779274,0.00972222266958873,0.194444450352783,-0.0412334054708481,-0.011606439948082,-0.0442877300083637
5,1.01388893532575,-0.00277777787846293,0.20138889761309,-0.0754418596625328,-0.00946841109544039,-0.0384845100343227
5,1.00138890837647,-0.0222222230277034,0.206944452990142,-0.0717766657471657,-0.0287106670439243,-0.0357356183230877
5,1.00138890837647,-0.0222222230277034,0.206944452990142,-0.0409279726445675,-0.0568104684352875,-0.0369573459029198
5,0.998611124609959,-0.0347222241455659,0.193055558469529,-0.00916297826915979,-0.0613919571042061,-0.0482583530247212
5,1.02083339474202,-0.0194444453391775,0.187500003092477,0.0140499006956816,-0.0326812900602817,-0.0351247526705265
5,1.02083339474202,-0.0194444453391775,0.187500003092477,0.0171042270958424,-0.00183259579353034,-0.0232128798961639
5,1.02222228662528,-0.00972222266958873,0.190277786858986,-0.00122173049021512,0.0363464802503586,-0.0113010071218014
5,1.01805561097552,-0.0111111115138517,0.190277786858986,-0.0186313893646002,0.021685715764761,-0.0244346093386412
5,1.01527782720901,-0.0111111115138517,0.194444450352783,-0.015577063895762,0.000916297896765172,-0.0351247526705265
5,1.00694447590948,0.00694444498106275,0.205555561106887,0.0109955742955208,-0.03176499158144,-0.0244346093386412
5,1.0125000434425,0.0125000003581147,0.204166669223633,0.00305432616733015,-0.0149661982432008,0.00549778714776039
5,1.00555558402623,0.0194444453391775,0.197222234119292,0.00855211354792118,-0.000305432622553781,0.0397062413394451
5,1.00833336779274,0.0194444453391775,0.190277786858986,0.00855211354792118,0.00122173049021512,0.0641408488154411
5,1.00833336779274,0.0111111115138517,0.184722231481934,0.0113010071218014,-0.00916297826915979,0.0842994004487991
5,1.01666671909226,-0.00555555575692586,0.181944447715425,0.0241291765123606,-0.00427605677396059,0.0803287774324417
5,1.01944450285877,-0.00972222266958873,0.190277786858986,0.00152716308366507,-0.0167987942695618,0.0882700309157372
5,1.02222228662528,-0.00833333382532574,0.193055558469529,-0.0335975885391235,-0.0131336031481624,0.0763581544160843
5,1.00000001649321,-0.00694444498106275,0.202777789496344,-0.0623082555830479,-0.0555887371301651,0.0607810914516449
5,0.99583334084345,-0.0180555564949145,0.194444450352783,-0.0717766657471657,-0.0616973899304867,0.0339030213654041
5,1.00277780025972,-0.0250000007162294,0.19166667874224,-0.0320704244077206,-0.0745255574584007,0.0369573459029198
5,1.00555558402623,-0.029166668768514,0.188888894975731,-0.0241291765123606,-0.0632245540618896,0.0409279726445675
5,1.0125000434425,-0.0194444453391775,0.180555567988136,-0.00916297826915979,-0.0418442711234093,0.0543670058250427
5,1.02222228662528,-0.0166666676506515,0.170833336961321,0.00580321997404099,-0.0427605658769607,0.0815505087375641
5,1.02777785415829,-0.0180555564949145,0.158333334323963,0.02382374368608,-0.01191187184304,0.0855211317539215
5,1.02916674604155,-0.0194444453391775,0.163888889701015,0.027488935738802,0.0143553335219622,0.0598647929728031
5,1.02638896227504,-0.0111111115138517,0.15555556271342,0.0366519130766392,0.0482583530247212,0.0458148941397667
5,1.01944450285877,-0.00972222266958873,0.166666673467524,0.0448985956609249,0.0445931628346443,0.0277943685650826
5,1.00555558402623,0.00277777787846293,0.184722231481934,0.0537561401724815,0.0222965814173222,0.0027488935738802
5,0.998611124609959,0.0194444453391775,0.198611113846581,0.0467311926186085,0.00977384392172098,0.00855211354792118
5,0.993055557076942,0.03194444645704,0.198611113846581,0.0293215326964855,-0.0021380283869803,0.0045814891345799
5,0.99583334084345,0.0388888906783549,0.197222234119292,0.0033597587607801,-0.013744467869401,0.0201585534960032
5,0.991666665193688,0.03194444645704,0.200000005729836,-0.000610865245107561,-0.0439822971820831,0.0219911485910416
5,0.986111194908388,0.0222222230277034,0.190277786858986,-0.0021380283869803,-0.0665843114256859,0.0366519130766392
5,0.997222232726705,0.0194444453391775,0.180555567988136,-0.019547687843442,-0.0772744566202164,0.0455094613134861
5,1.0125000434425,0.0125000003581147,0.17361112072783,-0.0265726372599602,-0.0552833043038845,0.0620028227567673
5,1.01944450285877,0.0125000003581147,0.158333334323963,-0.0161879286170006,-0.0369573459029198,0.0555887371301651
5,1.01527782720901,-0.0138888899621255,0.163888889701015,-0.000916297896765172,-0.0308486949652433,0.0543670058250427
5,1.01388893532575,-0.0222222230277034,0.154166670830166,0.021685715764761,-0.0113010071218014,0.0308486949652433
5,1.01666671909226,-0.026388891079988,0.159722226207217,0.0262672062963247,-0.00977384392172098,0.0210748501121998
5,1.02500007039179,-0.029166668768514,0.166666673467524,0.0140499006956816,-0.0152716310694814,0.02382374368608
5,1.01805561097552,-0.0250000007162294,0.190277786858986,0.01191187184304,-0.0311541277915239,0.0161879286170006
5,1.01111115155925,-0.029166668768514,0.179166676104882,0.0109955742955208,-0.0494800843298435,-0.0177150927484035
5,1.00972225967599,-0.0222222230277034,0.177777784221628,0.0161879286170006,-0.0406225398182869,-0.0284052342176437
5,1.00694447590948,-0.0152777788063885,0.169444445078067,0.017409659922123,-0.0241291765123606,-0.0390953756868839
5,1.0125000434425,-0.0152777788063885,0.168055565350778,-0.00244346098043024,-0.0222965814173222,-0.0378736443817616
5,1.0125000434425,0.00277777787846293,0.169444445078067,-0.0122173046693206,-0.0250454749912024,-0.0320704244077206
5,1.01527782720901,-0.00138888893923146,0.170833336961321,-0.00671951752156019,-0.0189368221908808,-0.0250454749912024
5,1.0125000434425,-0.00138888893923146,0.177777784221628,-0.0021380283869803,-0.0149661982432008,-0.0152716310694814
5,1.0125000434425,-0.00416666691266287,0.180555567988136,-0.00885754637420177,-0.011606439948082,-0.0164933614432812
5,1.0125000434425,-0.00277777787846293,0.186111123365188,-0.0113010071218014,-0.0226020142436027,-0.00977384392172098
5,1.0125000434425,-0.00277777787846293,0.18333333959868,-0.00794124789535999,-0.0201585534960032,-0.0027488935738802
5,1.01527782720901,-0.00277777787846293,0.187500003092477,-0.01588249579072,-0.00885754637420177,-0.0045814891345799
5,1.00972225967599,-0.00277777787846293,0.187500003092477,-0.0146607663482428,-0.0131336031481624,-0.0128281703218818
5,1.00555558402623,-0.00138888893923146,0.18333333959868,-0.00885754637420177,-0.00763581553474069,-0.0131336031481624
5,1.00138890837647,-0.00416666691266287,0.179166676104882,-0.01191187184304,-0.01588249579072,-0.0201585534960032
5,1.00555558402623,-0.00416666691266287,0.17361112072783,-0.019547687843442,-0.027488935738802,-0.0189368221908808
5,1.00555558402623,-0.00416666691266287,0.17361112072783,-0.0164933614432812,-0.0311541277915239,-0.011606439948082
5,1.0125000434425,0.00416666691266287,0.163888889701015,-0.0140499006956816,-0.0134390350431204,0.00671951752156019
5,1.01527782720901,-0.00416666691266287,0.159722226207217,-0.000916297896765172,-0.00855211354792118,0.0183259565383196
5,1.01527782720901,-0.00416666691266287,0.159722226207217,0.00885754637420177,0.0201585534960032,0.0161879286170006
5,1.00972225967599,-0.029166668768514,0.159722226207217,0.0268780700862408,0.0293215326964855,0.021685715764761
5,1.01111115155925,-0.030555557612777,0.172222228844576,0.0265726372599602,0.0177150927484035,0.027488935738802
5,1.01111115155925,-0.030555557612777,0.172222228844576,0.000305432622553781,0.00122173049021512,0.017409659922123
5,1.01944450285877,-0.0361111129898289,0.172222228844576,-0.0442877300083637,-0.0183259565383196,-0.01191187184304
5,1.01527782720901,-0.0583333375370279,0.172222228844576,-0.0687223374843597,-0.0384845100343227,-0.0342084541916847
5,1.01527782720901,-0.0583333375370279,0.172222228844576,-0.0662788823246956,-0.0323758572340012,-0.0543670058250427
5,1.01805561097552,-0.0583333375370279,0.150000007336368,-0.0332921557128429,-0.0284052342176437,-0.0519235469400883
5,1.00972225967599,-0.029166668768514,0.17361112072783,0.00427605677396059,-0.021685715764761,-0.0329867228865623
5,1.00972225967599,-0.029166668768514,0.17361112072783,0.0287106670439243,-0.00549778714776039,0.0021380283869803
5,1.00972225967599,-0.00833333382532574,0.16527778158427,0.0424551330506802,0.00549778714776039,0.019547687843442
5,1.00277780025972,0.00277777787846293,0.166666673467524,0.0574213340878487,-0.0134390350431204,0.0497855171561241
5,1.00555558402623,0.00138888893923146,0.162500009973726,0.0711658000946045,-0.0100792767480016,0.0421497002243996
5,1.0125000434425,-0.00138888893923146,0.161111118090472,0.0537561401724815,-0.00305432616733015,0.0497855171561241
5,1.0125000434425,0.00277777787846293,0.18333333959868,0.0458148941397667,-0.00488692196086049,0.03176499158144
5,1.0125000434425,0.00277777787846293,0.176388892338373,0.0268780700862408,-0.0247400421649218,0.0332921557128429
5,1.01388893532575,-0.00972222266958873,0.170833336961321,0.0103847095742822,-0.0143553335219622,0.0253509078174829
5,1.01527782720901,-0.00972222266958873,0.163888889701015,-0.00152716308366507,-0.0027488935738802,0.0103847095742822
5,1.01527782720901,-0.0125000003581147,0.156944454596674,-0.011606439948082,0.0210748501121998,0.015577063895762
5,1.0125000434425,-0.0111111115138517,0.156944454596674,-0.0189368221908808,0.0433714315295219,0.00488692196086049
5,1.01111115155925,-0.0125000003581147,0.170833336961321,-0.0235183127224445,0.0302378293126821,-0.0033597587607801
5,1.00972225967599,-0.0166666676506515,0.180555567988136,-0.00519235478714108,0.00916297826915979,-0.00671951752156019
5,1.00694447590948,-0.0152777788063885,0.186111123365188,-0.011606439948082,0.00244346098043024,0.00641408516094089
5,1.0125000434425,-0.0125000003581147,0.177777784221628,-0.0125227374956012,-0.000305432622553781,0.0122173046693206
5,1.01388893532575,-0.00694444498106275,0.179166676104882,-0.0152716310694814,0.0109955742955208,0.00366519158706069
5,1.00972225967599,-0.0125000003581147,0.169444445078067,-0.00916297826915979,0.015577063895762,0.00488692196086049
5,1.0125000434425,-0.0152777788063885,0.169444445078067,-0.0100792767480016,0.0183259565383196,0.0106901414692402
5,1.01527782720901,-0.0125000003581147,0.158333334323963,0.000305432622553781,0.0213802829384804,-0.00122173049021512
5,1.01944450285877,-0.0111111115138517,0.16527778158427,0.0207694191485643,0.0400116741657257,-0.00885754637420177
5,1.01944450285877,-0.0125000003581147,0.172222228844576,0.019547687843442,0.0558941699564457,-0.017409659922123
5,1.01388893532575,-0.00972222266958873,0.170833336961321,0.0198531206697226,0.0558941699564457,-0.019547687843442
5,1.00833336779274,-0.0125000003581147,0.177777784221628,0.0161879286170006,0.0436768643558025,-0.0186313893646002
5,1.00972225967599,-0.0152777788063885,0.180555567988136,0.00488692196086049,0.0320704244077206,-0.0250454749912024
5,1.01111115155925,-0.0125000003581147,0.181944447715425,-0.0229074470698834,0.0167987942695618,-0.0229074470698834
5,1.00972225967599,-0.0166666676506515,0.181944447715425,-0.0415388382971287,-0.00183259579353034,-0.0305432621389627
5,1.0125000434425,-0.0166666676506515,0.166666673467524,-0.0302378293126821,0.000305432622553781,-0.0287106670439243
5,1.01111115155925,-0.0222222230277034,0.170833336961321,-0.0183259565383196,0.0192422550171614,-0.0348193198442459
5,1.00972225967599,-0.0166666676506515,0.170833336961321,0.0045814891345799,0.0332921557128429,-0.0268780700862408
5,1.00972225967599,-0.00972222266958873,0.177777784221628,0.0183259565383196,0.0412334054708481,-0.0241291765123606
5,1.01111115155925,-0.00972222266958873,0.18333333959868,0.0326812900602817,0.0384845100343227,-0.0106901414692402
5,1.00555558402623,0.00138888893923146,0.187500003092477,0.0366519130766392,0.0128281703218818,0.0033597587607801
5,1.00555558402623,0.00277777787846293,0.187500003092477,0.0491746515035629,0.0152716310694814,-0.00427605677396059
5,1.00972225967599,0.00277777787846293,0.180555567988136,0.0458148941397667,0.00916297826915979,-0.0109955742955208
5,1.00694447590948,-0.00138888893923146,0.187500003092477,0.0424551330506802,0.00610865233466029,-0.00824668072164059
5,1.01111115155925,-0.00138888893923146,0.180555567988136,0.037568211555481,0.00702495034784079,-0.000916297896765172
5,1.00972225967599,-0.00138888893923146,0.180555567988136,0.0262672062963247,0.0146607663482428,0.00794124789535999
5,1.01111115155925,0.00277777787846293,0.176388892338373,0.0210748501121998,0.0161879286170006,0.017409659922123
5,1.00694447590948,0.00138888893923146,0.187500003092477,0.00885754637420177,0.00305432616733015,0.0180205255746841
5,1.00555558402623,-0.00555555575692586,0.187500003092477,-0.000305432622553781,-0.0033597587607801,0.0259617734700441
5,1.00555558402623,-0.00694444498106275,0.176388892338373,-0.00885754637420177,0.00122173049021512,0.0256563406437635
5,1.00416669214298,-0.00972222266958873,0.166666673467524,-0.013744467869401,-0.00641408516094089,0.0210748501121998
5,1.0125000434425,-0.0138888899621255,0.18333333959868,-0.011606439948082,-0.00366519158706069,0.0125227374956012
5,1.01111115155925,-0.0152777788063885,0.181944447715425,0.000916297896765172,-0.00641408516094089,0.00122173049021512
5,1.01111115155925,-0.0152777788063885,0.184722231481934,0.0140499006956816,0.000305432622553781,0.000916297896765172
5,1.00972225967599,-0.00694444498106275,0.175000000455119,0.0253509078174829,0.000916297896765172,0.00122173049021512
5,1.0125000434425,-0.0125000003581147,0.175000000455119,0.0448985956609249,0.00305432616733015,0.0033597587607801
5,1.00555558402623,-0.0125000003581147,0.184722231481934,0.0436768643558025,0.0152716310694814,0.00549778714776039
5,1.00833336779274,-0.00972222266958873,0.176388892338373,0.0424551330506802,0.00397062394768,0.00549778714776039
5,1.00416669214298,-0.00555555575692586,0.187500003092477,0.0378736443817616,0.0100792767480016,-0.000610865245107561
5,1.00972225967599,-0.00555555575692586,0.18333333959868,0.0372627787292004,-0.00580321997404099,0.00183259579353034
5,1.00833336779274,-0.00277777787846293,0.187500003092477,0.0140499006956816,-0.0122173046693206,0.00671951752156019
5,1.00694447590948,0.00277777787846293,0.176388892338373,0.00305432616733015,-0.00397062394768,0.00946841109544039
5,1.00555558402623,0.00277777787846293,0.179166676104882,0.00641408516094089,-0.00580321997404099,0.0140499006956816
5,1.00972225967599,-0.00277777787846293,0.181944447715425,0.00488692196086049,0.000305432622553781,0.015577063895762
5,1.00833336779274,-0.00972222266958873,0.177777784221628,-0.00580321997404099,-0.00549778714776039,0.0122173046693206
5,1.00555558402623,-0.0125000003581147,0.176388892338373,-0.0106901414692402,-0.0103847095742822,0.0146607663482428
5,1.00555558402623,-0.0138888899621255,0.175000000455119,-0.00366519158706069,-0.0146607663482428,0.0045814891345799
5,1.00694447590948,-0.0125000003581147,0.176388892338373,-0.000305432622553781,-0.0134390350431204,0.00519235478714108
5,1.0125000434425,-0.00555555575692586,0.176388892338373,0.00488692196086049,0.00946841109544039,0.00488692196086049
5,1.01388893532575,-0.00277777787846293,0.176388892338373,0.01191187184304,-0.00855211354792118,0.0259617734700441
5,1.0125000434425,-0.0125000003581147,0.175000000455119,0.0103847095742822,-0.0204639863222837,0.0180205255746841
5,1.00555558402623,-0.00694444498106275,0.166666673467524,0.000610865245107561,-0.0131336031481624,0.0109955742955208
5,1.00416669214298,-0.00833333382532574,0.181944447715425,0.000610865245107561,-0.0253509078174829,0.00763581553474069
5,1.00972225967599,-0.00416666691266287,0.179166676104882,-0.00397062394768,-0.0177150927484035,0.0219911485910416
5,1.0125000434425,-0.00277777787846293,0.17361112072783,-0.0146607663482428,-0.0213802829384804,0.0131336031481624
5,1.01388893532575,-0.00555555575692586,0.17361112072783,-0.0201585534960032,-0.0302378293126821,0.0167987942695618
5,1.02222228662528,-0.00694444498106275,0.17361112072783,-0.00946841109544039,-0.0293215326964855,0.0106901414692402
5,1.01805561097552,-0.0125000003581147,0.163888889701015,0.00427605677396059,-0.0152716310694814,0.0103847095742822
5,1.01527782720901,-0.0125000003581147,0.17361112072783,0.000610865245107561,-0.015577063895762,0.0167987942695618
5,1.00555558402623,-0.0194444453391775,0.17361112072783,0.0045814891345799,-0.0259617734700441,0.00733038317412138
5,1.01388893532575,-0.0208333341834404,0.175000000455119,0.00305432616733015,-0.0256563406437635,0.0027488935738802
5,1.01388893532575,-0.0194444453391775,0.170833336961321,0.0140499006956816,-0.0213802829384804,-0.00580321997404099
5,1.01666671909226,-0.0194444453391775,0.17361112072783,0.00397062394768,-0.0146607663482428,0.00519235478714108
5,1.01388893532575,-0.0180555564949145,0.172222228844576,0.0113010071218014,-0.0229074470698834,0.0140499006956816
5,1.0125000434425,-0.0152777788063885,0.166666673467524,0.00152716308366507,-0.0201585534960032,0.0149661982432008
5,1.01666671909226,-0.0138888899621255,0.156944454596674,-0.00855211354792118,-0.00488692196086049,0.0247400421649218
5,1.0125000434425,-0.0180555564949145,0.161111118090472,-0.0161879286170006,-0.013744467869401,0.0284052342176437
5,1.0125000434425,-0.0180555564949145,0.163888889701015,-0.0210748501121998,-0.0232128798961639,0.0192422550171614
5,1.0125000434425,-0.0180555564949145,0.163888889701015,-0.0113010071218014,-0.0326812900602817,0.0161879286170006
5,1.01111115155925,-0.0125000003581147,0.17361112072783,-0.0183259565383196,-0.0436768643558025,0.0299323964864016
5,1.0125000434425,-0.0138888899621255,0.176388892338373,-0.0222965814173222,-0.0406225398182869,0.0314595587551594
5,1.0125000434425,-0.0138888899621255,0.176388892338373,-0.0189368221908808,-0.0284052342176437,0.0424551330506802
5,1.00972225967599,-0.0125000003581147,0.166666673467524,-0.0247400421649218,-0.029626963660121,0.0259617734700441
5,1.01111115155925,-0.0125000003581147,0.179166676104882,-0.017409659922123,-0.0519235469400883,0.0198531206697226
5,1.01527782720901,-0.0152777788063885,0.168055565350778,-0.0177150927484035,-0.0858265683054924,0.0277943685650826
5,1.02777785415829,-0.0111111115138517,0.161111118090472,-0.000916297896765172,-0.0806342139840126,0.0326812900602817
5,1.00972225967599,-0.00972222266958873,0.170833336961321,-0.00671951752156019,-0.0616973899304867,0.0366519130766392
5,1.00972225967599,-0.00833333382532574,0.170833336961321,-0.0171042270958424,-0.0497855171561241,0.03176499158144
5,1.0125000434425,-0.00555555575692586,0.162500009973726,-0.0277943685650826,-0.0534507073462009,0.027488935738802
5,1.00972225967599,-0.0125000003581147,0.163888889701015,-0.0299323964864016,-0.0421497002243996,0.021685715764761
5,1.00555558402623,-0.0208333341834404,0.156944454596674,-0.0183259565383196,-0.02382374368608,0.00244346098043024
5,1.00555558402623,-0.0208333341834404,0.156944454596674,0.0415388382971287,-0.0311541277915239,0.0021380283869803
5,1.02083339474202,-0.0236111118719664,0.161111118090472,0.0561996027827263,-0.0293215326964855,0.0180205255746841
5,1.02638896227504,-0.0250000007162294,0.154166670830166,0.0543670058250427,-0.00549778714776039,0.0125227374956012
5,1.02638896227504,-0.0250000007162294,0.154166670830166,0.0335975885391235,0.00397062394768,0.0033597587607801
5,1.02361117850853,-0.026388891079988,0.163888889701015,-0.0109955742955208,0.00366519158706069,0.00366519158706069
5,1.01944450285877,-0.033333335301303,0.161111118090472,-0.0571159012615681,-0.0201585534960032,-0.00397062394768
5,1.01944450285877,-0.033333335301303,0.161111118090472,-0.090408056974411,-0.0247400421649218,-0.0247400421649218
5,1.01944450285877,-0.0500000014324589,0.162500009973726,-0.0635299831628799,-0.0045814891345799,-0.0461203269660473
5,1.01527782720901,-0.0569444456537738,0.166666673467524,-0.0219911485910416,0.000305432622553781,-0.0571159012615681
5,1.01944450285877,-0.0583333375370279,0.156944454596674,0.021685715764761,0.0161879286170006,-0.0561996027827263
5,1.02083339474202,-0.0486111125881959,0.156944454596674,0.0592539273202419,0.0320704244077206,-0.0546724386513233
5,1.01111115155925,-0.0236111118719664,0.154166670830166,0.0708603709936142,0.0131336031481624,-0.0262672062963247
5,1.00972225967599,-0.00972222266958873,0.161111118090472,0.0791070461273193,0.00641408516094089,-0.021685715764761
5,1.00833336779274,-0.00555555575692586,0.163888889701015,0.0946841165423393,-0.0226020142436027,-0.013744467869401
5,1.00972225967599,-0.00972222266958873,0.166666673467524,0.0931569486856461,-0.0128281703218818,0.000916297896765172
5,1.02083339474202,-0.00972222266958873,0.16527778158427,0.0894917547702789,-0.0021380283869803,0.0033597587607801
5,1.01805561097552,-0.00972222266958873,0.163888889701015,0.0717766657471657,-0.00152716308366507,-0.00427605677396059
5,1.0125000434425,-0.00972222266958873,0.163888889701015,0.0561996027827263,-0.0103847095742822,-0.021685715764761
5,1.01944450285877,-0.0111111115138517,0.158333334323963,0.0494800843298435,0.00641408516094089,-0.0222965814173222
5,1.01805561097552,-0.0152777788063885,0.159722226207217,0.0262672062963247,0.017409659922123,-0.00733038317412138
5,1.01388893532575,-0.0152777788063885,0.150000007336368,0.000916297896765172,0.00763581553474069,-0.0152716310694814
5,1.00972225967599,-0.0194444453391775,0.150000007336368,-0.0192422550171614,-0.00916297826915979,0.000916297896765172
5,1.0125000434425,-0.027777779924251,0.144444451959316,-0.0183259565383196,-0.00397062394768,0.0277943685650826
5,1.01805561097552,-0.0361111129898289,0.14722222356986,-0.0125227374956012,-0.00916297826915979,0.0293215326964855
5,1.01388893532575,-0.03194444645704,0.154166670830166,-0.00549778714776039,-0.00488692196086049,0.0250454749912024
5,1.01666671909226,-0.0375000018340919,0.144444451959316,-0.0128281703218818,0.00885754637420177,0.0299323964864016
5,1.01388893532575,-0.0347222241455659,0.148611115453114,-0.0131336031481624,-0.0045814891345799,0.0287106670439243
5,1.01388893532575,-0.0402777795226179,0.158333334323963,-0.0109955742955208,-0.0106901414692402,0.0323758572340012
5,1.01666671909226,-0.03194444645704,0.152777778946911,-0.00122173049021512,-0.00549778714776039,0.0354301854968071
5,1.01805561097552,-0.03194444645704,0.156944454596674,0.0033597587607801,-0.00305432616733015,0.0299323964864016
5,1.01666671909226,-0.029166668768514,0.15555556271342,0.0146607663482428,0.00702495034784079,0.0247400421649218
5,1.01111115155925,-0.026388891079988,0.156944454596674,0.0235183127224445,0.0106901414692402,0.021685715764761
5,1.01527782720901,-0.026388891079988,0.15555556271342,0.00519235478714108,0.00977384392172098,0.0229074470698834
5,1.01527782720901,-0.0208333341834404,0.163888889701015,0.00244346098043024,0.0161879286170006,0.0125227374956012
5,1.0125000434425,-0.0138888899621255,0.163888889701015,0.0033597587607801,0.0177150927484035,0.0100792767480016
5,1.00972225967599,-0.00972222266958873,0.158333334323963,0.00122173049021512,0.00488692196086049,0.0241291765123606
5,1.01527782720901,-0.0125000003581147,0.156944454596674,-0.0140499006956816,0.0103847095742822,0.0277943685650826
5,1.01944450285877,-0.0194444453391775,0.156944454596674,-0.0186313893646002,0.00580321997404099,0.0314595587551594
5,1.01805561097552,-0.0222222230277034,0.152777778946911,-0.00824668072164059,-0.000610865245107561,0.0397062413394451
5,1.01944450285877,-0.0180555564949145,0.161111118090472,0.0033597587607801,0.00519235478714108,0.029626963660121
5,1.0125000434425,-0.0208333341834404,0.152777778946911,-0.013744467869401,0.0201585534960032,0.013744467869401
5,1.0125000434425,-0.0166666676506515,0.151388899219622,-0.00855211354792118,0.0302378293126821,0.0180205255746841
5,1.01527782720901,-0.00277777787846293,0.148611115453114,-0.00305432616733015,0.0473420582711697,0.0342084541916847
5,1.01666671909226,-0.00277777787846293,0.161111118090472,-0.0100792767480016,0.0714712366461754,0.0287106670439243
5,1.0125000434425,-0.0125000003581147,0.180555567988136,-0.0226020142436027,0.0739146918058395,0.0113010071218014
5,1.00694447590948,-0.00972222266958873,0.176388892338373,-0.0149661982432008,0.0222965814173222,-0.00397062394768
5,1.00277780025972,-0.00694444498106275,0.176388892338373,0.00488692196086049,-0.0177150927484035,-0.0259617734700441
5,1.00972225967599,0.00972222266958873,0.166666673467524,0.013744467869401,-0.0198531206697226,-0.00244346098043024
5,1.01527782720901,0.00555555575692586,0.16527778158427,0.00855211354792118,0.00244346098043024,0.0192422550171614
5,1.02222228662528,-0.00277777787846293,0.169444445078067,-0.0290160998702049,0.017409659922123,0.0161879286170006
5,1.00972225967599,-0.0125000003581147,0.161111118090472,-0.0332921557128429,0.0125227374956012,0.0171042270958424
5,1.00555558402623,-0.0152777788063885,0.16527778158427,-0.021685715764761,-0.00671951752156019,-0.00427605677396059
5,1.00694447590948,-0.0180555564949145,0.163888889701015,0.00488692196086049,-0.0167987942695618,-0.01588249579072
5,1.0125000434425,-0.0194444453391775,0.163888889701015,0.0152716310694814,-0.0103847095742822,-0.021685715764761
5,1.07500008094122,-0.00833333382532574,0.168055565350778,0.0265726372599602,-0.0183259565383196,-0.0320704244077206
5,1.0333333244436,-0.0111111115138517,0.176388892338373,0.0558941699564457,0.127365410327911,-0.0140499006956816
5,1.0333333244436,-0.0111111115138517,0.176388892338373,0.0342084541916847,0.0433714315295219,-0.0229074470698834
5,1.00555558402623,-0.029166668768514,0.169444445078067,0.0583376325666905,-0.0125227374956012,-0.0302378293126821
5,1.00833336779274,-0.027777779924251,0.170833336961321,0.0769690200686455,0.0027488935738802,-0.0354301854968071
5,1.01527782720901,-0.0194444453391775,0.17361112072783,0.0708603709936142,-0.00824668072164059,-0.0329867228865623
5,1.01527782720901,-0.0194444453391775,0.17361112072783,0.0555887371301651,0.0143553335219622,-0.0552833043038845
5,1.0333333244436,-0.0194444453391775,0.168055565350778,0.0537561401724815,0.0445931628346443,-0.0470366254448891
5,1.00555558402623,-0.00972222266958873,0.170833336961321,0.0568104684352875,0.0714712366461754,-0.0442877300083637
5,1.00555558402623,-0.00972222266958873,0.170833336961321,0.0522289797663689,0.0128281703218818,-0.0394008085131645
5,1.00000001649321,-0.0111111115138517,0.181944447715425,0.0421497002243996,-0.00702495034784079,-0.0412334054708481
5,1.00972225967599,0.00555555575692586,0.18333333959868,0.0189368221908808,0.013744467869401,-0.0339030213654041
5,1.02500007039179,0.00138888893923146,0.176388892338373,0.0164933614432812,0.0332921557128429,-0.0326812900602817
5,1.0125000434425,-0.00138888893923146,0.184722231481934,0.0290160998702049,0.0268780700862408,-0.029626963660121
5,1.00972225967599,-0.00972222266958873,0.177777784221628,0.0433714315295219,0.0247400421649218,-0.0439822971820831
5,1.00694447590948,-0.0125000003581147,0.161111118090472,0.0280998013913631,0.0293215326964855,-0.0516181141138077
5,1.0125000434425,-0.00694444498106275,0.180555567988136,0.0235183127224445,0.0302378293126821,-0.0299323964864016
5,1.02083339474202,-0.00555555575692586,0.179166676104882,0.0284052342176437,0.0427605658769607,-0.00855211354792118
5,1.01527782720901,-0.0180555564949145,0.176388892338373,0.0244346093386412,0.0531452745199203,-0.000610865245107561
5,1.00833336779274,-0.0152777788063885,0.172222228844576,0.029626963660121,0.0458148941397667,-0.0207694191485643
5,1.00694447590948,-0.0194444453391775,0.18333333959868,0.0241291765123606,0.0311541277915239,-0.0387899428606033
5,1.01111115155925,-0.0180555564949145,0.180555567988136,0.00152716308366507,0.0290160998702049,-0.0400116741657257
5,1.0125000434425,-0.0125000003581147,0.17361112072783,-0.00916297826915979,0.0351247526705265,-0.0439822971820831
5,1.0125000434425,-0.0125000003581147,0.176388892338373,-0.00946841109544039,0.0335975885391235,-0.0384845100343227
5,1.01666671909226,-0.00138888893923146,0.179166676104882,0.00152716308366507,0.04764748737216,-0.021685715764761
5,1.0125000434425,-0.00555555575692586,0.176388892338373,-0.00122173049021512,0.0308486949652433,-0.02382374368608
5,1.0125000434425,-0.0125000003581147,0.181944447715425,-0.0186313893646002,0.0326812900602817,-0.0247400421649218
5,1.00972225967599,-0.0111111115138517,0.184722231481934,-0.0122173046693206,0.0268780700862408,-0.0226020142436027
5,1.00694447590948,-0.00972222266958873,0.180555567988136,-0.0106901414692402,0.0186313893646002,-0.0164933614432812
5,1.00555558402623,-0.00972222266958873,0.177777784221628,-0.0100792767480016,0.0027488935738802,-0.0183259565383196
5,1.00000001649321,-0.00833333382532574,0.180555567988136,-0.00488692196086049,-0.02382374368608,-0.0033597587607801
5,1.00972225967599,-0.00833333382532574,0.188888894975731,-0.0122173046693206,-0.0253509078174829,0.0100792767480016
5,1.0125000434425,-0.00555555575692586,0.179166676104882,-0.00763581553474069,-0.00855211354792118,0.00977384392172098
5,1.01666671909226,-0.00555555575692586,0.176388892338373,0.00519235478714108,0.00641408516094089,-0.000916297896765172
5,1.0125000434425,-0.00138888893923146,0.176388892338373,0.00366519158706069,0.00152716308366507,-0.0045814891345799
5,1.01527782720901,-0.00694444498106275,0.172222228844576,0.0161879286170006,0.0021380283869803,-0.0103847095742822
5,1.01527782720901,-0.00416666691266287,0.169444445078067,0.0397062413394451,0.0131336031481624,-0.00610865233466029
5,1.00972225967599,-0.00416666691266287,0.163888889701015,0.0421497002243996,0.0229074470698834,-0.0045814891345799
5,1.00972225967599,-0.00416666691266287,0.169444445078067,0.0244346093386412,0.03176499158144,-0.0027488935738802
5,1.00972225967599,-0.00416666691266287,0.180555567988136,0.00671951752156019,0.0125227374956012,-0.00366519158706069
5,1.00972225967599,-0.0208333341834404,0.181944447715425,-0.0363464802503586,-0.0125227374956012,-0.00885754637420177
5,1.00972225967599,-0.033333335301303,0.179166676104882,-0.0455094613134861,-0.0299323964864016,-0.0128281703218818
5,1.00694447590948,-0.026388891079988,0.17361112072783,-0.0507018156349659,-0.0326812900602817,-0.01191187184304
5,1.00972225967599,-0.029166668768514,0.17361112072783,-0.0412334054708481,-0.0222965814173222,-0.0100792767480016
5,1.0125000434425,-0.026388891079988,0.158333334323963,-0.0305432621389627,-0.017409659922123,0.00946841109544039
5,1.01805561097552,-0.0166666676506515,0.168055565350778,-0.00488692196086049,-0.00885754637420177,0.00580321997404099
5,1.0125000434425,-0.00555555575692586,0.17361112072783,0.0146607663482428,-0.0204639863222837,0.00580321997404099
5,1.00555558402623,-0.00277777787846293,0.170833336961321,-0.00152716308366507,-0.01588249579072,0.00702495034784079
5,1.00972225967599,0.00277777787846293,0.170833336961321,-0.000610865245107561,0.00305432616733015,0.013744467869401
5,1.00555558402623,0.00833333382532574,0.181944447715425,-0.00641408516094089,-0.0113010071218014,0.0244346093386412
5,1.00833336779274,0.00416666691266287,0.193055558469529,-0.00641408516094089,-0.0207694191485643,0.0262672062963247
5,1.00416669214298,0.00416666691266287,0.190277786858986,-0.0201585534960032,-0.0397062413394451,0.0128281703218818
5,1.01111115155925,0.00416666691266287,0.187500003092477,-0.0384845100343227,-0.05283984541893,0.0171042270958424
5,1.0125000434425,0.00416666691266287,0.186111123365188,-0.0415388382971287,-0.0568104684352875,0.00488692196086049
5,1.00972225967599,0.00416666691266287,0.179166676104882,-0.0620028227567673,-0.0543670058250427,0.00855211354792118
5,1.00972225967599,0.00277777787846293,0.172222228844576,-0.0351247526705265,-0.0369573459029198,0.0323758572340012
5,1.00972225967599,0.00277777787846293,0.172222228844576,-0.0351247526705265,-0.0369573459029198,0.0323758572340012
5,1.0125000434425,0.00277777787846293,0.166666673467524,-0.0253509078174829,-0.0320704244077206,0.0253509078174829
5,1.01527782720901,0.00277777787846293,0.161111118090472,-0.0180205255746841,-0.00671951752156019,0.0290160998702049
5,1.01527782720901,-0.00694444498106275,0.159722226207217,-0.0280998013913631,0.00152716308366507,0.0390953756868839
5,1.01111115155925,-0.00833333382532574,0.166666673467524,-0.0390953756868839,0.000305432622553781,0.0464257597923279
5,1.0125000434425,-0.0125000003581147,0.166666673467524,-0.0479529201984406,-0.00946841109544039,0.0497855171561241
5,1.0125000434425,-0.029166668768514,0.159722226207217,-0.0757472887635231,-0.0171042270958424,0.0424551330506802
5,1.01527782720901,-0.0361111129898289,0.163888889701015,-0.0870482996106148,-0.0213802829384804,0.027488935738802
5,1.01666671909226,-0.0361111129898289,0.16527778158427,-0.102319926023483,-0.0290160998702049,0.00671951752156019
5,1.01944450285877,-0.0375000018340919,0.158333334323963,-0.0800233483314514,-0.0268780700862408,-0.0109955742955208
5,1.01944450285877,-0.033333335301303,0.161111118090472,-0.0464257597923279,-0.00244346098043024,-0.0131336031481624
5,1.01388893532575,-0.03194444645704,0.163888889701015,-0.0045814891345799,-0.000916297896765172,-0.013744467869401
5,1.00972225967599,-0.029166668768514,0.169444445078067,0.0146607663482428,0.00488692196086049,-0.0164933614432812
5,1.00555558402623,-0.00972222266958873,0.166666673467524,0.0259617734700441,0.00702495034784079,-0.0113010071218014
5,1.01111115155925,-0.00416666691266287,0.172222228844576,0.0351247526705265,0.00946841109544039,-0.000305432622553781
5,1.01388893532575,0.00277777787846293,0.172222228844576,0.0329867228865623,0.0128281703218818,0.00855211354792118
5,1.00972225967599,0.00972222266958873,0.17361112072783,0.0210748501121998,-0.00183259579353034,0.00733038317412138
5,1.0125000434425,-0.00138888893923146,0.170833336961321,0.0125227374956012,-0.00580321997404099,-0.00794124789535999
5,1.0125000434425,-0.00694444498106275,0.17361112072783,-0.00183259579353034,-0.0100792767480016,-0.00183259579353034
5,1.00972225967599,-0.00833333382532574,0.19166667874224,-0.0045814891345799,-0.01588249579072,-0.00549778714776039
5,1.00972225967599,-0.00833333382532574,0.177777784221628,-0.00397062394768,-0.029626963660121,-0.0232128798961639
5,1.0125000434425,-0.00972222266958873,0.17361112072783,-0.00122173049021512,-0.0372627787292004,-0.0177150927484035
5,1.01111115155925,-0.00972222266958873,0.166666673467524,0.0149661982432008,-0.013744467869401,-0.00671951752156019
5,1.00555558402623,0.00138888893923146,0.163888889701015,0.0247400421649218,-0.000610865245107561,0.0207694191485643
5,1.0125000434425,-0.00555555575692586,0.166666673467524,0.0335975885391235,-0.0021380283869803,0.0186313893646002
5,1.01527782720901,-0.00555555575692586,0.166666673467524,0.0314595587551594,-0.01191187184304,0.03176499158144
5,1.0125000434425,-0.0138888899621255,0.172222228844576,0.0262672062963247,-0.0122173046693206,0.0268780700862408
5,1.0125000434425,-0.00972222266958873,0.159722226207217,0.0222965814173222,-0.0149661982432008,0.0354301854968071
5,1.02083339474202,-0.00972222266958873,0.152777778946911,-0.000305432622553781,-0.0103847095742822,0.0595593601465225
5,1.02222228662528,-0.0222222230277034,0.166666673467524,-0.0244346093386412,0.00397062394768,0.0656680166721344
5,1.01527782720901,-0.0361111129898289,0.166666673467524,-0.0436768643558025,-0.0265726372599602,0.0522289797663689
5,1.00833336779274,-0.0375000018340919,0.166666673467524,-0.0149661982432008,-0.0595593601465225,0.0268780700862408
5,1.00694447590948,-0.030555557612777,0.166666673467524,-0.0021380283869803,-0.0629191175103188,0.00488692196086049
5,1.01111115155925,-0.0222222230277034,0.172222228844576,0.000305432622553781,-0.0467311926186085,-0.00152716308366507
5,1.00972225967599,-0.0152777788063885,0.175000000455119,-0.000916297896765172,-0.0445931628346443,-0.0128281703218818
5,1.00972225967599,-0.0125000003581147,0.180555567988136,0.00122173049021512,-0.0595593601465225,-0.0143553335219622
5,1.00694447590948,0.00555555575692586,0.190277786858986,0.00152716308366507,-0.0623082555830479,-0.029626963660121
5,1.00416669214298,0.0111111115138517,0.190277786858986,-0.00580321997404099,-0.0708603709936142,-0.0284052342176437
5,1.00833336779274,0.0152777788063885,0.176388892338373,-0.0329867228865623,-0.0601702257990837,-0.0253509078174829
5,1.02083339474202,0.00694444498106275,0.180555567988136,-0.0668897479772568,-0.0394008085131645,-0.0342084541916847
5,1.01527782720901,0.00416666691266287,0.176388892338373,-0.0986547395586967,-0.0293215326964855,-0.0549778714776039
5,1.0125000434425,0.00277777787846293,0.176388892338373,-0.170431405305862,-0.0351247526705265,-0.0965167060494423
5,1.0125000434425,0.00277777787846293,0.176388892338373,-0.22693644464016,-0.0445931628346443,-0.133474051952362
5,1.00555558402623,0.0138888899621255,0.163888889701015,-0.292909890413284,-0.0439822971820831,-0.182037845253944
5,1.00972225967599,0.0166666676506515,0.163888889701015,-0.407447129487991,-0.0305432621389627,-0.178067222237587
5,1.00972225967599,0.0166666676506515,0.163888889701015,-0.4914411008358,-0.013744467869401,-0.138055548071861
5,1.00000001649321,-0.00972222266958873,0.161111118090472,-0.560774266719818,-0.015577063895762,-0.121867619454861
5,1.01527782720901,-0.00555555575692586,0.168055565350778,-0.587652385234833,-0.0332921557128429,-0.141415297985077
5,1.01527782720901,-0.00555555575692586,0.168055565350778,-0.655763864517212,-0.00702495034784079,-0.15332718193531
5,1.02777785415829,-0.00138888893923146,0.150000007336368,-0.682947337627411,0.0259617734700441,-0.0974330082535744
5,1.01944450285877,-0.00555555575692586,0.170833336961321,-0.690888583660126,0.0287106670439243,-0.0308486949652433
5,1.01944450285877,-0.00555555575692586,0.170833336961321,-0.677754998207092,-0.00916297826915979,-0.0314595587551594
5,1.02777785415829,-0.0194444453391775,0.175000000455119,-0.666453957557678,-0.0189368221908808,-0.0323758572340012
5,1.01527782720901,-0.0222222230277034,0.156944454596674,-0.661872506141663,-0.0241291765123606,-0.0100792767480016
5,1.01527782720901,-0.0222222230277034,0.156944454596674,-0.653014957904816,-0.0167987942695618,0.0357356183230877
5,1.00972225967599,-0.0222222230277034,0.14722222356986,-0.638354182243347,-0.027488935738802,0.0671951770782471
5,1.01527782720901,-0.0194444453391775,0.144444451959316,-0.638354182243347,-0.0100792767480016,0.0849102661013603
5,1.0125000434425,-0.0208333341834404,0.14722222356986,-0.635605275630951,-0.00122173049021512,0.087659165263176
5,1.0125000434425,-0.0208333341834404,0.14722222356986,-0.635605275630951,-0.00122173049021512,0.087659165263176
5,1.01527782720901,-0.0180555564949145,0.143055560076062,-0.65637469291687,-0.00549778714776039,0.12156218290329
5,1.00972225967599,-0.0111111115138517,0.131944449321958,-0.68630713224411,-0.0109955742955208,0.172874867916107
5,1.00972225967599,-0.0250000007162294,0.115277783190802,-0.698829829692841,-0.00824668072164059,0.22204951941967
5,1.01805561097552,-0.0430555572111439,0.116666675074056,-0.687528848648071,-0.013744467869401,0.249233022332191
5,1.01527782720901,-0.0513888902767219,0.115277783190802,-0.663705110549927,0.00427605677396059,0.260839462280273
5,1.01666671909226,-0.0819444448505077,0.112499999424294,-0.634688973426819,-0.0128281703218818,0.25961771607399
5,1.0125000434425,-0.0875000002275597,0.113888891307548,-0.559247136116028,-0.0458148941397667,0.30757063627243
5,1.01527782720901,-0.0944444474878658,0.112499999424294,-0.530231058597565,-0.0204639863222837,0.282830595970154
5,1.00972225967599,-0.105555564319952,0.108333335930496,-0.547029852867126,0.013744467869401,0.268780708312988
5,1.0125000434425,-0.104166672436698,0.118055554801345,-0.529009282588959,0.00488692196086049,0.255952537059784
5,1.00972225967599,-0.0986111170596459,0.108333335930496,-0.48136180639267,0.0045814891345799,0.258090555667877
5,1.02222228662528,-0.10972222781375,0.118055554801345,-0.461203247308731,0.00885754637420177,0.246789559721947
5,1.02500007039179,-0.122222230451108,0.113888891307548,-0.433408886194229,0.0467311926186085,0.219300627708435
5,1.02500007039179,-0.126388893944906,0.113888891307548,-0.380874484777451,0.0775798857212067,0.167987942695618
5,1.02500007039179,-0.125000002061652,0.13750000469901,-0.317955374717712,0.04764748737216,0.115453533828259
5,1.01388893532575,-0.112499999424294,0.144444451959316,-0.280692577362061,0.00244346098043024,0.0910189226269722
5,1.01111115155925,-0.108333335930496,0.140277788465518,-0.241597205400467,-0.00244346098043024,0.0901026204228401
5,1.01944450285877,-0.102777780553444,0.12777778582816,-0.18020524084568,0.00824668072164059,0.0937678143382072
5,1.02222228662528,-0.111111119697004,0.1194444466846,-0.143858760595322,0.0250454749912024,0.0708603709936142
5,1.02777785415829,-0.108333335930496,0.136111112815755,-0.11087204515934,0.0348193198442459,0.0467311926186085
5,1.03750000009336,-0.101388894748172,0.134722233088466,-0.0748309940099716,0.05283984541893,0.000610865245107561
5,1.02500007039179,-0.0972222251763917,0.13750000469901,-0.0277943685650826,0.0394008085131645,-0.0305432621389627
5,1.01527782720901,-0.0861111144222878,0.150000007336368,0.0186313893646002,0.00733038317412138,-0.0510072484612465
5,1.0125000434425,-0.0833333367337618,0.14722222356986,0.0555887371301651,-0.0131336031481624,-0.0610865242779255
5,1.01805561097552,-0.0833333367337618,0.12916666555545,0.0925460830330849,0.00183259579353034,-0.0580321997404099
5,1.02222228662528,-0.0930555616825939,0.125000002061652,0.136222943663597,0.0204639863222837,-0.0671951770782471
5,1.02222228662528,-0.0930555616825939,0.125000002061652,0.173791155219078,0.00763581553474069,-0.0827722400426865
5,1.02500007039179,-0.108333335930496,0.13750000469901,0.240070044994354,-0.00366519158706069,-0.116675265133381
5,1.01666671909226,-0.101388894748172,0.13750000469901,0.323758572340012,-0.0210748501121998,-0.145691365003586
5,1.01527782720901,-0.0944444474878658,0.134722233088466,0.366519153118133,-0.0308486949652433,-0.144164204597473
5,1.02222228662528,-0.0916666697993398,0.140277788465518,0.441044718027115,-0.0149661982432008,-0.146607652306557
5,1.01944450285877,-0.0944444474878658,0.133333341205212,0.477085769176483,0.00946841109544039,-0.156686931848526
5,1.01805561097552,-0.0972222251763917,0.13750000469901,0.505796432495117,0.0222965814173222,-0.145385921001434
5,1.00833336779274,-0.101388894748172,0.152777778946911,0.537866830825806,0.0265726372599602,-0.167071640491486
5,1.00555558402623,-0.101388894748172,0.150000007336368,0.600175082683563,0.00763581553474069,-0.16951510310173
5,1.00972225967599,-0.0763888894734557,0.150000007336368,0.659123599529266,0.0134390350431204,-0.196393176913261
5,1.00972225967599,-0.055555559848502,0.144444451959316,0.691499471664429,0.0381790772080422,-0.193949714303017
5,1.00972225967599,-0.0472222237439329,0.154166670830166,0.716239511966705,0.0470366254448891,-0.19578230381012
5,1.00972225967599,-0.0472222237439329,0.154166670830166,0.709825396537781,0.0210748501121998,-0.175623759627342
5,1.0125000434425,-0.0388888906783549,0.150000007336368,0.716239511966705,0.0164933614432812,-0.162184715270996
5,1.01111115155925,-0.029166668768514,0.144444451959316,0.726013362407684,0.0507018156349659,-0.146913096308708
5,1.01111115155925,-0.029166668768514,0.144444451959316,0.740368664264679,0.0464257597923279,-0.12705996632576
5,1.01388893532575,-0.0486111125881959,0.154166670830166,0.747393608093262,0.0320704244077206,-0.120951317250729
5,1.00000001649321,-0.0722222259796579,0.154166670830166,0.750447928905487,0.00671951752156019,-0.133779495954514
5,1.00000001649321,-0.0722222259796579,0.154166670830166,0.780685782432556,-0.00580321997404099,-0.148745685815811
5,1.00277780025972,-0.0805555590452358,0.152777778946911,0.839023411273956,0.013744467869401,-0.180510684847832
5,1.00972225967599,-0.0777777813567098,0.156944454596674,0.895833909511566,0.0439822971820831,-0.189062789082527
5,1.01805561097552,-0.0569444456537738,0.154166670830166,0.925766289234161,0.0479529201984406,-0.193949714303017
5,1.01527782720901,-0.0166666676506515,0.161111118090472,0.940732479095459,0.0461203269660473,-0.157908663153648
5,1.01527782720901,0.00694444498106275,0.162500009973726,0.89308500289917,0.0641408488154411,-0.122478485107422
5,1.02500007039179,0.0361111129898289,0.162500009973726,0.834136486053467,0.0885754600167274,-0.0684169083833694
5,1.03472221632685,0.0569444456537738,0.163888889701015,0.753502309322357,0.145691365003586,-0.0277943685650826
5,1.02638896227504,0.0541666679652478,0.175000000455119,0.651487767696381,0.154854342341423,0.00794124789535999
5,1.00000001649321,0.0416666683668809,0.195833342236038,0.572686195373535,0.112399205565453,0.0177150927484035
5,0.983333411141879,0.026388891079988,0.194444450352783,0.523511528968811,0.0494800843298435,0.0250454749912024
5,0.972222276075846,0.0236111118719664,0.193055558469529,0.472504258155823,0.01191187184304,0.0357356183230877
5,0.977777843608863,0.0152777788063885,0.198611113846581,0.454178303480148,0.0329867228865623,0.0339030213654041
5,0.983333411141879,-0.00555555575692586,0.187500003092477,0.442877292633057,0.00855211354792118,0.0152716310694814
5,0.994444448960196,-0.0222222230277034,0.187500003092477,0.430049121379852,0.00122173049021512,-0.0244346093386412
5,1.0125000434425,-0.0194444453391775,0.187500003092477,0.40775254368782,0.00702495034784079,-0.0409279726445675
5,1.02222228662528,-0.00277777787846293,0.181944447715425,0.378431022167206,0.0134390350431204,-0.0247400421649218
5,1.03888889197661,0.00277777787846293,0.17361112072783,0.363464832305908,0.0357356183230877,0.0210748501121998
5,1.0333333244436,0.0125000003581147,0.175000000455119,0.361326783895493,0.0329867228865623,0.0540615729987621
5,1.02638896227504,0.0125000003581147,0.177777784221628,0.333226978778839,0.0442877300083637,0.0650571510195732
5,1.02222228662528,0.0111111115138517,0.193055558469529,0.283136039972305,0.0595593601465225,0.0601702257990837
5,1.02500007039179,0.026388891079988,0.193055558469529,0.247400417923927,0.0629191175103188,0.0464257597923279
5,1.01805561097552,0.052777782159976,0.208333344873396,0.22204951941967,0.0299323964864016,0.0253509078174829
5,0.987499989543926,0.0680555564078778,0.20972223675665,0.196087747812271,0.00763581553474069,0.017409659922123
5,0.979166735492117,0.0722222259796579,0.202777789496344,0.161268427968025,0.00305432616733015,0.0143553335219622
5,0.990277773310434,0.0708333340964038,0.202777789496344,0.0986547395586967,0.0265726372599602,0.0161879286170006
5,0.99583334084345,0.0597222233422998,0.198611113846581,0.0662788823246956,0.0409279726445675,0.0146607663482428
5,1.00000001649321,0.052777782159976,0.20138889761309,0.0247400421649218,0.0381790772080422,0.00397062394768
5,0.994444448960196,0.0416666683668809,0.195833342236038,-0.0244346093386412,0.0109955742955208,-0.00427605677396059
5,1.00138890837647,0.026388891079988,0.194444450352783,-0.110566608607769,-0.0177150927484035,-0.0146607663482428
5,1.0125000434425,0.00833333382532574,0.194444450352783,-0.159435823559761,-0.0445931628346443,-0.00763581553474069
5,1.01388893532575,0.00833333382532574,0.195833342236038,-0.164322748780251,-0.08460483700037,-0.0113010071218014
5,1.01666671909226,0.00277777787846293,0.180555567988136,-0.152105450630188,-0.0656680166721344,-0.00824668072164059
5,1.0125000434425,0.0152777788063885,0.176388892338373,-0.124921940267086,-0.0403171069920063,0.0045814891345799
5,1.00972225967599,0.0166666676506515,0.176388892338373,-0.0934623852372169,-0.00488692196086049,0.0204639863222837
5,1.00000001649321,0.0236111118719664,0.188888894975731,-0.0711658000946045,0.00946841109544039,0.0149661982432008
5,1.00416669214298,0.0222222230277034,0.197222234119292,-0.0500909499824047,-0.00763581553474069,0.00977384392172098
5,1.00833336779274,0.030555557612777,0.197222234119292,-0.0497855171561241,0.00244346098043024,-0.00244346098043024
5,1.0125000434425,0.0375000018340919,0.200000005729836,-0.0772744566202164,0.0113010071218014,0.000305432622553781
5,1.00972225967599,0.03194444645704,0.190277786858986,-0.124616511166096,0.0186313893646002,0.0229074470698834
5,0.990277773310434,0.0138888899621255,0.198611113846581,-0.145080491900444,-0.0128281703218818,0.0323758572340012
5,1.00833336779274,-0.00138888893923146,0.179166676104882,-0.155159771442413,-0.0326812900602817,0.0277943685650826
5,1.01111115155925,0.00694444498106275,0.193055558469529,-0.175318330526352,-0.0543670058250427,0.00183259579353034
5,1.01944450285877,0.00833333382532574,0.177777784221628,-0.18509216606617,-0.0287106670439243,0.00610865233466029
5,1.01666671909226,0.00972222266958873,0.187500003092477,-0.191811680793762,-0.0167987942695618,0.0131336031481624
5,1.00833336779274,0.00555555575692586,0.180555567988136,-0.201890960335732,-0.000305432622553781,0.011606439948082
5,1.00138890837647,-0.00138888893923146,0.184722231481934,-0.17440202832222,-0.00366519158706069,0.0222965814173222
5,1.00138890837647,-0.00138888893923146,0.184722231481934,-0.161268427968025,0.00427605677396059,0.0131336031481624
5,1.00972225967599,-0.00972222266958873,0.180555567988136,-0.128587126731873,-0.0027488935738802,0.00702495034784079
5,1.00972225967599,-0.00694444498106275,0.179166676104882,-0.0943786799907684,-0.0180205255746841,0.00183259579353034
5,1.00972225967599,-0.00694444498106275,0.179166676104882,-0.0522289797663689,-0.0222965814173222,0.00824668072164059
5,1.00833336779274,-0.00694444498106275,0.170833336961321,-0.0598647929728031,-0.0235183127224445,0.0351247526705265
5,1.00972225967599,-0.00416666691266287,0.18333333959868,-0.0522289797663689,-0.0320704244077206,0.0378736443817616
5,1.00972225967599,-0.00416666691266287,0.18333333959868,-0.037568211555481,-0.0241291765123606,0.0400116741657257
5,1.01527782720901,-0.00416666691266287,0.184722231481934,-0.0342084541916847,-0.0268780700862408,0.037568211555481
5,1.01388893532575,-0.00138888893923146,0.177777784221628,-0.0366519130766392,-0.0287106670439243,0.0290160998702049
5,1.01388893532575,-0.00138888893923146,0.177777784221628,-0.0452040284872055,-0.0293215326964855,0.03176499158144
5,1.00833336779274,0.00833333382532574,0.161111118090472,-0.0424551330506802,-0.0293215326964855,0.0558941699564457
5,1.00694447590948,0.00277777787846293,0.168055565350778,-0.0494800843298435,-0.0271835029125214,0.0604756586253643
5,1.0125000434425,-0.00555555575692586,0.176388892338373,-0.0332921557128429,-0.0265726372599602,0.0421497002243996
5,1.01666671909226,-0.00972222266958873,0.176388892338373,-0.0213802829384804,-0.0186313893646002,0.021685715764761
5,1.02500007039179,-0.00555555575692586,0.166666673467524,-0.00946841109544039,-0.01588249579072,0.0167987942695618
5,1.01805561097552,-0.00555555575692586,0.17361112072783,-0.0113010071218014,-0.017409659922123,0.0250454749912024
5,1.01944450285877,0.00694444498106275,0.170833336961321,-0.00946841109544039,-0.0226020142436027,0.0308486949652433
5,1.0125000434425,0.00277777787846293,0.170833336961321,-0.00427605677396059,-0.0103847095742822,0.0378736443817616
5,1.00972225967599,0.00277777787846293,0.170833336961321,0.00244346098043024,-0.0180205255746841,0.0345138870179653
5,1.00416669214298,0.00138888893923146,0.181944447715425,0.017409659922123,-0.0299323964864016,0.0229074470698834
5,1.0125000434425,-0.00138888893923146,0.176388892338373,-0.00183259579353034,-0.0259617734700441,0.0204639863222837
5,1.0125000434425,-0.00555555575692586,0.166666673467524,-0.00580321997404099,-0.0134390350431204,0.0125227374956012
5,1.01666671909226,-0.00277777787846293,0.166666673467524,0.00183259579353034,-0.01588249579072,0.0290160998702049
5,1.01944450285877,0.00277777787846293,0.169444445078067,-0.00397062394768,-0.00824668072164059,0.0113010071218014
5,1.02222228662528,-0.00277777787846293,0.163888889701015,0.00305432616733015,-0.0128281703218818,0.0128281703218818
5,1.01388893532575,-0.00972222266958873,0.163888889701015,0.00549778714776039,-0.00641408516094089,0.00916297826915979
5,1.01388893532575,-0.0111111115138517,0.16527778158427,0.013744467869401,-0.000305432622553781,0.0033597587607801
5,1.0125000434425,-0.00972222266958873,0.161111118090472,0.0204639863222837,0.00397062394768,-0.00519235478714108
5,1.01388893532575,-0.00277777787846293,0.169444445078067,0.0244346093386412,-0.00763581553474069,-0.000305432622553781
5,1.00833336779274,0.00555555575692586,0.156944454596674,0.0262672062963247,-0.00824668072164059,0.00488692196086049
5,1.00972225967599,0.00277777787846293,0.163888889701015,0.0253509078174829,-0.00885754637420177,0.00580321997404099
5,1.01111115155925,-0.00277777787846293,0.168055565350778,0.0268780700862408,-0.000916297896765172,0.00794124789535999
5,1.0125000434425,-0.00277777787846293,0.170833336961321,0.0232128798961639,-0.00427605677396059,0.0180205255746841
5,1.0125000434425,-0.00277777787846293,0.169444445078067,0.0256563406437635,-0.0171042270958424,0.00885754637420177
5,1.01527782720901,0.00416666691266287,0.161111118090472,0.0226020142436027,-0.000916297896765172,0.013744467869401
5,1.0125000434425,0.00416666691266287,0.158333334323963,0.0262672062963247,-0.00885754637420177,0.01191187184304
5,1.00972225967599,-0.00277777787846293,0.163888889701015,0.02382374368608,-0.00671951752156019,0.013744467869401
5,1.01111115155925,-0.00555555575692586,0.168055565350778,0.0277943685650826,-0.0033597587607801,-0.00122173049021512
5,1.01388893532575,-0.00416666691266287,0.166666673467524,0.0323758572340012,-0.00549778714776039,0.00641408516094089
5,1.00972225967599,-0.00138888893923146,0.170833336961321,0.0265726372599602,-0.00549778714776039,0.0128281703218818
5,1.0125000434425,-0.00277777787846293,0.180555567988136,0.019547687843442,-0.0134390350431204,0.013744467869401
5,1.00555558402623,-0.00416666691266287,0.180555567988136,0.0372627787292004,-0.0106901414692402,0.0143553335219622
5,1.01388893532575,-0.00138888893923146,0.166666673467524,0.0280998013913631,-0.000610865245107561,0.0149661982432008
5,1.01805561097552,-0.00416666691266287,0.166666673467524,0.0290160998702049,0.00397062394768,0.0103847095742822
5,1.0125000434425,-0.00833333382532574,0.169444445078067,0.0326812900602817,0.00366519158706069,0.00610865233466029
5,1.0125000434425,-0.00555555575692586,0.161111118090472,0.037568211555481,-0.00488692196086049,0.00397062394768
5,1.00833336779274,-0.00138888893923146,0.156944454596674,0.0360410511493683,-0.00855211354792118,0.0146607663482428
5,1.01111115155925,-0.00138888893923146,0.169444445078067,0.0323758572340012,-0.0128281703218818,0.0131336031481624
5,1.01388893532575,-0.00416666691266287,0.16527778158427,0.0235183127224445,-0.00549778714776039,0.0122173046693206
5,1.00833336779274,-0.00277777787846293,0.170833336961321,0.03176499158144,-0.02382374368608,0.00610865233466029
5,1.00694447590948,-0.00277777787846293,0.175000000455119,0.0387899428606033,-0.0473420582711697,0.00397062394768
5,1.00972225967599,0.00277777787846293,0.161111118090472,0.0128281703218818,-0.0345138870179653,0.0131336031481624
5,1.0125000434425,0.00277777787846293,0.168055565350778,0.00152716308366507,-0.0253509078174829,0.0109955742955208
5,1.01527782720901,0.00277777787846293,0.162500009973726,0.00152716308366507,-0.00641408516094089,0.0122173046693206
5,1.01527782720901,0.00138888893923146,0.150000007336368,0.0033597587607801,-0.0027488935738802,0.011606439948082
5,1.00972225967599,-0.00416666691266287,0.158333334323963,-0.00152716308366507,0.000916297896765172,0.00733038317412138
5,1.00416669214298,-0.00972222266958873,0.159722226207217,-0.000305432622553781,0.00671951752156019,0.0103847095742822
5,1.00972225967599,-0.00833333382532574,0.163888889701015,-0.000916297896765172,0.00733038317412138,-0.00427605677396059
5,1.00972225967599,-0.00694444498106275,0.166666673467524,0.00519235478714108,0.00946841109544039,-0.0021380283869803
5,1.00972225967599,-0.00555555575692586,0.156944454596674,-0.0033597587607801,0.0033597587607801,-0.011606439948082
5,1.0125000434425,-0.00555555575692586,0.162500009973726,-0.00305432616733015,0.0021380283869803,-0.00946841109544039
5,1.01527782720901,-0.00416666691266287,0.156944454596674,-0.00244346098043024,0.00244346098043024,0.00427605677396059
5,1.01527782720901,-0.00555555575692586,0.150000007336368,-0.00244346098043024,0.0106901414692402,0.00763581553474069
5,1.01527782720901,-0.00416666691266287,0.15555556271342,-0.00488692196086049,0.0103847095742822,0.00549778714776039
5,1.01388893532575,-0.00972222266958873,0.163888889701015,-0.00488692196086049,0.00763581553474069,0.0103847095742822
5,1.00972225967599,-0.0125000003581147,0.170833336961321,-0.0109955742955208,0.0100792767480016,0.00549778714776039
5,1.01527782720901,-0.00972222266958873,0.168055565350778,-0.0021380283869803,0.00366519158706069,0.0033597587607801
5,1.00972225967599,-0.00972222266958873,0.159722226207217,-0.00610865233466029,0.00885754637420177,0.00183259579353034
5,1.01527782720901,-0.00972222266958873,0.162500009973726,-0.00641408516094089,0.00641408516094089,0.00488692196086049
5,1.01388893532575,-0.00972222266958873,0.169444445078067,-0.00824668072164059,0.0152716310694814,0.0045814891345799
5,1.01388893532575,-0.00277777787846293,0.150000007336368,-0.013744467869401,0.0125227374956012,0.00824668072164059
5,1.01111115155925,-0.00694444498106275,0.163888889701015,-0.0177150927484035,0.0247400421649218,-0.00152716308366507
5,1.0125000434425,-0.00416666691266287,0.163888889701015,-0.0192422550171614,0.0287106670439243,-0.00152716308366507
5,1.0125000434425,-0.00416666691266287,0.163888889701015,-0.0122173046693206,0.0299323964864016,0.0027488935738802
5,1.0125000434425,-0.00416666691266287,0.163888889701015,-0.011606439948082,0.02382374368608,-0.00397062394768
5,1.01944450285877,-0.00833333382532574,0.156944454596674,-0.00794124789535999,0.0311541277915239,-0.0033597587607801
5,1.00972225967599,-0.00694444498106275,0.15555556271342,-0.00397062394768,0.0442877300083637,-0.00244346098043024
5,1.00972225967599,-0.00694444498106275,0.15555556271342,-0.00122173049021512,0.0412334054708481,0.0106901414692402
5,1.01805561097552,-0.00972222266958873,0.166666673467524,-0.00305432616733015,0.0293215326964855,0.01191187184304
5,1.02083339474202,-0.00833333382532574,0.163888889701015,-0.0109955742955208,0.0406225398182869,0.0201585534960032
5,1.0125000434425,-0.00555555575692586,0.170833336961321,-0.00855211354792118,0.0287106670439243,0.0268780700862408
5,1.00694447590948,-0.00555555575692586,0.177777784221628,0.0045814891345799,0.0146607663482428,0.0201585534960032
5,1.01111115155925,-0.00833333382532574,0.17361112072783,0.00946841109544039,-0.0125227374956012,0.0128281703218818
5,1.01944450285877,-0.00694444498106275,0.176388892338373,0.0103847095742822,-0.01588249579072,0.00733038317412138
5,1.01944450285877,-0.00833333382532574,0.170833336961321,0.0122173046693206,-0.0167987942695618,0.00122173049021512
5,1.01944450285877,-0.00694444498106275,0.180555567988136,0.0109955742955208,-0.01588249579072,0.00488692196086049
5,1.01944450285877,-0.00555555575692586,0.176388892338373,0.0244346093386412,-0.0311541277915239,0.00855211354792118
5,1.00555558402623,-0.00972222266958873,0.17361112072783,0.0387899428606033,-0.0729983970522881,-0.00122173049021512
5,1.00138890837647,-0.00277777787846293,0.187500003092477,0.0751364231109619,-0.178372651338577,-0.00519235478714108
5,1.00277780025972,-0.00416666691266287,0.19166667874224,0.0916297882795334,-0.213802829384804,-0.03176499158144
5,1.02500007039179,-0.0138888899621255,0.144444451959316,0.0574213340878487,-0.164628177881241,-0.0555887371301651
5,1.02638896227504,-0.0180555564949145,0.130555557438704,0.011606439948082,-0.0473420582711697,-0.070249505341053
5,1.01944450285877,-0.0236111118719664,0.130555557438704,0.0424551330506802,0.0390953756868839,-0.0491746515035629
5,1.00277780025972,-0.0250000007162294,0.161111118090472,0.0482583530247212,0.0143553335219622,-0.064446285367012
5,1.00694447590948,-0.0180555564949145,0.159722226207217,0.0522289797663689,-0.0164933614432812,-0.0720821022987366
5,1.01805561097552,-0.0180555564949145,0.169444445078067,0.0616973899304867,-0.0601702257990837,-0.0613919571042061
5,1.01527782720901,0.0111111115138517,0.16527778158427,0.0555887371301651,-0.0919352173805237,-0.0320704244077206
5,1.01527782720901,0.00972222266958873,0.14583334384257,0.0415388382971287,-0.0687223374843597,-0.0305432621389627
5,1.01944450285877,-0.00277777787846293,0.13750000469901,0.0430659987032413,-0.00122173049021512,-0.02382374368608
5,1.00972225967599,-0.0125000003581147,0.136111112815755,0.0262672062963247,0.0259617734700441,-0.037568211555481
5,1.00972225967599,-0.00972222266958873,0.150000007336368,0.0271835029125214,0.0311541277915239,-0.037568211555481
5,1.01805561097552,0.00277777787846293,0.148611115453114,0.0219911485910416,0.0329867228865623,-0.0201585534960032
5,1.01388893532575,0.00972222266958873,0.150000007336368,0.0113010071218014,0.00794124789535999,0.00122173049021512
5,1.01527782720901,0.0152777788063885,0.156944454596674,0.0103847095742822,-0.00427605677396059,0.0305432621389627
5,1.01805561097552,0.0222222230277034,0.150000007336368,-0.00152716308366507,-0.00305432616733015,0.0467311926186085
5,1.01527782720901,0.0125000003581147,0.152777778946911,-0.0192422550171614,0.00641408516094089,0.04764748737216
5,1.01388893532575,-0.00277777787846293,0.144444451959316,-0.0241291765123606,0.0204639863222837,0.0363464802503586
5,1.00833336779274,-0.00277777787846293,0.150000007336368,-0.0256563406437635,0.0467311926186085,0.0335975885391235
5,1.01388893532575,-0.00277777787846293,0.151388899219622,-0.0311541277915239,0.0412334054708481,0.0311541277915239
5,1.01527782720901,-0.00277777787846293,0.154166670830166,-0.0308486949652433,0.0516181141138077,0.0329867228865623
5,1.0125000434425,-0.00277777787846293,0.159722226207217,-0.0378736443817616,0.0656680166721344,0.029626963660121
5,1.00694447590948,0.00138888893923146,0.166666673467524,-0.0339030213654041,0.070249505341053,0.0378736443817616
5,1.00972225967599,0.00555555575692586,0.175000000455119,-0.0345138870179653,0.0406225398182869,0.02382374368608
5,1.01805561097552,0.00555555575692586,0.168055565350778,-0.0418442711234093,0.0250454749912024,0.0226020142436027
5,1.01944450285877,-0.00138888893923146,0.161111118090472,-0.0485637858510017,0.0311541277915239,0.00580321997404099
5,1.0125000434425,-0.00138888893923146,0.166666673467524,-0.0448985956609249,0.0436768643558025,0.02382374368608
5,1.0125000434425,-0.00138888893923146,0.166666673467524,-0.0394008085131645,0.0540615729987621,0.0204639863222837
5,1.0125000434425,-0.0125000003581147,0.170833336961321,-0.0394008085131645,0.05283984541893,0.0213802829384804
5,1.0125000434425,-0.0111111115138517,0.154166670830166,-0.0351247526705265,0.0497855171561241,0.0232128798961639
5,1.0125000434425,-0.0111111115138517,0.154166670830166,-0.0305432621389627,0.0409279726445675,0.0152716310694814
5,1.01527782720901,-0.00972222266958873,0.159722226207217,-0.0213802829384804,0.0458148941397667,0.0229074470698834
5,1.0125000434425,-0.00555555575692586,0.170833336961321,-0.017409659922123,0.0568104684352875,0.0277943685650826
5,1.0125000434425,-0.00555555575692586,0.170833336961321,-0.0192422550171614,0.0329867228865623,0.0323758572340012
5,1.00972225967599,-0.00694444498106275,0.163888889701015,-0.0198531206697226,0.0287106670439243,0.0366519130766392
5,1.00972225967599,-0.00972222266958873,0.180555567988136,-0.0125227374956012,0.0186313893646002,0.0305432621389627
5,1.00972225967599,-0.00972222266958873,0.180555567988136,-0.0122173046693206,0.0100792767480016,0.011606439948082
5,1.01111115155925,-0.0138888899621255,0.18333333959868,-0.00794124789535999,0.0180205255746841,0.0113010071218014
