Activity,acc_x,acc_y,acc_z,gyro_x,gyro_y,gyro_z
0,0.493055597454194,0.0972222251763917,0.869444471210474,-0.0134390350431204,0.0277943685650826,0.0164933614432812
0,0.490277813687686,0.101388894748172,0.87500003874349,0.0106901414692402,0.05283984541893,0.0290160998702049
0,0.493055597454194,0.100000002864918,0.870833363093728,0.0021380283869803,0.0470366254448891,0.0384845100343227
0,0.493055597454194,0.100000002864918,0.870833363093728,0.0021380283869803,0.0470366254448891,0.0384845100343227
0,0.477777786738398,0.102777780553444,0.854166660494678,0.00671951752156019,0.0299323964864016,0.0400116741657257
0,0.488888921804431,0.101388894748172,0.855555552377932,0.00183259579353034,0.00397062394768,0.00977384392172098
0,0.49166670557094,0.102777780553444,0.869444471210474,-0.0109955742955208,0.027488935738802,-0.00946841109544039
0,0.493055597454194,0.101388894748172,0.869444471210474,-0.0284052342176437,0.0351247526705265,-0.0149661982432008
0,0.490277813687686,0.0972222251763917,0.863888903677457,-0.0177150927484035,0.0229074470698834,0.0021380283869803
0,0.493055597454194,0.0944444474878658,0.872222254976982,0.0033597587607801,0.0189368221908808,0.0045814891345799
0,0.493055597454194,0.0944444474878658,0.872222254976982,-0.000916297896765172,0.0180205255746841,0.0192422550171614
0,0.486111138037923,0.0916666697993398,0.888888957576031,0.0021380283869803,0.0213802829384804,0.0268780700862408
0,0.495833332596844,0.0902777839940679,0.883333390043015,-0.0177150927484035,0.0113010071218014,0.0033597587607801
0,0.490277813687686,0.0916666697993398,0.880555606276507,-0.00855211354792118,0.015577063895762,0.00702495034784079
0,0.490277813687686,0.0916666697993398,0.880555606276507,-0.0143553335219622,-0.00122173049021512,0.00244346098043024
0,0.488888921804431,0.0916666697993398,0.865277795560711,-0.0406225398182869,-0.000305432622553781,0.0033597587607801
0,0.488888921804431,0.0916666697993398,0.865277795560711,-0.0219911485910416,0.000916297896765172,0.0045814891345799
0,0.483333354271415,0.0958333393711199,0.870833363093728,0.0201585534960032,0.0143553335219622,0.00671951752156019
0,0.483333354271415,0.0888888921108138,0.880555606276507,0.0323758572340012,0.0522289797663689,0.017409659922123
0,0.486111138037923,0.0944444474878658,0.876388930626744,0.05283984541893,0.0433714315295219,-0.00855211354792118
0,0.479166678621653,0.102777780553444,0.877777822509998,0.0308486949652433,0.0284052342176437,-0.0207694191485643
0,0.483333354271415,0.104166672436698,0.866666687443965,-0.00488692196086049,0.0357356183230877,-0.00641408516094089
0,0.483333354271415,0.0958333393711199,0.876388930626744,-0.0235183127224445,0.0421497002243996,-0.01588249579072
0,0.483333354271415,0.104166672436698,0.870833363093728,-0.00397062394768,0.0555887371301651,0.00427605677396059
0,0.480555570504907,0.0944444474878658,0.893055633225794,0.0201585534960032,0.131336033344269,0.0161879286170006
0,0.480555570504907,0.0944444474878658,0.89166674134254,0.0412334054708481,0.134390354156494,0.0222965814173222
0,0.476388894855144,0.0944444474878658,0.879166714393253,0.0442877300083637,0.142331600189209,-0.00366519158706069
0,0.46527780841297,0.0944444474878658,0.877777822509998,0.0351247526705265,0.107817716896534,-0.00183259579353034
0,0.470833327322128,0.0930555616825939,0.87500003874349,0.0519235469400883,0.102319926023483,-0.00885754637420177
0,0.473611111088636,0.0930555616825939,0.877777822509998,0.0433714315295219,0.0980438739061356,-0.01588249579072
0,0.469444484062732,0.0958333393711199,0.858333336144441,0.0632245540618896,0.0662788823246956,-0.00580321997404099
0,0.473611111088636,0.0944444474878658,0.863888903677457,0.0763581544160843,0.0613919571042061,0.00641408516094089
0,0.456944457113445,0.101388894748172,0.854166660494678,0.100792765617371,0.0580321997404099,-0.00519235478714108
0,0.461111132763207,0.102777780553444,0.87500003874349,0.076052725315094,0.00305432616733015,0.000305432622553781
0,0.476388894855144,0.108333335930496,0.877777822509998,0.0537561401724815,-0.00305432616733015,0.00122173049021512
0,0.470833327322128,0.111111119697004,0.866666687443965,0.0339030213654041,0.0219911485910416,0.0219911485910416
0,0.462500024646461,0.10972222781375,0.870833363093728,0.0323758572340012,0.0638354197144508,0.0326812900602817
0,0.462500024646461,0.120833338567854,0.869444471210474,-0.000610865245107561,0.0198531206697226,0.0494800843298435
0,0.472222219205382,0.118055554801345,0.86805557932722,-0.00183259579353034,-0.000610865245107561,0.0552833043038845
0,0.484722246154669,0.113888891307548,0.887500065692777,0.0103847095742822,0.00244346098043024,0.0784961804747581
0,0.469444484062732,0.120833338567854,0.880555606276507,0.0122173046693206,0.00366519158706069,0.0806342139840126
0,0.468055592179478,0.118055554801345,0.873611146860236,0.0232128798961639,-0.0256563406437635,0.0797179117798805
0,0.486111138037923,0.118055554801345,0.876388930626744,-0.0134390350431204,-0.0329867228865623,0.0687223374843597
0,0.487500029921177,0.1194444466846,0.883333390043015,-0.0705549344420433,-0.0293215326964855,0.0488692186772823
0,0.493055597454194,0.111111119697004,0.87500003874349,-0.133779495954514,-0.00641408516094089,0.0345138870179653
0,0.483333354271415,0.10972222781375,0.863888903677457,-0.164322748780251,0.00946841109544039,0.0302378293126821
0,0.470833327322128,0.10972222781375,0.862500011794203,-0.147218525409698,0.0106901414692402,0.0186313893646002
0,0.480555570504907,0.0986111170596459,0.881944498159761,-0.0372627787292004,-0.0284052342176437,0.0033597587607801
0,0.490277813687686,0.0916666697993398,0.880555606276507,0.021685715764761,-0.0833831056952477,0.02382374368608
0,0.486111138037923,0.0791666671619817,0.858333336144441,0.0626136884093285,-0.0812450796365738,0.0394008085131645
0,0.469444484062732,0.0875000002275597,0.826388920077312,0.0531452745199203,-0.109344877302647,0.0671951770782471
0,0.473611111088636,0.0875000002275597,0.837500055143345,0.0763581544160843,-0.155159771442413,0.0824668109416962
0,0.493055597454194,0.100000002864918,0.86805557932722,0.0821613743901253,-0.156992360949516,0.0803287774324417
0,0.488888921804431,0.101388894748172,0.877777822509998,0.029626963660121,-0.161268427968025,0.0867428630590439
0,0.498611116363352,0.0972222251763917,0.870833363093728,-0.120951317250729,-0.151494577527046,0.0745255574584007
0,0.481944462388161,0.0930555616825939,0.854166660494678,-0.24342979490757,-0.109039448201656,0.0671951770782471
0,0.473611111088636,0.0916666697993398,0.843055622676362,-0.330783516168594,-0.00152716308366507,0.0418442711234093
0,0.463888916529715,0.0875000002275597,0.827777811960566,-0.329256355762482,0.0949895456433296,-0.0131336031481624
0,0.469444484062732,0.0819444448505077,0.834722271376837,-0.202501833438873,0.202501833438873,-0.15332718193531
0,0.49166670557094,0.0638888929140799,0.852777768611424,-0.101098194718361,0.262977480888367,-0.215635433793068
0,0.518055554105052,0.0472222237439329,0.84583340644287,-0.149356558918953,0.373544096946716,-0.27458393573761
0,0.515277818962402,0.0458333348996699,0.831944487610329,-0.217468023300171,0.250149309635162,-0.235793977975845
0,0.498611116363352,0.0597222233422998,0.873611146860236,-0.124616511166096,-0.0815505087375641,-0.159130394458771
0,0.498611116363352,0.0597222233422998,0.873611146860236,-0.0122173046693206,-0.0882700309157372,-0.145385921001434
0,0.498611116363352,0.0652777787193518,0.894444525109048,0.0106901414692402,-0.0305432621389627,-0.146913096308708
0,0.506944467662877,0.0652777787193518,0.89166674134254,-0.029626963660121,-0.013744467869401,-0.171958565711975
0,0.488888921804431,0.0652777787193518,0.893055633225794,-0.0772744566202164,0.0152716310694814,-0.204639852046967
0,0.477777786738398,0.0583333375370279,0.904166671044111,-0.0766635909676552,-0.0192422550171614,-0.211970239877701
0,0.469444484062732,0.0513888902767219,0.909722238577127,-0.0387899428606033,-0.021685715764761,-0.231212496757507
0,0.449999997697174,0.0458333348996699,0.908333346693873,0.0473420582711697,0.0397062413394451,-0.257174253463745
0,0.459722240879953,0.0402777795226179,0.916666697993398,0.164628177881241,0.0977384373545647,-0.308181524276733
0,0.466666700296224,0.0458333348996699,0.905555562927365,0.172569438815117,0.150883719325066,-0.346971452236175
0,0.449999997697174,0.0486111125881959,0.909722238577127,0.106290549039841,0.138055548071861,-0.361326783895493
0,0.449999997697174,0.0486111125881959,0.909722238577127,0.0381790772080422,0.0864374339580536,-0.328034639358521
0,0.440277803138253,0.0583333375370279,0.899999995394348,0.0470366254448891,0.114231802523136,-0.313984721899033
0,0.434722235605237,0.0458333348996699,0.881944498159761,0.0146607663482428,0.171653136610985,-0.325285732746124
0,0.452777781463682,0.03194444645704,0.849999984844916,-0.064446285367012,0.146607652306557,-0.318260788917542
0,0.469444484062732,0.0472222237439329,0.915277806110144,0.22204951941967,0.261450320482254,-0.345444291830063
0,0.469444484062732,0.0472222237439329,0.915277806110144,0.22204951941967,0.261450320482254,-0.345444291830063
0,0.469444484062732,0.0472222237439329,0.915277806110144,0.22204951941967,0.261450320482254,-0.345444291830063
0,0.488888921804431,0.0819444448505077,0.947222222177272,0.32192599773407,0.293520748615265,-0.346666038036346
0,0.480555570504907,0.0944444474878658,0.944444438410764,0.284052342176437,0.314901024103165,-0.336892187595367
0,0.473611111088636,0.0986111170596459,0.931944508709193,0.193644285202026,0.259312301874161,-0.236404851078987
0,0.469444484062732,0.0916666697993398,0.916666697993398,0.0998764708638191,0.20616702735424,-0.161879286170006
0,0.466666700296224,0.0819444448505077,0.884722281926269,0.037568211555481,0.193644285202026,-0.0772744566202164
0,0.449999997697174,0.0722222259796579,0.883333390043015,-0.0131336031481624,0.128281697630882,0.0277943685650826
0,0.437500019371745,0.0625000010308258,0.884722281926269,-0.0424551330506802,0.0708603709936142,0.117591559886932
0,0.437500019371745,0.0750000036681839,0.876388930626744,-0.0720821022987366,0.0467311926186085,0.183870434761047
0,0.424999992422458,0.0986111170596459,0.880555606276507,-0.0959058403968811,0.0687223374843597,0.27000242471695
0,0.42916666807222,0.111111119697004,0.894444525109048,-0.0922406539320946,0.240070044994354,0.342695415019989
0,0.411111122213775,0.105555564319952,0.888888957576031,-0.0473420582711697,0.297796815633774,0.421191573143005
0,0.422222257279808,0.0944444474878658,0.89722221162784,0.0320704244077206,0.301156580448151,0.471893399953842
0,0.415277797863537,0.0777777813567098,0.841666730793107,-0.0561996027827263,-0.331394404172897,0.853989601135254
0,0.404166687109433,0.0666666706026059,0.85138887672817,-0.017409659922123,-0.162795588374138,0.815505087375641
0,0.375000006184955,0.0847222225390337,0.952777789710289,0.131641462445259,0.0995710343122482,0.792903065681458
0,0.344444457689151,0.0888888921108138,1.0125000434425,0.108734011650086,0.151800006628036,0.898582756519318
0,0.387500008822313,0.123611110178398,1.04166667574312,0.147829383611679,0.521068036556244,0.819781184196472
0,0.415277797863537,0.130555557438704,1.03888889197661,0.349109500646591,0.84574294090271,0.693637490272522
0,0.394444468238583,0.115277783190802,1.00000001649321,0.507629036903381,0.870788395404816,0.701884150505066
0,0.302777798439244,0.116666675074056,0.912500022343635,0.45509460568428,0.546724379062653,0.88208943605423
0,0.14722222356986,0.206944452990142,0.908333346693873,0.129808858036995,0.215330004692078,1.34909594058991
0,0.175000000455119,0.206944452990142,0.913888914226889,0.0314595587551594,0.163101017475128,1.3045027256012
0,0.197222234119292,0.204166669223633,0.926388941176177,-0.0632245540618896,0.011606439948082,1.40285205841064
0,0.141666668192807,0.197222234119292,0.925000049292922,-0.0247400421649218,-0.604451179504395,1.82098925113678
0,0.100000002864918,0.180555567988136,0.888888957576031,0.0769690200686455,-1.03388941287994,2.25806331634521
0,0.193055558469529,0.16527778158427,0.805555590452358,0.0598647929728031,-1.03052961826325,2.40558743476868
0,0.272222225631511,0.111111119697004,0.765277823085705,-0.0980438739061356,-0.983798503875732,2.55921983718872
0,0.311111125426839,0.0652777787193518,0.769444450111609,-0.0882700309157372,-1.0256427526474,2.67131376266479
0,0.301388906555989,0.0625000010308258,0.772222233878117,0.0638354197144508,-0.985325634479523,2.82067036628723
0,0.286111120152123,0.0680555564078778,0.812500049868629,0.285884946584701,-0.799317181110382,2.86434721946716
0,0.423611149163062,0.0819444448505077,0.872222254976982,0.369573473930359,-0.452040284872055,2.57021546363831
0,0.559722261978817,0.0180555564949145,0.837500055143345,0.183870434761047,0.0510072484612465,2.11878609657288
0,0.634722229179108,-0.0402777795226179,0.804166698569104,0.0858265683054924,0.564744889736176,1.74615836143494
0,0.558333370095563,-0.033333335301303,0.833333379493583,0.156381502747536,0.292299032211304,1.62826132774353
0,0.519444445988306,-0.0416666683668809,0.887500065692777,0.272445887327194,0.00519235478714108,1.5412130355835
0,0.518055554105052,-0.0750000036681839,0.884722281926269,0.363159388303757,0.0687223374843597,1.44103109836578
0,0.562499997121468,-0.0569444456537738,0.93750007624221,0.572991609573364,0.547335267066956,1.09436511993408
0,0.611111115787646,-0.0944444474878658,0.969444492309338,0.831998467445374,0.90408056974411,0.706465661525726
0,0.609722223904392,-0.181944447715425,0.961111141009813,0.913854420185089,0.846659243106842,0.574213325977325
0,0.480555570504907,-0.25555557165632,0.959722249126559,1.25929868221283,0.601702272891998,0.655152976512909
0,0.379166681834717,-0.243055569018962,0.92083337364316,1.58641707897186,1.01037108898163,0.758083760738373
0,0.452777781463682,-0.212499996211229,0.922222265526414,1.38635861873627,2.06289196014404,0.860098242759705
0,0.500000008246606,-0.0833333367337618,1.04305556762637,1.05954575538635,3.48376441001892,1.57939207553864
0,0.398611119576417,-0.20972223675665,1.09861114570882,0.0308486949652433,3.58364105224609,2.14230442047119
0,0.284722228268869,-0.18333333959868,0.969444492309338,-0.721737265586853,2.09526777267456,2.52501153945923
0,0.284722228268869,-0.18333333959868,0.969444492309338,-0.939510762691498,1.83534467220306,2.9446759223938
0,0.25555557165632,-0.115277783190802,0.933333400592447,-0.596815347671509,1.94804930686951,3.13557124137878
0,0.14722222356986,-0.136111112815755,0.870833363093728,-0.263893783092499,1.36650550365448,3.26110410690308
0,0.161111118090472,-0.262500006760661,0.811111157985375,1.11360728740692,0.00427605677396059,4.77391195297241
0,0.250000004123303,-0.413888905980283,0.770833341994863,3.10075187683106,-1.30053210258484,6.18745422363281
0,0.250000004123303,-0.413888905980283,0.770833341994863,0.338113903999329,0.366824567317963,5.16639280319214
0,0.029166668768514,0.290277795801886,0.736111142161226,-3.27607035636902,2.88969802856445,4.1890082359314
0,-0.029166668768514,0.133333341205212,0.936111184358955,-3.3924400806427,1.31244397163391,3.38327717781067
0,-0.029166668768514,0.133333341205212,0.936111184358955,-0.689972281455994,0.469144523143768,2.9623908996582
0,-0.029166668768514,0.133333341205212,0.936111184358955,0.57604593038559,0.560774266719818,2.52867674827576
0,-0.162500009973726,-0.331944455051793,0.975000059842355,1.03877639770508,-0.08460483700037,2.21316480636597
0,-0.162500009973726,-0.331944455051793,0.975000059842355,0.861930847167969,-0.181121543049812,1.46485483646393
0,-0.162500009973726,-0.331944455051793,0.975000059842355,0.624609708786011,-0.352163821458816,0.714406907558441
0,-0.162500009973726,-0.331944455051793,0.975000059842355,-0.357967019081116,-0.721737265586853,0.0668897479772568
0,-0.0930555616825939,-0.0944444474878658,1.10138892947533,-0.587346911430359,-0.837190806865692,0.0186313893646002
0,-0.0930555616825939,-0.0944444474878658,1.10138892947533,-0.24342979490757,-0.602313160896301,0.162490159273148
0,-0.169444445078067,-0.12916666555545,1.04305556762637,0.124005645513535,-0.351858377456665,0.138360977172852
0,-0.10972222781375,-0.12777778582816,0.993055557076942,0.238542884588242,-0.0177150927484035,0.0122173046693206
0,-0.10972222781375,-0.12777778582816,0.993055557076942,-0.563523173332214,0.273973047733307,0.0757472887635231
0,-0.10972222781375,-0.12777778582816,0.993055557076942,-0.563523173332214,0.273973047733307,0.0757472887635231
0,-0.10972222781375,-0.12777778582816,0.993055557076942,-0.641103088855743,0.215635433793068,0.0641408488154411
0,-0.166666673467524,-0.14722222356986,1.00277780025972,-0.441044718027115,0.352163821458816,-0.0812450796365738
0,-0.181944447715425,-0.150000007336368,0.973611167959101,-0.289550125598908,0.339641064405441,-0.122478485107422
0,-0.197222234119292,-0.159722226207217,0.879166714393253,-0.205556154251099,-0.192422553896904,-0.139582708477974
0,-0.19166667874224,-0.134722233088466,0.89722221162784,-0.0861319974064827,-0.580321967601776,-0.373544096946716
0,-0.19166667874224,-0.134722233088466,0.89722221162784,-0.0665843114256859,-0.486554175615311,-0.427911102771759
0,-0.19166667874224,-0.134722233088466,0.89722221162784,-0.0894917547702789,0.319177091121674,-0.543059229850769
0,-0.163888889701015,-0.14722222356986,0.993055557076942,-0.402865618467331,0.244651526212692,-0.781602084636688
0,-0.13750000469901,-0.152777778946911,0.865277795560711,-0.304210901260376,-0.797789990901947,-0.847880959510803
0,-0.125000002061652,-0.144444451959316,0.926388941176177,-0.57604593038559,-1.27518117427826,-1.07023596763611
0,-0.10972222781375,-0.166666673467524,0.997222232726705,-1.28434419631958,-1.38605320453644,-1.31580376625061
0,-0.0583333375370279,-0.200000005729836,1.01944450285877,-1.51555669307709,-1.22570109367371,-1.32466125488281
0,-0.0402777795226179,-0.25555557165632,0.955555573476797,-1.52410876750946,-1.12460291385651,-1.2434161901474
0,-0.0152777788063885,-0.259722222994153,0.951388897827035,-1.29961585998535,-0.91507613658905,-1.16400372982025
0,-0.0125000003581147,-0.287500012035377,0.947222222177272,-0.507629036903381,-0.264504641294479,-0.896139323711395
0,-0.0125000003581147,-0.306944449777077,0.925000049292922,0.281608879566193,0.124311074614525,-0.449902266263962
0,0.0638888929140799,-0.308333341660331,0.947222222177272,-0.0125227374956012,-0.334143280982971,-0.489303052425385
0,0.0805555590452358,-0.301388906555989,0.95000000594378,-0.839328825473785,-0.933402121067047,-0.72906768321991
0,0.101388894748172,-0.286111120152123,0.925000049292922,-1.21714901924133,-1.28923106193543,-0.988990843296051
0,0.0750000036681839,-0.294444447139719,0.887500065692777,-1.06809782981873,-1.11269104480743,-1.258993268013
0,0.0944444474878658,-0.287500012035377,0.837500055143345,-0.74006325006485,-0.874453604221344,-1.22967171669006
0,0.12916666555545,-0.319444452414435,0.833333379493583,-0.156076073646545,-0.246484130620956,-0.84085601568222
0,0.130555557438704,-0.344444457689151,0.831944487610329,0.192727982997894,0.275194793939591,-0.242208063602448
0,0.113888891307548,-0.319444452414435,0.798611131036088,0.340251952409744,0.572991609573364,0.0583376325666905
0,0.123611110178398,-0.318055560531181,0.820833352544296,0.673784375190735,0.820086598396301,0.219606056809425
0,0.14722222356986,-0.341666673922643,0.831944487610329,0.960280179977417,0.902858853340149,0.515875697135925
0,0.12777778582816,-0.369444462963867,0.887500065692777,1.16583633422852,1.02991878986359,0.781602084636688
0,0.105555564319952,-0.388888900705567,1.00833336779274,1.40193569660187,1.33138084411621,1.01037108898163
0,0.0638888929140799,-0.411111122213775,1.05555559457566,1.38544237613678,1.4923437833786,1.24555420875549
0,0.0222222230277034,-0.377777789951463,1.07083340529146,0.929736912250519,1.29411804676056,1.09467053413391
0,0.0222222230277034,-0.377777789951463,1.07083340529146,0.554665625095367,1.11085844039917,0.791681349277496
0,-0.0597222233422998,-0.394444468238583,1.05555559457566,0.393091797828674,0.960891008377075,0.754418551921844
0,0.00277777787846293,-0.380555573717971,1.05833337834217,-0.183870434761047,-0.19028452038765,0.29046642780304
0,0.00277777787846293,-0.380555573717971,1.05833337834217,-0.687223374843597,-1.10383355617523,-0.0510072484612465
0,-0.0694444482911319,-0.462500024646461,1.03750000009336,-0.988379955291748,-1.49112200736999,-0.027488935738802
0,-0.0569444456537738,-0.486111138037923,1.03750000009336,-0.782823801040649,-1.43889307975769,0.312152147293091
0,-0.0569444456537738,-0.486111138037923,1.03750000009336,-0.801455199718475,-1.70523035526276,0.615446746349335
0,0.0763888894734557,-0.511111143312639,0.940277860008718,-1.17194497585297,-2.57510232925415,0.80481493473053
0,0.25555557165632,-0.476388894855144,0.844444514559616,-2.02624011039734,-3.01645255088806,0.99876469373703
0,0.25555557165632,-0.476388894855144,0.844444514559616,-2.37290596961975,-2.46361947059631,0.932485818862915
0,0.373611114301701,-0.466666700296224,0.899999995394348,-2.23057436943054,-2.74675559997559,0.455400049686432
0,0.400000011459671,-0.529166689171085,0.797222239152834,-2.43154907226563,-3.54546189308167,-0.0482583530247212
0,0.400000011459671,-0.529166689171085,0.797222239152834,-3.53446626663208,-3.38327717781067,-0.13225232064724
0,0.381944465601225,-0.577777807837263,0.719444488186035,-4.64532470703125,-2.48805403709412,0.157603234052658
0,0.481944462388161,-0.772222233878117,0.768055606852213,-4.444655418396,-3.24002933502197,-0.249233022332191
0,0.519444445988306,-0.77638890952788,0.66527780198684,-4.59187412261963,-3.29042553901672,-0.268780708312988
0,0.545833343146276,-0.808333374218867,0.538888932353864,-4.57446432113647,-3.22628474235535,-0.725097060203552
0,0.581944483487025,-0.795833347269579,0.490277813687686,-4.10409832000732,-3.62762331962585,-0.986852824687958
0,0.505555575779623,-0.879166714393253,0.343055565805897,-3.73085951805115,-3.16183853149414,-0.3378084897995
0,0.305555557893823,-0.751388904253164,0.280555576931036,-3.12029957771301,-2.20888876914978,0.213802829384804
0,0.488888921804431,-0.801388914802596,0.25555557165632,-2.2189679145813,-2.42605137825012,-0.635910749435425
0,0.641666688595378,-0.798611131036088,0.108333335930496,-2.51065611839294,-2.60198044776917,-1.24647057056427
0,0.587500002396184,-0.726388898978447,0.0125000003581147,-2.44193387031555,-2.45628905296326,-1.30877876281738
0,0.611111115787646,-0.793055563503071,0.0736111117849297,-1.70431399345398,-1.17408299446106,-0.720515549182892
0,0.545833343146276,-0.755555579902926,0.122222230451108,-1.04427409172058,-0.840245127677917,-0.602313160896301
0,0.594444461812454,-0.738888925927735,-0.0541666679652478,-1.68262827396393,-0.537561416625977,0.0161879286170006
0,0.669444477636603,-0.908333346693873,-0.122222230451108,-2.27852725982666,-0.328034639358521,0.920879364013672
0,0.651388931778157,-0.92083337364316,-0.106944444047242,-3.1557297706604,1.37963914871216,1.4523321390152
0,0.615277791437408,-0.715277812536273,-0.0666666706026059,-2.84205055236816,-0.0488692186772823,0.616057574748993
0,0.650000039894903,-0.527777797287831,0.0402777795226179,-1.26296389102936,-0.991434276103973,-0.92943149805069
0,0.591666678045946,-0.490277813687686,0.113888891307548,0.846964657306671,1.18324601650238,-2.45109677314758
0,0.600000029345471,-0.534722256704101,-0.0486111125881959,1.09314334392548,1.59130394458771,-2.43704700469971
0,0.700000001820477,-0.627777818386695,-0.234722242031366,0.451429426670075,0.323147714138031,-2.23485040664673
0,0.697222266677827,-0.5930555699292,-0.275000009398019,-0.722348153591156,-0.0360410511493683,-0.492968261241913
0,1.00555558402623,-0.797222239152834,-0.318055560531181,-0.839939713478088,-1.36986529827118,-0.494800835847855
0,1.04861113515939,-0.54722223502953,-0.208333344873396,-0.0613919571042061,-1.03388941287994,-1.83717727661133
0,0.858333336144441,-0.516666662221798,-0.162500009973726,0.659429013729095,-0.414777487516403,-2.66215062141419
0,0.673611153286365,-0.505555575779623,-0.190277786858986,1.07084679603577,0.107206851243973,-2.17437481880188
0,0.697222266677827,-0.561111153862072,-0.2194444556275,0.919352173805237,0.427911102771759,-1.34634697437286
0,0.870833363093728,-0.666666693870094,-0.275000009398019,0.245873257517815,0.654542088508606,-0.879645943641663
0,0.952777789710289,-0.543055559379768,-0.411111122213775,-0.908356606960297,0.333226978778839,-0.716850340366364
0,0.976388951725609,-0.545833343146276,-0.326388911830706,-0.48685958981514,0.405919969081879,-1.16797435283661
0,0.87500003874349,-0.500000008246606,-0.224999998848587,-0.297185927629471,0.0717766657471657,-1.40712809562683
0,0.773611125761372,-0.409722230330521,-0.386111116939059,-0.911105513572693,0.136222943663597,-1.88115954399109
0,0.884722281926269,-0.411111122213775,-0.313888909193348,-0.965472519397736,-0.0684169083833694,-2.17345857620239
0,0.956944465360051,-0.493055597454194,-0.251388896006557,-0.63438355922699,0.0968221426010132,-1.69270753860474
0,0.976388951725609,-0.519444445988306,-0.206944452990142,-0.109344877302647,0.185703039169311,-1.01281452178955
0,0.998611124609959,-0.433333343721983,-0.236111109602691,0.282830595970154,0.506407260894775,-0.899193644523621
0,0.894444525109048,-0.202777789496344,-0.176388892338373,0.304516315460205,1.48501336574554,-1.33046448230743
0,0.831944487610329,-0.256944463539574,-0.323611128064198,-0.0507018156349659,0.380569040775299,-1.50608825683594
0,0.940277860008718,-0.180555567988136,-0.265277790527169,0.0684169083833694,0.0684169083833694,-1.58611166477203
0,0.888888957576031,-0.223611131277262,-0.227777782615095,0.219606056809425,-0.280998021364212,-1.56686937808991
0,0.919444481759906,-0.184722231481934,-0.233333350148112,-0.225409269332886,0.0394008085131645,-1.78281021118164
0,0.993055557076942,-0.263888898643915,-0.180555567988136,-0.127365410327911,0.145996794104576,-2.18598127365112
0,0.994444448960196,-0.233333350148112,-0.212499996211229,-0.25961771607399,0.0800233483314514,-2.27089166641235
0,0.962500032893068,-0.226388890731841,-0.24583335278547,-0.401033043861389,0.114842668175697,-1.45508098602295
0,1.01805561097552,-0.179166676104882,-0.187500003092477,-0.013744467869401,-0.233961388468742,-0.635910749435425
0,0.975000059842355,-0.244444460902216,-0.226388890731841,0.00580321997404099,-0.479834645986557,0.520457208156586
0,1.09722225382557,-0.126388893944906,-0.350000000910239,-0.323453158140182,0.0436768643558025,-0.379347324371338
0,1.08472222687628,-0.115277783190802,-0.323611128064198,-0.328645497560501,0.0665843114256859,-0.0867428630590439
0,1.06250005399193,-0.0444444460554069,-0.305555557893823,-0.0226020142436027,0.473115146160126,-0.118202425539494
0,1.0513889189259,-0.055555559848502,-0.309722233543585,0.011606439948082,0.583070874214172,-0.156686931848526
0,1.00138890837647,-0.0597222233422998,-0.250000004123303,0.101403631269932,0.715017795562744,-0.280998021364212
0,1.0125000434425,-0.0722222259796579,-0.237500001485945,0.0867428630590439,0.58062744140625,-0.281303435564041
0,1.04861113515939,-0.0750000036681839,-0.2194444556275,0.120035022497177,0.421191573143005,-0.215635433793068
0,0.979166735492117,-0.0902777839940679,-0.20138889761309,0.0021380283869803,0.289855569601059,-0.131030589342117
0,0.959722249126559,-0.0986111170596459,-0.18333333959868,-0.235183119773865,0.281608879566193,-0.0910189226269722
0,1.03194452980806,-0.0375000018340919,-0.188888894975731,-0.147218525409698,0.215635433793068,0.113010071218014
0,1.04583335139288,-0.03194444645704,-0.202777789496344,-0.122173048555851,0.0140499006956816,0.54916787147522
0,1.01944450285877,-0.0444444460554069,-0.193055558469529,-0.0134390350431204,0.0778853222727776,0.549778699874878
0,0.940277860008718,-0.0805555590452358,-0.190277786858986,0.0314595587551594,0.0222965814173222,0.208915919065475
0,0.92083337364316,-0.130555557438704,-0.163888889701015,-0.0302378293126821,0.0345138870179653,0.117286130785942
0,0.895833319744586,-0.100000002864918,-0.106944444047242,0.166766211390495,0.384234249591827,0.117896988987923
0,1.00972225967599,-0.026388891079988,-0.161111118090472,-0.129808858036995,0.11636982858181,-0.857960224151611
0,1.06250005399193,-0.0819444448505077,-0.131944449321958,-0.0335975885391235,-0.0626136884093285,-0.467311918735504
0,1.03194452980806,-0.0763888894734557,-0.13750000469901,0.48685958981514,0.310930401086807,0.306043475866318
0,0.831944487610329,0.0194444453391775,-0.281944444502361,0.848186373710632,0.587957799434662,0.817337691783905
0,1.18194446420864,0.1194444466846,-0.304166666010569,0.561385154724121,1.01373088359833,0.328340083360672
0,1.0694445134082,0.00138888893923146,-0.184722231481934,0.19578230381012,0.782823801040649,0.388204872608185
0,1.10972228077486,0.0194444453391775,-0.12777778582816,0.196393176913261,1.15331363677978,0.52228981256485
0,0.990277773310434,-0.0625000010308258,-0.102777780553444,-0.0436768643558025,0.890030682086945,0.485637873411179
0,0.734722250277972,0.101388894748172,-0.0819444448505077,0.011606439948082,1.01800692081451,0.886060059070587
0,0.815277785011279,0.115277783190802,-0.0986111170596459,-0.525038659572601,2.026850938797,0.789543330669403
0,1.28750005284052,-0.75000001236991,-0.326388911830706,-0.291993588209152,2.59739899635315,-0.529009282588959
0,1.06527783775844,-0.20972223675665,0.029166668768514,0.127670839428902,2.23301792144775,-1.03022420406342
0,1.06666672964169,-0.176388892338373,-0.0569444456537738,-0.102930791676045,2.45537281036377,-0.820086598396301
0,1.25555563677339,-0.168055565350778,0.740277817810989,-0.135306656360626,1.40529549121857,-0.0470366254448891
0,1.04305556762637,-0.113888891307548,0.220833347510754,0.037568211555481,0.196393176913261,-0.0635299831628799
0,0.880555606276507,-0.0416666683668809,0.104166672436698,-0.0326812900602817,0.363159388303757,0.0891863256692886
0,0.927777833059431,-0.0916666697993398,0.161111118090472,-0.232128798961639,0.603534877300262,0.4331034719944
0,1.07222229717471,-0.150000007336368,0.2194444556275,-0.0983493030071259,0.328340083360672,0.35430184006691
0,1.07222229717471,-0.150000007336368,0.2194444556275,0.0400116741657257,0.0913243517279625,-0.0204639863222837
0,1.04027778385987,-0.154166670830166,0.17361112072783,0.0412334054708481,0.101709060370922,-0.218995183706284
0,0.976388951725609,-0.113888891307548,0.193055558469529,0.0149661982432008,0.0873537287116051,-0.288939267396927
0,0.976388951725609,-0.113888891307548,0.193055558469529,-0.0791070461273193,-0.0613919571042061,-0.203418120741844
0,1.03888889197661,-0.0958333393711199,0.17361112072783,-0.140499010682106,-0.13225232064724,-0.0992656052112579
0,1.04583335139288,-0.101388894748172,0.14722222356986,0.133779495954514,0.146302223205566,0.0348193198442459
0,1.04583335139288,-0.101388894748172,0.14722222356986,0.00916297826915979,0.288328409194946,0.0198531206697226
0,0.991666665193688,-0.0750000036681839,0.151388899219622,0.166155353188515,0.572991609573364,0.0965167060494423
0,0.976388951725609,-0.0694444482911319,0.20138889761309,0.139277279376984,0.635605275630951,0.0201585534960032
0,0.976388951725609,-0.0694444482911319,0.20138889761309,0.109955742955208,0.266642689704895,0.131030589342117
0,1.00694447590948,-0.102777780553444,0.223611131277262,0.0568104684352875,0.157297804951668,-0.00977384392172098
0,1.00000001649321,-0.104166672436698,0.206944452990142,-0.109955742955208,0.277943700551987,-0.226325571537018
0,1.00000001649321,-0.104166672436698,0.206944452990142,-0.292909890413284,0.196393176913261,-0.700967848300934
0,0.888888957576031,-0.116666675074056,0.222222239394008,-0.0134390350431204,0.00549778714776039,-0.996626675128937
0,0.831944487610329,-0.175000000455119,0.226388890731841,0.0128281703218818,0.19058994948864,-0.841772317886353
0,0.816666676894533,-0.111111119697004,0.211111128639904,0.00794124789535999,0.384539663791656,-0.248927593231201
0,1.09722225382557,-0.00555555575692586,0.262500006760661,-0.0250454749912024,0.293826192617416,0.106595985591412
0,1.02222228662528,0.0236111118719664,0.211111128639904,-0.0366519130766392,0.19058994948864,0.133168622851372
0,1.09166668629255,-0.026388891079988,0.237500001485945,-0.029626963660121,0.128281697630882,0.19028452038765
0,1.03472221632685,-0.027777779924251,0.251388896006557,0.0284052342176437,0.0729983970522881,0.167682513594627
0,1.01666671909226,-0.052777782159976,0.254166679773066,0.064446285367012,0.123700208961964,0.0244346093386412
0,0.911111130460381,-0.0513888902767219,0.250000004123303,0.0342084541916847,0.198836639523506,-0.0027488935738802
0,1.07222229717471,-0.0888888921108138,0.226388890731841,-0.0733038261532784,0.0965167060494423,-0.144775062799454
0,1.07777786470773,-0.052777782159976,0.256944463539574,0.00305432616733015,0.0516181141138077,-0.224187538027763
0,1.02777785415829,-0.030555557612777,0.234722242031366,0.0164933614432812,0.172263994812965,-0.078801617026329
0,1.01527782720901,-0.0250000007162294,0.238888893369199,0.0198531206697226,0.253814518451691,-0.00580321997404099
0,1.01527782720901,-0.0458333348996699,0.234722242031366,-0.0198531206697226,0.239153742790222,-0.0739146918058395
0,0.998611124609959,-0.0430555572111439,0.276388901281273,-0.0204639863222837,0.119118720293045,-0.0684169083833694
0,0.98888888142718,-0.030555557612777,0.284722228268869,-0.0106901414692402,-0.000916297896765172,-0.0384845100343227
0,1.00694447590948,-0.027777779924251,0.270833333748257,-0.00702495034784079,0.0662788823246956,0.0033597587607801
0,1.00972225967599,-0.03194444645704,0.259722222994153,-0.00305432616733015,0.130725160241127,0.00671951752156019
0,1.00000001649321,-0.0361111129898289,0.270833333748257,-0.000305432622553781,0.161268427968025,0.0171042270958424
0,0.99583334084345,-0.0472222237439329,0.277777793164528,-0.00183259579353034,0.156686931848526,0.0134390350431204
0,0.990277773310434,-0.0430555572111439,0.320833344297689,-0.0262672062963247,0.0690277740359306,-0.0186313893646002
0,1.01944450285877,-0.0347222241455659,0.333333346935047,0.0546724386513233,-0.0543670058250427,0.0345138870179653
0,0.998611124609959,-0.0347222241455659,0.318055560531181,0.0128281703218818,-0.159435823559761,0.0647517144680023
0,0.947222222177272,-0.030555557612777,0.283333336385615,-0.05283984541893,-0.325896620750427,0.0696386396884918
0,0.909722238577127,-0.029166668768514,0.266666682410424,-0.0827722400426865,-0.736092627048492,0.00885754637420177
0,0.95000000594378,-0.055555559848502,0.240277785252453,-0.199752941727638,-1.33382427692413,-0.0213802829384804
0,1.01944450285877,-0.055555559848502,0.322222236180943,-0.00855211354792118,-0.458148926496506,-0.109039448201656
0,1.10555560512509,-0.0416666683668809,0.211111128639904,0.318871647119522,0.714101493358612,0.00794124789535999
0,1.10555560512509,-0.0416666683668809,0.211111128639904,-0.0852157026529312,0.175929188728332,-0.0229074470698834
0,0.912500022343635,-0.0361111129898289,0.361111135976272,-0.0259617734700441,-0.148440256714821,-0.00549778714776039
0,0.954166681593543,-0.0458333348996699,0.320833344297689,0.0201585534960032,-0.136833816766739,-0.00580321997404099
0,0.970833384192592,-0.0486111125881959,0.290277795801886,-0.0122173046693206,-0.0757472887635231,-0.0146607663482428
0,1.00555558402623,-0.0513888902767219,0.25555557165632,-0.0543670058250427,-0.0494800843298435,-0.027488935738802
0,1.00000001649321,-0.0444444460554069,0.243055569018962,-0.0729983970522881,0.00763581553474069,-0.0397062413394451
0,1.00138890837647,-0.0416666683668809,0.243055569018962,-0.0809396430850029,0.0177150927484035,-0.0280998013913631
0,1.00416669214298,-0.0402777795226179,0.268055574293678,0.0161879286170006,0.0308486949652433,0.000916297896765172
0,1.00138890837647,-0.0402777795226179,0.269444466176932,-0.136528387665749,-0.113010071218014,-0.0131336031481624
0,0.993055557076942,-0.0583333375370279,0.231944458264858,0.11087204515934,0.0497855171561241,0.0470366254448891
0,0.984722303025134,-0.0500000014324589,0.301388906555989,0.00305432616733015,0.0277943685650826,0.0128281703218818
0,0.977777843608863,-0.0500000014324589,0.20972223675665,-0.0665843114256859,-0.0192422550171614,-0.000916297896765172
0,1.00000001649321,-0.0402777795226179,0.244444460902216,0.0784961804747581,0.0849102661013603,-0.0259617734700441
0,0.997222232726705,-0.0250000007162294,0.236111109602691,-0.126143679022789,-0.0885754600167274,-0.0415388382971287
0,0.99583334084345,-0.029166668768514,0.247222220356795,-0.0293215326964855,0.00580321997404099,-0.0219911485910416
0,1.00555558402623,-0.029166668768514,0.275000009398019,-0.0103847095742822,-0.0943786799907684,-0.0201585534960032
0,0.991666665193688,-0.0166666676506515,0.273611117514765,-0.0222965814173222,-0.121867619454861,-0.0345138870179653
0,0.983333411141879,-0.0152777788063885,0.287500012035377,-0.00183259579353034,-0.16371189057827,-0.0323758572340012
0,1.00694447590948,-0.0222222230277034,0.290277795801886,0.0513126812875271,-0.0998764708638191,-0.0277943685650826
0,1.05972227022542,-0.0361111129898289,0.250000004123303,0.0635299831628799,0.0568104684352875,-0.0241291765123606
0,1.10416671324184,-0.0486111125881959,0.156944454596674,-0.0345138870179653,0.302378296852112,-0.0995710343122482
0,1.03194452980806,-0.125000002061652,0.216666671860991,-0.211664810776711,0.324980318546295,-0.156076073646545
0,0.961111141009813,-0.0458333348996699,0.166666673467524,-0.219300627708435,0.151189148426056,-0.110261179506779
0,0.956944465360051,-0.033333335301303,0.184722231481934,-0.152410879731178,-0.181732416152954,-0.113620936870575
0,1.00972225967599,-0.030555557612777,0.283333336385615,-0.125227376818657,0.167377084493637,-0.0369573459029198
0,0.98888888142718,-0.0111111115138517,0.272222225631511,-0.01191187184304,0.172874867916107,-0.0400116741657257
0,0.998611124609959,-0.033333335301303,0.266666682410424,-0.164628177881241,0.166766211390495,-0.0549778714776039
0,0.965277816659576,-0.0236111118719664,0.304166666010569,0.078801617026329,0.0653625801205635,-0.0128281703218818
0,0.929166724942685,-0.00555555575692586,0.268055574293678,-0.0464257597923279,-0.141109868884087,0.015577063895762
0,0.977777843608863,-0.0236111118719664,0.238888893369199,-0.0784961804747581,-0.0503963828086853,-0.00366519158706069
0,1.00277780025972,-0.0444444460554069,0.295833339022973,-0.0623082555830479,-0.0482583530247212,-0.00702495034784079
0,0.993055557076942,-0.0430555572111439,0.286111120152123,-0.0207694191485643,-0.170125976204872,-0.00794124789535999
0,0.98888888142718,-0.0569444456537738,0.226388890731841,-0.0632245540618896,-0.139582708477974,-0.02382374368608
0,0.969444492309338,-0.0194444453391775,0.215277779977737,-0.105068825185299,-0.194866016507149,0.00671951752156019
0,1.00277780025972,-0.0180555564949145,0.208333344873396,-0.178678080439568,-0.118507854640484,0.02382374368608
0,1.01388893532575,-0.0388888906783549,0.238888893369199,-0.186924770474434,-0.03176499158144,0.00366519158706069
0,1.00555558402623,-0.0625000010308258,0.243055569018962,-0.178678080439568,-0.0284052342176437,-0.0164933614432812
0,0.98888888142718,-0.055555559848502,0.241666677135707,-0.22785273194313,-0.0507018156349659,-0.02382374368608
0,0.979166735492117,-0.0458333348996699,0.238888893369199,-0.266948103904724,-0.0812450796365738,-0.02382374368608
0,0.987499989543926,-0.0361111129898289,0.269444466176932,-0.175318330526352,-0.101403631269932,-0.0235183127224445
0,0.987499989543926,-0.0250000007162294,0.288888903918631,-0.0488692186772823,-0.144164204597473,-0.0143553335219622
0,1.00000001649321,-0.0152777788063885,0.276388901281273,0.0345138870179653,-0.197614908218384,0.0021380283869803
0,1.02361117850853,-0.0152777788063885,0.25555557165632,0.131336033344269,-0.147829383611679,0.0363464802503586
0,1.03888889197661,-0.0250000007162294,0.243055569018962,0.184175878763199,-0.090408056974411,0.0616973899304867
0,1.02638896227504,-0.0444444460554069,0.213888888094483,0.171347707509995,0.0219911485910416,0.0461203269660473
0,1.02222228662528,-0.0541666679652478,0.190277786858986,0.0406225398182869,0.184481307864189,0.00641408516094089
0,0.965277816659576,-0.0611111152255539,0.222222239394008,-0.0394008085131645,0.0543670058250427,-0.0271835029125214
0,0.986111194908388,-0.0375000018340919,0.243055569018962,0.0332921557128429,-0.00977384392172098,-0.0106901414692402
0,1.00000001649321,-0.029166668768514,0.238888893369199,-0.0128281703218818,0.0497855171561241,-0.019547687843442
0,1.00138890837647,-0.029166668768514,0.229166674498349,-0.0418442711234093,-0.0253509078174829,-0.0164933614432812
0,1.00138890837647,-0.029166668768514,0.229166674498349,-0.0390953756868839,-0.00733038317412138,-0.0122173046693206
0,1.01527782720901,-0.0250000007162294,0.24583335278547,0.000610865245107561,0.0595593601465225,-0.00122173049021512
0,1.01944450285877,-0.0347222241455659,0.236111109602691,0.0589484944939613,0.0659734457731247,0.00519235478714108
0,1.01944450285877,-0.0347222241455659,0.236111109602691,0.0824668109416962,0.0555887371301651,0.0125227374956012
0,1.00555558402623,-0.033333335301303,0.226388890731841,0.0678060427308083,0.0671951770782471,0.0021380283869803
0,0.983333411141879,-0.0361111129898289,0.216666671860991,0.0464257597923279,0.0479529201984406,-0.0021380283869803
0,0.983333411141879,-0.0361111129898289,0.216666671860991,0.00855211354792118,0.00916297826915979,-0.00519235478714108
0,0.994444448960196,-0.0388888906783549,0.212499996211229,-0.00824668072164059,0.0372627787292004,-0.0125227374956012
0,1.00138890837647,-0.0388888906783549,0.231944458264858,-0.00580321997404099,0.0592539273202419,-0.0109955742955208
0,1.00138890837647,-0.0388888906783549,0.231944458264858,0.00152716308366507,0.0387899428606033,-0.017409659922123
0,1.00277780025972,-0.03194444645704,0.230555566381603,-0.00519235478714108,0.00671951752156019,-0.00549778714776039
0,0.983333411141879,-0.0236111118719664,0.238888893369199,-0.00763581553474069,-0.0100792767480016,-0.000305432622553781
0,0.983333411141879,-0.0236111118719664,0.238888893369199,0.00946841109544039,-0.0280998013913631,0.00855211354792118
0,0.983333411141879,-0.0347222241455659,0.238888893369199,0.0623082555830479,-0.0369573459029198,0.0143553335219622
0,0.993055557076942,-0.0416666683668809,0.231944458264858,0.0949895456433296,-0.0421497002243996,0.0308486949652433
0,1.00694447590948,-0.0444444460554069,0.229166674498349,0.11087204515934,-0.0519235469400883,0.0348193198442459
0,1.00833336779274,-0.0472222237439329,0.216666671860991,0.096211276948452,-0.0357356183230877,0.0299323964864016
0,0.997222232726705,-0.0486111125881959,0.20972223675665,0.0568104684352875,-0.0210748501121998,0.03176499158144
0,0.987499989543926,-0.0569444456537738,0.223611131277262,0.0390953756868839,-0.03176499158144,0.0198531206697226
0,0.981944519258625,-0.0444444460554069,0.233333350148112,0.0387899428606033,-0.0839939713478088,0.0186313893646002
0,0.986111194908388,-0.0375000018340919,0.243055569018962,0.0201585534960032,-0.118507854640484,0.0262672062963247
0,0.994444448960196,-0.027777779924251,0.25555557165632,0.0284052342176437,-0.107512280344963,0.0259617734700441
0,1.00138890837647,-0.0194444453391775,0.244444460902216,0.0558941699564457,-0.107206851243973,0.0247400421649218
0,1.00972225967599,-0.026388891079988,0.227777782615095,0.0629191175103188,-0.109955742955208,0.0280998013913631
0,1.00138890837647,-0.0388888906783549,0.2194444556275,0.0623082555830479,-0.117896988987923,0.0427605658769607
0,0.991666665193688,-0.0444444460554069,0.208333344873396,0.0494800843298435,-0.132557764649391,0.0448985956609249
0,0.99583334084345,-0.0388888906783549,0.2194444556275,0.0561996027827263,-0.155770644545555,0.0473420582711697
0,1.00000001649321,-0.0430555572111439,0.223611131277262,0.0723875313997269,-0.188757359981537,0.0519235469400883
0,0.99583334084345,-0.0541666679652478,0.20972223675665,0.0589484944939613,-0.197309479117393,0.0479529201984406
0,0.99583334084345,-0.0472222237439329,0.208333344873396,0.021685715764761,-0.191811680793762,0.0421497002243996
0,1.00833336779274,-0.0458333348996699,0.215277779977737,0.0210748501121998,-0.171347707509995,0.0366519130766392
0,1.0125000434425,-0.0402777795226179,0.20138889761309,0.0241291765123606,-0.172263994812965,0.0427605658769607
0,1.01805561097552,-0.0361111129898289,0.204166669223633,0.0109955742955208,-0.157908663153648,0.0403171069920063
0,1.02222228662528,-0.0388888906783549,0.184722231481934,0.0161879286170006,-0.143553331494331,0.0418442711234093
0,1.01666671909226,-0.0361111129898289,0.181944447715425,0.0241291765123606,-0.151494577527046,0.0354301854968071
0,1.00555558402623,-0.03194444645704,0.188888894975731,0.0302378293126821,-0.151494577527046,0.0439822971820831
0,1.00138890837647,-0.026388891079988,0.187500003092477,0.0314595587551594,-0.140804439783096,0.0320704244077206
0,1.00555558402623,-0.029166668768514,0.20138889761309,-0.0222965814173222,-0.0665843114256859,0.00397062394768
0,1.02777785415829,-0.0486111125881959,0.200000005729836,0.0033597587607801,-0.0775798857212067,-0.0290160998702049
0,1.03750000009336,-0.0513888902767219,0.168055565350778,-0.0033597587607801,-0.148745685815811,-0.0241291765123606
0,1.00138890837647,-0.0472222237439329,0.148611115453114,-0.0913243517279625,-0.254425376653671,-0.00794124789535999
0,0.930555616825939,-0.03194444645704,0.163888889701015,-0.129503428936005,-0.325591176748276,0.0143553335219622
0,0.895833319744586,-0.0347222241455659,0.205555561106887,-0.152716308832169,-0.482583552598953,0.0668897479772568
0,0.934722292475701,-0.0375000018340919,0.2194444556275,-0.118507854640484,-0.585819780826569,0.102014496922493
0,0.993055557076942,-0.0458333348996699,0.205555561106887,-0.0623082555830479,-0.594677329063416,0.113926365971565
0,1.02083339474202,-0.0416666683668809,0.170833336961321,-0.0934623852372169,-0.580932855606079,0.0882700309157372
0,1.03750000009336,-0.030555557612777,0.12916666555545,-0.148745685815811,-0.537866830825806,0.0610865242779255
0,1.06111116210868,-0.026388891079988,0.102777780553444,-0.224798411130905,-0.471587955951691,0.0113010071218014
0,1.05833337834217,-0.00833333382532574,0.0902777839940679,-0.258090555667877,-0.368046313524246,0.00488692196086049
0,1.05833337834217,0.00972222266958873,0.0944444474878658,-0.30207285284996,-0.255647093057633,0.00794124789535999
0,1.04583335139288,0.0152777788063885,0.111111119697004,-0.334143280982971,-0.193338856101036,0.0305432621389627
0,1.0333333244436,0.00833333382532574,0.111111119697004,-0.300851136445999,-0.204945296049118,0.0595593601465225
0,1.0361111082101,-0.00277777787846293,0.0847222225390337,-0.268780708312988,-0.218689754605293,0.0723875313997269
0,1.05416670269241,-0.0250000007162294,0.0638888929140799,-0.246789559721947,-0.19578230381012,0.0507018156349659
0,1.08472222687628,-0.0611111152255539,0.0569444456537738,-0.259312301874161,-0.0943786799907684,0.0198531206697226
0,1.08472222687628,-0.0777777813567098,0.055555559848502,-0.289244681596756,0.0247400421649218,-0.0134390350431204
0,1.06388894587519,-0.0722222259796579,0.0597222233422998,-0.316733628511429,0.110566608607769,-0.04764748737216
0,1.02916674604155,-0.055555559848502,0.0722222259796579,-0.32284227013588,0.15332718193531,-0.0565050356090069
0,1.00277780025972,-0.0458333348996699,0.0958333393711199,-0.308486938476563,0.136222943663597,-0.037568211555481
0,0.997222232726705,-0.0347222241455659,0.104166672436698,-0.272445887327194,0.0684169083833694,-0.0299323964864016
0,1.01527782720901,-0.0375000018340919,0.10972222781375,-0.251371055841446,0.0241291765123606,-0.0198531206697226
0,1.0305556379248,-0.03194444645704,0.10972222781375,-0.201585531234741,0.0299323964864016,-0.0122173046693206
0,1.06250005399193,-0.0347222241455659,0.0694444482911319,-0.16371189057827,0.0723875313997269,-0.0268780700862408
0,1.06527783775844,-0.0583333375370279,0.0583333375370279,-0.151189148426056,0.154243469238281,-0.0351247526705265
0,1.06111116210868,-0.0722222259796579,0.0541666679652478,-0.161879286170006,0.210137650370598,-0.0213802829384804
0,1.03194452980806,-0.0972222251763917,0.0611111152255539,-0.141415297985077,0.196087747812271,-0.029626963660121
0,1.02222228662528,-0.104166672436698,0.0652777787193518,-0.103236228227615,0.143858760595322,-0.0152716310694814
0,0.991666665193688,-0.140277788465518,0.0625000010308258,-0.0418442711234093,0.0858265683054924,0.0131336031481624
0,0.979166735492117,-0.168055565350778,0.0875000002275597,0.0186313893646002,0.0418442711234093,0.0335975885391235
0,0.973611167959101,-0.170833336961321,0.101388894748172,0.0467311926186085,0.0580321997404099,0.0339030213654041
0,0.980555627375371,-0.161111118090472,0.151388899219622,0.08460483700037,0.0445931628346443,0.00946841109544039
0,0.986111194908388,-0.150000007336368,0.16527778158427,0.0421497002243996,0.04764748737216,-0.0314595587551594
0,1.00277780025972,-0.125000002061652,0.190277786858986,-0.0293215326964855,0.0748309940099716,-0.0855211317539215
0,1.02083339474202,-0.105555564319952,0.187500003092477,-0.096211276948452,0.0464257597923279,-0.133474051952362
0,1.04583335139288,-0.0833333367337618,0.168055565350778,-0.143553331494331,0.0360410511493683,-0.158214092254639
0,1.04166667574312,-0.0708333340964038,0.14722222356986,-0.1795943826437,0.0427605658769607,-0.167377084493637
0,1.02222228662528,-0.0805555590452358,0.125000002061652,-0.16371189057827,0.0256563406437635,-0.0998764708638191
0,1.01944450285877,-0.0861111144222878,0.111111119697004,-0.149356558918953,0.0329867228865623,-0.0513126812875271
0,1.02500007039179,-0.0902777839940679,0.105555564319952,-0.123700208961964,0.0534507073462009,-0.0326812900602817
0,1.01944450285877,-0.0944444474878658,0.0902777839940679,-0.0210748501121998,0.0458148941397667,-0.0164933614432812
0,0.991666665193688,-0.140277788465518,0.0875000002275597,0.608727216720581,-0.112399205565453,-0.00671951752156019
0,1.0125000434425,-0.133333341205212,0.0680555564078778,1.01953411102295,-0.190895393490791,0.0320704244077206
0,1.05694448645892,-0.1194444466846,0.0458333348996699,1.09833574295044,-0.226020142436027,0.0748309940099716
0,1.1083333888916,-0.130555557438704,0.0236111118719664,0.263893783092499,0.149661988019943,0.0152716310694814
0,1.07222229717471,-0.0902777839940679,0.0652777787193518,-0.122783914208412,0.320398807525635,-0.101709060370922
0,1.02777785415829,-0.055555559848502,0.0902777839940679,-0.23243422806263,0.347276896238327,-0.172874867916107
0,0.997222232726705,-0.030555557612777,0.111111119697004,-0.122783914208412,0.290771842002869,-0.159130394458771
0,0.979166735492117,-0.0111111115138517,0.10972222781375,-0.0167987942695618,0.193338856101036,-0.102319926023483
0,0.973611167959101,0.00555555575692586,0.111111119697004,0.0632245540618896,0.148745685815811,-0.0397062413394451
0,0.986111194908388,0.0125000003581147,0.108333335930496,0.133779495954514,0.117286130785942,0.01588249579072
0,0.98888888142718,0.00555555575692586,0.120833338567854,0.178678080439568,0.0751364231109619,0.0326812900602817
0,0.98888888142718,0.00138888893923146,0.116666675074056,0.22724187374115,0.0427605658769607,0.0253509078174829
0,0.962500032893068,-0.0236111118719664,0.108333335930496,0.249538451433182,0.000610865245107561,0.0131336031481624
0,0.955555573476797,-0.0500000014324589,0.0847222225390337,0.212275668978691,-0.0543670058250427,0.0265726372599602
0,0.954166681593543,-0.0541666679652478,0.0777777813567098,0.146913096308708,-0.0977384373545647,0.0360410511493683
5,0.954166681593543,-0.0541666679652478,0.0777777813567098,0.0592539273202419,-0.175929188728332,0.0626136884093285
5,1.02638896227504,-0.0652777787193518,0.0680555564078778,-0.0131336031481624,-0.273973047733307,0.0757472887635231
5,1.10277782135859,-0.0458333348996699,0.0777777813567098,-0.104152522981167,-0.332310706377029,0.0647517144680023
5,1.10277782135859,-0.0458333348996699,0.0777777813567098,-0.182037845253944,-0.244040668010712,0.029626963660121
5,1.17361111290911,0.0152777788063885,0.0625000010308258,-0.256563395261765,-0.0812450796365738,-0.0232128798961639
5,1.14027780495873,0.0152777788063885,0.0777777813567098,-0.410501450300217,0.208305045962334,-0.11636982858181
5,1.14027780495873,0.0152777788063885,0.0777777813567098,-0.396451532840729,0.393091797828674,-0.147829383611679
5,1.00555558402623,0.00833333382532574,0.126388893944906,-0.487470477819443,0.475253164768219,-0.0983493030071259
5,0.930555616825939,-0.00972222266958873,0.197222234119292,-0.316733628511429,0.420886158943176,-0.100792765617371
5,0.930555616825939,-0.00972222266958873,0.197222234119292,-0.127976268529892,0.140193566679955,-0.0192422550171614
5,0.952777789710289,-0.0222222230277034,0.220833347510754,-0.13225232064724,0.00122173049021512,-0.0207694191485643
5,1.02500007039179,-0.0166666676506515,0.163888889701015,-0.0302378293126821,0.119729585945606,-0.0128281703218818
5,1.02500007039179,-0.0166666676506515,0.163888889701015,-0.00916297826915979,0.141109868884087,-0.0265726372599602
5,1.01111115155925,-0.00694444498106275,0.14722222356986,-0.0711658000946045,0.129197999835014,-0.0461203269660473
5,1.00972225967599,-0.00694444498106275,0.136111112815755,-0.115453533828259,0.124005645513535,-0.0647517144680023
5,1.02777785415829,-0.0250000007162294,0.156944454596674,-0.137750118970871,0.135001212358475,-0.0998764708638191
5,1.0333333244436,-0.029166668768514,0.138888896582264,-0.125838235020638,0.137750118970871,-0.0888808965682983
5,1.00277780025972,-0.0194444453391775,0.154166670830166,-0.0913243517279625,0.0858265683054924,-0.0513126812875271
5,0.986111194908388,-0.0138888899621255,0.17361112072783,-0.0455094613134861,0.0161879286170006,-0.0250454749912024
5,0.986111194908388,-0.0152777788063885,0.17361112072783,0.0852157026529312,-0.0836885422468185,0.0210748501121998
5,0.997222232726705,-0.0180555564949145,0.180555567988136,0.276111096143722,-0.186313897371292,0.0729983970522881
5,1.02916674604155,-0.0208333341834404,0.161111118090472,0.459676086902618,-0.141415297985077,0.0849102661013603
5,1.07083340529146,-0.0388888906783549,0.10972222781375,0.30146199464798,0.125227376818657,0.0345138870179653
5,1.06805562152495,-0.0472222237439329,0.0986111170596459,0.00946841109544039,0.373849540948868,-0.0232128798961639
5,1.0361111082101,-0.0402777795226179,0.143055560076062,-0.0604756586253643,0.367740869522095,-0.0571159012615681
5,0.99583334084345,-0.0416666683668809,0.170833336961321,-0.0171042270958424,0.308181524276733,-0.064446285367012
5,0.981944519258625,-0.033333335301303,0.197222234119292,0.0482583530247212,0.197920337319374,-0.0656680166721344
5,0.975000059842355,-0.0236111118719664,0.197222234119292,0.0708603709936142,0.100792765617371,-0.0577267669141293
5,0.976388951725609,0.029166668768514,0.188888894975731,0.0650571510195732,0.0684169083833694,-0.0320704244077206
5,0.983333411141879,0.0430555572111439,0.204166669223633,0.0772744566202164,0.0232128798961639,0.000916297896765172
5,0.973611167959101,0.0583333375370279,0.202777789496344,0.0488692186772823,-0.0812450796365738,0.0442877300083637
5,0.980555627375371,0.0388888906783549,0.19166667874224,0.0143553335219622,-0.149356558918953,0.0580321997404099
5,0.98888888142718,0.0236111118719664,0.177777784221628,-0.037568211555481,-0.18509216606617,0.0940732508897781
5,1.00972225967599,0.00277777787846293,0.170833336961321,-0.0604756586253643,-0.178067222237587,0.0894917547702789
5,1.0513889189259,-0.0250000007162294,0.143055560076062,-0.149051114916802,-0.101709060370922,0.0803287774324417
5,1.06111116210868,-0.0388888906783549,0.130555557438704,-0.212886542081833,0.00977384392172098,0.0552833043038845
5,1.05416670269241,-0.0416666683668809,0.108333335930496,-0.213191971182823,0.112704634666443,0.0345138870179653
5,1.02638896227504,-0.0416666683668809,0.104166672436698,-0.207694187760353,0.135306656360626,0.0103847095742822
5,0.99583334084345,-0.0402777795226179,0.12777778582816,-0.162490159273148,0.0861319974064827,-0.013744467869401
5,0.986111194908388,-0.029166668768514,0.168055565350778,-0.0803287774324417,0.00641408516094089,-0.0113010071218014
5,0.984722303025134,-0.026388891079988,0.170833336961321,-0.00916297826915979,-0.0537561401724815,-0.00671951752156019
5,0.991666665193688,-0.026388891079988,0.161111118090472,0.0494800843298435,-0.0656680166721344,-0.0164933614432812
5,1.00416669214298,-0.029166668768514,0.163888889701015,0.0299323964864016,-0.0629191175103188,-0.0280998013913631
5,1.01527782720901,-0.026388891079988,0.170833336961321,0.00549778714776039,-0.0390953756868839,-0.015577063895762
5,1.01944450285877,-0.0250000007162294,0.16527778158427,0.0021380283869803,-0.01588249579072,-0.00580321997404099
5,1.02222228662528,-0.0138888899621255,0.175000000455119,0.0045814891345799,-0.00397062394768,-0.000916297896765172
5,1.02500007039179,-0.00555555575692586,0.166666673467524,-0.0256563406437635,-0.0113010071218014,-0.017409659922123
5,1.04027778385987,-0.0125000003581147,0.151388899219622,-0.0543670058250427,-0.0113010071218014,-0.0213802829384804
5,1.03888889197661,-0.0236111118719664,0.144444451959316,-0.096211276948452,0.0171042270958424,-0.0335975885391235
5,1.02222228662528,-0.0347222241455659,0.150000007336368,-0.117591559886932,0.0381790772080422,-0.027488935738802
5,1.00000001649321,-0.0375000018340919,0.163888889701015,-0.114842668175697,0.0213802829384804,-0.0134390350431204
5,0.991666665193688,-0.0375000018340919,0.186111123365188,-0.0977384373545647,-0.0366519130766392,0.00122173049021512
5,1.00555558402623,-0.0430555572111439,0.176388892338373,-0.0778853222727776,-0.0604756586253643,0.00549778714776039
5,1.01527782720901,-0.0458333348996699,0.163888889701015,-0.0729983970522881,-0.0372627787292004,-0.00885754637420177
5,1.00972225967599,-0.052777782159976,0.166666673467524,-0.0925460830330849,0.0122173046693206,-0.0146607663482428
5,1.00416669214298,-0.0472222237439329,0.163888889701015,-0.0714712366461754,0.0146607663482428,-0.0207694191485643
5,1.01111115155925,-0.0472222237439329,0.158333334323963,-0.0507018156349659,0.0189368221908808,-0.0149661982432008
5,1.01944450285877,-0.0430555572111439,0.150000007336368,-0.0363464802503586,0.04764748737216,-0.0021380283869803
5,1.01944450285877,-0.0416666683668809,0.154166670830166,-0.0164933614432812,0.0439822971820831,-0.0109955742955208
5,1.01527782720901,-0.0458333348996699,0.156944454596674,-0.00305432616733015,0.0516181141138077,-0.00733038317412138
5,1.00972225967599,-0.0416666683668809,0.158333334323963,0.00610865233466029,0.0372627787292004,-0.0131336031481624
5,0.998611124609959,-0.0388888906783549,0.175000000455119,0.00244346098043024,0.000610865245107561,-0.00549778714776039
5,0.990277773310434,-0.0361111129898289,0.190277786858986,0.00977384392172098,-0.0461203269660473,-0.0027488935738802
5,0.994444448960196,-0.030555557612777,0.186111123365188,0.0222965814173222,-0.0836885422468185,0.00122173049021512
5,0.997222232726705,-0.029166668768514,0.179166676104882,0.0164933614432812,-0.0943786799907684,0.00183259579353034
5,1.00555558402623,-0.03194444645704,0.161111118090472,-0.00519235478714108,-0.0946841165423393,-0.00916297826915979
5,1.0125000434425,-0.033333335301303,0.163888889701015,-0.0113010071218014,-0.0815505087375641,-0.0329867228865623
5,1.01527782720901,-0.0388888906783549,0.162500009973726,0.0164933614432812,-0.0815505087375641,-0.0186313893646002
5,1.02500007039179,-0.0402777795226179,0.159722226207217,0.0436768643558025,-0.0867428630590439,-0.00305432616733015
5,1.03888889197661,-0.0375000018340919,0.156944454596674,0.0983493030071259,-0.0714712366461754,0.0293215326964855
5,1.03750000009336,-0.0430555572111439,0.143055560076062,0.121867619454861,-0.0235183127224445,0.0400116741657257
5,1.02777785415829,-0.0444444460554069,0.140277788465518,0.126143679022789,-0.000610865245107561,0.0458148941397667
5,1.01944450285877,-0.0513888902767219,0.144444451959316,0.117286130785942,0.00580321997404099,0.0415388382971287
5,1.00694447590948,-0.0486111125881959,0.152777778946911,0.113010071218014,-0.00671951752156019,0.0357356183230877
5,1.00000001649321,-0.0361111129898289,0.166666673467524,0.118813291192055,-0.0265726372599602,0.0427605658769607
5,0.99583334084345,-0.026388891079988,0.169444445078067,0.12156218290329,-0.0458148941397667,0.0455094613134861
5,1.00972225967599,-0.0125000003581147,0.159722226207217,0.113926365971565,-0.0583376325666905,0.0543670058250427
5,1.01111115155925,-0.0166666676506515,0.150000007336368,0.112399205565453,-0.0595593601465225,0.0610865242779255
5,1.02222228662528,-0.0180555564949145,0.162500009973726,0.0986547395586967,-0.0684169083833694,0.0491746515035629
5,1.01805561097552,-0.0250000007162294,0.162500009973726,0.0791070461273193,-0.0525344125926495,0.0442877300083637
5,1.01944450285877,-0.029166668768514,0.154166670830166,0.0629191175103188,-0.0546724386513233,0.0253509078174829
5,1.01944450285877,-0.0375000018340919,0.148611115453114,0.0620028227567673,-0.0598647929728031,0.0244346093386412
5,1.01805561097552,-0.030555557612777,0.154166670830166,0.0488692186772823,-0.064446285367012,0.01191187184304
5,1.01944450285877,-0.029166668768514,0.14722222356986,0.0452040284872055,-0.0583376325666905,0.00702495034784079
5,1.01805561097552,-0.03194444645704,0.140277788465518,0.0384845100343227,-0.04764748737216,0.00519235478714108
5,1.01805561097552,-0.03194444645704,0.144444451959316,0.0287106670439243,-0.0503963828086853,0.00122173049021512
5,1.00555558402623,-0.027777779924251,0.143055560076062,0.0302378293126821,-0.0513126812875271,0.00855211354792118
5,1.0125000434425,-0.03194444645704,0.141666668192807,0.0265726372599602,-0.0525344125926495,0.00794124789535999
5,1.01527782720901,-0.03194444645704,0.13750000469901,0.0213802829384804,-0.0510072484612465,0.013744467869401
5,1.02222228662528,-0.0402777795226179,0.134722233088466,0.0222965814173222,-0.0442877300083637,0.015577063895762
5,1.02222228662528,-0.0416666683668809,0.133333341205212,0.0329867228865623,-0.0448985956609249,0.0219911485910416
5,1.02222228662528,-0.0416666683668809,0.133333341205212,0.0378736443817616,-0.0329867228865623,0.019547687843442
5,1.02916674604155,-0.0347222241455659,0.126388893944906,0.0241291765123606,-0.0128281703218818,0.0143553335219622
5,1.02638896227504,-0.0361111129898289,0.120833338567854,0.0229074470698834,0.00580321997404099,0.0146607663482428
5,1.02638896227504,-0.0361111129898289,0.120833338567854,0.0143553335219622,0.01191187184304,0.00305432616733015
5,1.01944450285877,-0.0361111129898289,0.136111112815755,0.0167987942695618,0.0397062413394451,0.00366519158706069
5,1.01388893532575,-0.0361111129898289,0.131944449321958,0.0256563406437635,0.0308486949652433,-0.000305432622553781
5,1.01388893532575,-0.0361111129898289,0.131944449321958,0.027488935738802,0.029626963660121,0.021685715764761
5,1.01388893532575,-0.0361111129898289,0.130555557438704,0.015577063895762,0.0384845100343227,0.0149661982432008
5,1.01527782720901,-0.0361111129898289,0.138888896582264,0.0033597587607801,0.0394008085131645,0.00763581553474069
5,1.01527782720901,-0.0361111129898289,0.138888896582264,0.000916297896765172,0.0232128798961639,0.00794124789535999
5,1.0125000434425,-0.033333335301303,0.148611115453114,0.0207694191485643,0.0045814891345799,0.00885754637420177
5,1.01944450285877,-0.030555557612777,0.13750000469901,0.0201585534960032,-0.00763581553474069,0.01191187184304
5,1.01944450285877,-0.030555557612777,0.13750000469901,0.0241291765123606,-0.00580321997404099,0.00885754637420177
5,1.01944450285877,-0.029166668768514,0.140277788465518,0.00580321997404099,0.00824668072164059,-0.00946841109544039
5,1.01944450285877,-0.0361111129898289,0.134722233088466,-0.00427605677396059,0.00702495034784079,-0.0134390350431204
5,1.01944450285877,-0.0361111129898289,0.133333341205212,-0.0125227374956012,0.0164933614432812,0.000305432622553781
5,1.0125000434425,-0.030555557612777,0.131944449321958,-0.0128281703218818,0.0113010071218014,-0.00305432616733015
5,1.0125000434425,-0.029166668768514,0.133333341205212,-0.0134390350431204,0.00977384392172098,-0.00427605677396059
5,1.01527782720901,-0.03194444645704,0.134722233088466,-0.0027488935738802,-0.00702495034784079,0.00824668072164059
5,1.01805561097552,-0.03194444645704,0.144444451959316,-0.00488692196086049,-0.00183259579353034,-0.00183259579353034
5,1.01666671909226,-0.029166668768514,0.13750000469901,-0.0109955742955208,0.0021380283869803,-0.00763581553474069
5,1.01527782720901,-0.0347222241455659,0.143055560076062,-0.0171042270958424,0.0045814891345799,0.000610865245107561
5,1.01527782720901,-0.0375000018340919,0.14583334384257,-0.015577063895762,0.00733038317412138,-0.00183259579353034
5,1.01944450285877,-0.03194444645704,0.150000007336368,-0.0152716310694814,0.00855211354792118,-0.00397062394768
5,1.01944450285877,-0.029166668768514,0.140277788465518,-0.0103847095742822,0.00885754637420177,-0.00580321997404099
5,1.02083339474202,-0.033333335301303,0.13750000469901,-0.00427605677396059,0.00977384392172098,-0.00610865233466029
5,1.01527782720901,-0.0347222241455659,0.141666668192807,-0.0027488935738802,0.011606439948082,-0.000916297896765172
5,1.01666671909226,-0.0347222241455659,0.141666668192807,-0.0106901414692402,0.0122173046693206,-0.00855211354792118
5,1.01666671909226,-0.0347222241455659,0.14583334384257,-0.011606439948082,0.0045814891345799,-0.00366519158706069
5,1.01527782720901,-0.027777779924251,0.140277788465518,-0.0033597587607801,-0.000916297896765172,0.00183259579353034
5,1.01527782720901,-0.03194444645704,0.144444451959316,-0.00366519158706069,0.00122173049021512,-0.00427605677396059
5,1.01805561097552,-0.03194444645704,0.14722222356986,-0.00488692196086049,0.00519235478714108,0.00305432616733015
5,1.01944450285877,-0.03194444645704,0.14583334384257,-0.00152716308366507,0.00824668072164059,-0.00427605677396059
5,1.01944450285877,-0.033333335301303,0.14583334384257,-0.00183259579353034,0.00519235478714108,0.00519235478714108
5,1.01805561097552,-0.03194444645704,0.150000007336368,-0.0033597587607801,0.00122173049021512,-0.0033597587607801
5,1.01944450285877,-0.030555557612777,0.144444451959316,0.00671951752156019,0.0027488935738802,0.000305432622553781
5,1.01666671909226,-0.0347222241455659,0.13750000469901,0.00916297826915979,0.00824668072164059,0.00244346098043024
5,1.02222228662528,-0.0347222241455659,0.136111112815755,0.0134390350431204,0.0131336031481624,0.00152716308366507
5,1.02222228662528,-0.0361111129898289,0.133333341205212,0.01191187184304,0.0146607663482428,-0.00397062394768
5,1.01666671909226,-0.0361111129898289,0.141666668192807,0.019547687843442,0.01588249579072,0.00397062394768
5,1.01388893532575,-0.033333335301303,0.136111112815755,0.0256563406437635,0.011606439948082,0.00244346098043024
5,1.0125000434425,-0.0347222241455659,0.144444451959316,0.0229074470698834,0.00702495034784079,0.000610865245107561
5,1.01527782720901,-0.03194444645704,0.138888896582264,0.03176499158144,0.00641408516094089,0.0045814891345799
5,1.01527782720901,-0.0347222241455659,0.144444451959316,0.021685715764761,-0.00366519158706069,0.00671951752156019
5,1.01666671909226,-0.0388888906783549,0.123611110178398,0.021685715764761,0.00244346098043024,0.00427605677396059
5,1.01944450285877,-0.03194444645704,0.13750000469901,0.0226020142436027,0.00855211354792118,0.00702495034784079
5,1.01388893532575,-0.030555557612777,0.140277788465518,0.0222965814173222,0.00977384392172098,0.00397062394768
5,1.0125000434425,-0.03194444645704,0.143055560076062,0.0229074470698834,-0.0033597587607801,0.011606439948082
5,1.01527782720901,-0.030555557612777,0.14722222356986,0.019547687843442,-0.00916297826915979,0.0143553335219622
5,1.01388893532575,-0.0375000018340919,0.15555556271342,0.017409659922123,-0.0152716310694814,0.01191187184304
5,1.01527782720901,-0.030555557612777,0.144444451959316,0.0140499006956816,-0.00580321997404099,0.013744467869401
5,1.01527782720901,-0.0250000007162294,0.140277788465518,0.00671951752156019,-0.0021380283869803,0.011606439948082
5,1.01805561097552,-0.030555557612777,0.141666668192807,0.00977384392172098,-0.000305432622553781,0.00671951752156019
5,1.02222228662528,-0.030555557612777,0.150000007336368,0.0106901414692402,0.0045814891345799,0.0100792767480016
5,1.02083339474202,-0.029166668768514,0.14583334384257,0.0100792767480016,0.00488692196086049,0.0045814891345799
5,1.02222228662528,-0.03194444645704,0.141666668192807,0.00244346098043024,0.00549778714776039,0.00824668072164059
5,1.02222228662528,-0.030555557612777,0.144444451959316,0.00702495034784079,0.00855211354792118,0.00152716308366507
5,1.02222228662528,-0.03194444645704,0.140277788465518,0.0143553335219622,0.0210748501121998,-0.00152716308366507
5,1.02083339474202,-0.03194444645704,0.140277788465518,0.00641408516094089,0.0198531206697226,-0.00305432616733015
5,1.01666671909226,-0.033333335301303,0.140277788465518,-0.000610865245107561,0.00977384392172098,-0.00855211354792118
5,1.01527782720901,-0.029166668768514,0.143055560076062,-0.00122173049021512,0.0109955742955208,-0.00946841109544039
5,1.01527782720901,-0.0347222241455659,0.140277788465518,0.000610865245107561,0.000916297896765172,-0.0131336031481624
5,1.01805561097552,-0.03194444645704,0.150000007336368,0.00152716308366507,-0.00519235478714108,-0.00580321997404099
5,1.01805561097552,-0.03194444645704,0.150000007336368,0.0128281703218818,-0.015577063895762,-0.00427605677396059
5,1.02083339474202,-0.026388891079988,0.144444451959316,0.0226020142436027,-0.0171042270958424,-0.00183259579353034
5,1.02361117850853,-0.0347222241455659,0.144444451959316,0.0113010071218014,-0.00183259579353034,0.00946841109544039
5,1.01944450285877,-0.0361111129898289,0.13750000469901,0.0045814891345799,0.00488692196086049,-0.00305432616733015
5,1.01388893532575,-0.0375000018340919,0.144444451959316,-0.00244346098043024,0.00580321997404099,-0.00519235478714108
5,1.01805561097552,-0.0361111129898289,0.144444451959316,0.00855211354792118,-0.01191187184304,-0.000305432622553781
5,1.02361117850853,-0.0375000018340919,0.150000007336368,0.0143553335219622,0.00610865233466029,0.00427605677396059
5,1.02916674604155,-0.0347222241455659,0.13750000469901,0.00122173049021512,0.0308486949652433,-0.0128281703218818
5,1.02222228662528,-0.0361111129898289,0.134722233088466,-0.0326812900602817,0.0418442711234093,-0.0152716310694814
5,1.0125000434425,-0.033333335301303,0.130555557438704,-0.0430659987032413,0.0613919571042061,-0.027488935738802
5,1.0125000434425,-0.033333335301303,0.14583334384257,-0.0412334054708481,0.0470366254448891,-0.0161879286170006
5,1.01527782720901,-0.029166668768514,0.15555556271342,-0.0326812900602817,0.037568211555481,-0.015577063895762
5,1.01666671909226,-0.030555557612777,0.150000007336368,-0.0128281703218818,0.0222965814173222,-0.00855211354792118
5,1.01944450285877,-0.0375000018340919,0.144444451959316,-0.0106901414692402,0.00733038317412138,-0.00122173049021512
5,1.01111115155925,-0.0375000018340919,0.144444451959316,-0.00580321997404099,0.00610865233466029,-0.00641408516094089
5,1.01111115155925,-0.0375000018340919,0.144444451959316,0.0152716310694814,0.00305432616733015,0.00610865233466029
5,1.01111115155925,-0.0375000018340919,0.144444451959316,0.0229074470698834,0.013744467869401,-0.00519235478714108
5,1.0125000434425,-0.0388888906783549,0.148611115453114,0.0122173046693206,0.00671951752156019,-0.00733038317412138
5,1.00694447590948,-0.03194444645704,0.154166670830166,-0.00183259579353034,0.00763581553474069,-0.00824668072164059
5,1.01388893532575,-0.03194444645704,0.151388899219622,-0.01191187184304,-0.00122173049021512,-0.0134390350431204
5,1.01527782720901,-0.0250000007162294,0.152777778946911,-0.00305432616733015,-0.00397062394768,-0.00366519158706069
5,1.01527782720901,-0.0250000007162294,0.152777778946911,0.00305432616733015,-0.00977384392172098,-0.00152716308366507
5,1.02222228662528,-0.029166668768514,0.14583334384257,0.0100792767480016,0.00641408516094089,0.0131336031481624
5,1.01944450285877,-0.0250000007162294,0.140277788465518,0.0113010071218014,0.0128281703218818,0.00549778714776039
5,1.01388893532575,-0.033333335301303,0.143055560076062,-0.000610865245107561,0.013744467869401,0.00641408516094089
5,1.01527782720901,-0.030555557612777,0.15555556271342,-0.00122173049021512,0.00946841109544039,-0.000305432622553781
5,1.01944450285877,-0.027777779924251,0.14722222356986,-0.0100792767480016,0.0106901414692402,-0.00488692196086049
5,1.01944450285877,-0.027777779924251,0.14722222356986,-0.00183259579353034,0.0103847095742822,-0.00397062394768
5,1.01527782720901,-0.030555557612777,0.15555556271342,0.00183259579353034,0.00885754637420177,0.00702495034784079
5,1.0125000434425,-0.030555557612777,0.144444451959316,-0.00610865233466029,0.0106901414692402,0.00397062394768
5,1.0125000434425,-0.030555557612777,0.144444451959316,-0.027488935738802,0.0134390350431204,0.00183259579353034
5,1.00694447590948,-0.030555557612777,0.144444451959316,-0.0326812900602817,0.0143553335219622,0.00580321997404099
5,1.00277780025972,-0.0250000007162294,0.154166670830166,-0.0299323964864016,0.0125227374956012,0.0100792767480016
5,1.00277780025972,-0.0250000007162294,0.154166670830166,-0.027488935738802,0.00885754637420177,0.0106901414692402
5,1.00972225967599,-0.029166668768514,0.151388899219622,-0.0314595587551594,-0.00885754637420177,0.00488692196086049
5,1.01666671909226,-0.0222222230277034,0.163888889701015,-0.0302378293126821,-0.0027488935738802,-0.00641408516094089
5,1.02222228662528,-0.0222222230277034,0.163888889701015,-0.0403171069920063,-0.0152716310694814,-0.00366519158706069
5,1.02222228662528,-0.0250000007162294,0.158333334323963,-0.0271835029125214,0.011606439948082,-0.01191187184304
5,1.02638896227504,-0.03194444645704,0.17361112072783,0.00610865233466029,0.0253509078174829,-0.00580321997404099
5,1.02500007039179,-0.0361111129898289,0.154166670830166,0.00794124789535999,0.0387899428606033,0.000610865245107561
5,1.02361117850853,-0.033333335301303,0.134722233088466,-0.0021380283869803,0.0348193198442459,0.00488692196086049
5,1.00555558402623,-0.033333335301303,0.144444451959316,-0.0109955742955208,0.0357356183230877,-0.00397062394768
5,0.99583334084345,-0.03194444645704,0.154166670830166,-0.0131336031481624,0.0146607663482428,0.000305432622553781
5,1.00000001649321,-0.027777779924251,0.163888889701015,-0.0033597587607801,-0.00305432616733015,-0.00122173049021512
5,1.01111115155925,-0.0361111129898289,0.159722226207217,0.0201585534960032,-0.0128281703218818,0.00763581553474069
5,1.02222228662528,-0.03194444645704,0.159722226207217,0.0201585534960032,-0.00183259579353034,0.000610865245107561
5,1.01944450285877,-0.03194444645704,0.154166670830166,0.0284052342176437,0.00885754637420177,0.00733038317412138
5,1.02500007039179,-0.027777779924251,0.14722222356986,0.0439822971820831,0.00244346098043024,0.00397062394768
5,1.02500007039179,-0.0361111129898289,0.151388899219622,0.0561996027827263,0.0241291765123606,-0.0021380283869803
5,1.02083339474202,-0.0347222241455659,0.140277788465518,0.0406225398182869,0.037568211555481,0.00305432616733015
5,1.00833336779274,-0.0361111129898289,0.151388899219622,0.0284052342176437,0.0381790772080422,0.00549778714776039
5,1.00694447590948,-0.030555557612777,0.158333334323963,0.0290160998702049,0.0027488935738802,0.015577063895762
5,1.00694447590948,-0.030555557612777,0.158333334323963,0.0290160998702049,0.0027488935738802,0.015577063895762
5,1.00833336779274,-0.029166668768514,0.161111118090472,0.0345138870179653,0.000916297896765172,0.0140499006956816
5,1.01527782720901,-0.03194444645704,0.166666673467524,0.017409659922123,0.00916297826915979,0.0247400421649218
5,1.01944450285877,-0.03194444645704,0.163888889701015,0.0287106670439243,0.00794124789535999,0.0204639863222837
5,1.02083339474202,-0.0347222241455659,0.158333334323963,0.0314595587551594,0.00152716308366507,0.0219911485910416
5,1.02361117850853,-0.0222222230277034,0.15555556271342,0.0262672062963247,0.00885754637420177,0.00763581553474069
5,1.02083339474202,-0.03194444645704,0.15555556271342,0.0308486949652433,0.0204639863222837,-0.00122173049021512
5,1.01527782720901,-0.0361111129898289,0.14583334384257,0.019547687843442,0.0326812900602817,0.00305432616733015
5,1.00972225967599,-0.0361111129898289,0.150000007336368,0.0192422550171614,0.0280998013913631,-0.00152716308366507
5,1.00416669214298,-0.033333335301303,0.152777778946911,0.0027488935738802,0.00977384392172098,-0.0027488935738802
5,1.00000001649321,-0.030555557612777,0.159722226207217,0.00855211354792118,-0.0106901414692402,0.011606439948082
5,1.00833336779274,-0.030555557612777,0.156944454596674,0.00794124789535999,-0.0140499006956816,0.0122173046693206
5,1.0125000434425,-0.029166668768514,0.161111118090472,0.0164933614432812,-0.0213802829384804,0.0171042270958424
5,1.0125000434425,-0.029166668768514,0.16527778158427,0.0161879286170006,0.000610865245107561,0.0103847095742822
5,1.02083339474202,-0.03194444645704,0.152777778946911,0.00397062394768,-0.00488692196086049,0.000610865245107561
5,1.01666671909226,-0.0388888906783549,0.150000007336368,-0.00305432616733015,-0.0045814891345799,0.00244346098043024
5,1.01944450285877,-0.0388888906783549,0.144444451959316,0.0021380283869803,0.00488692196086049,-0.00641408516094089
5,1.01527782720901,-0.03194444645704,0.15555556271342,0.00549778714776039,0.02382374368608,-0.00824668072164059
5,1.01111115155925,-0.033333335301303,0.144444451959316,-0.00977384392172098,0.0167987942695618,-0.00397062394768
5,1.00416669214298,-0.0361111129898289,0.152777778946911,-0.000610865245107561,0.00733038317412138,-0.00855211354792118
5,1.00138890837647,-0.033333335301303,0.156944454596674,-0.000610865245107561,0.000610865245107561,-0.0045814891345799
5,1.00833336779274,-0.0347222241455659,0.166666673467524,0.00855211354792118,-0.0021380283869803,0.00183259579353034
5,1.01805561097552,-0.0388888906783549,0.159722226207217,0.01191187184304,-0.0027488935738802,0.00305432616733015
5,1.02361117850853,-0.0347222241455659,0.158333334323963,0.0149661982432008,-0.00122173049021512,-0.0027488935738802
5,1.02500007039179,-0.033333335301303,0.156944454596674,0.011606439948082,0.0192422550171614,0.0045814891345799
5,1.02222228662528,-0.029166668768514,0.158333334323963,0.0131336031481624,0.0381790772080422,0.00397062394768
5,1.01527782720901,-0.027777779924251,0.169444445078067,0.00427605677396059,0.0354301854968071,-0.00152716308366507
5,1.01944450285877,-0.026388891079988,0.17361112072783,0.00824668072164059,0.0372627787292004,-0.00244346098043024
5,1.01944450285877,-0.026388891079988,0.17361112072783,0.02382374368608,0.0180205255746841,0.00152716308366507
5,1.01944450285877,-0.026388891079988,0.17361112072783,0.02382374368608,0.0180205255746841,0.00152716308366507
5,1.01944450285877,-0.0361111129898289,0.177777784221628,0.0641408488154411,0.0323758572340012,0.00152716308366507
5,1.01527782720901,-0.0361111129898289,0.161111118090472,0.0439822971820831,0.0540615729987621,-0.0131336031481624
5,1.00277780025972,-0.03194444645704,0.150000007336368,0.0146607663482428,0.0595593601465225,-0.0323758572340012
5,1.00000001649321,-0.0347222241455659,0.158333334323963,-0.00244346098043024,0.0436768643558025,-0.0256563406437635
5,1.00694447590948,-0.033333335301303,0.170833336961321,0.0171042270958424,0.0329867228865623,-0.00763581553474069
5,1.00694447590948,-0.03194444645704,0.17361112072783,0.0448985956609249,0.0259617734700441,0.0033597587607801
5,1.01388893532575,-0.029166668768514,0.17361112072783,0.0574213340878487,0.0226020142436027,0.019547687843442
5,1.01111115155925,-0.0222222230277034,0.17361112072783,0.0320704244077206,0.0247400421649218,0.0314595587551594
5,1.00694447590948,-0.03194444645704,0.168055565350778,0.0143553335219622,0.0290160998702049,0.0244346093386412
5,1.00277780025972,-0.0361111129898289,0.16527778158427,0.000305432622553781,0.0268780700862408,0.0293215326964855
5,1.00555558402623,-0.0375000018340919,0.166666673467524,-0.0219911485910416,0.02382374368608,0.0250454749912024
5,1.01527782720901,-0.0361111129898289,0.156944454596674,-0.0192422550171614,0.0232128798961639,0.00794124789535999
5,1.01666671909226,-0.0375000018340919,0.158333334323963,-0.00916297826915979,0.0342084541916847,0.0167987942695618
5,1.01944450285877,-0.0402777795226179,0.170833336961321,0.0201585534960032,0.0305432621389627,0.0280998013913631
5,1.01666671909226,-0.0375000018340919,0.163888889701015,0.0354301854968071,0.0320704244077206,0.0198531206697226
5,1.0125000434425,-0.0388888906783549,0.16527778158427,0.0351247526705265,0.027488935738802,0.0128281703218818
5,1.00555558402623,-0.0361111129898289,0.168055565350778,0.03176499158144,0.0134390350431204,0.00794124789535999
5,1.00694447590948,-0.030555557612777,0.169444445078067,0.0415388382971287,-0.0021380283869803,0.01191187184304
5,1.00833336779274,-0.029166668768514,0.177777784221628,0.0372627787292004,-0.0256563406437635,0.013744467869401
5,1.00694447590948,-0.0250000007162294,0.175000000455119,0.0222965814173222,-0.00916297826915979,0.021685715764761
5,1.00694447590948,-0.0250000007162294,0.175000000455119,0.011606439948082,-0.00641408516094089,0.0207694191485643
5,1.00694447590948,-0.0250000007162294,0.175000000455119,0.0131336031481624,-0.0027488935738802,0.0271835029125214
5,1.0125000434425,-0.03194444645704,0.166666673467524,0.0235183127224445,0.00580321997404099,0.0180205255746841
5,1.01527782720901,-0.0347222241455659,0.176388892338373,0.0308486949652433,0.00366519158706069,0.0143553335219622
5,1.01527782720901,-0.0375000018340919,0.17361112072783,0.0219911485910416,0.00366519158706069,0.0033597587607801
5,1.01388893532575,-0.0402777795226179,0.17361112072783,0.0140499006956816,0.0033597587607801,-0.0113010071218014
5,1.01944450285877,-0.0416666683668809,0.170833336961321,0.00763581553474069,0.00580321997404099,-0.000305432622553781
5,1.0125000434425,-0.0388888906783549,0.177777784221628,0.00671951752156019,-0.0021380283869803,0.000305432622553781
5,1.00555558402623,-0.030555557612777,0.187500003092477,0.00916297826915979,-0.00946841109544039,0.015577063895762
5,1.00694447590948,-0.0361111129898289,0.190277786858986,0.0113010071218014,-0.00733038317412138,0.00733038317412138
5,1.00694447590948,-0.0361111129898289,0.190277786858986,0.013744467869401,0.00916297826915979,0.00977384392172098
5,1.0125000434425,-0.03194444645704,0.176388892338373,0.00977384392172098,-0.0045814891345799,0.00366519158706069
5,1.0125000434425,-0.03194444645704,0.176388892338373,-0.00152716308366507,0.00244346098043024,0.0027488935738802
5,1.01944450285877,-0.0430555572111439,0.176388892338373,0.00855211354792118,0.00183259579353034,-0.00244346098043024
5,1.01944450285877,-0.0388888906783549,0.170833336961321,0.0149661982432008,0.00946841109544039,0.00916297826915979
5,1.02361117850853,-0.0388888906783549,0.166666673467524,0.00916297826915979,0.0192422550171614,0.00244346098043024
5,1.02361117850853,-0.0375000018340919,0.166666673467524,0.00519235478714108,0.0277943685650826,0.0100792767480016
5,1.02361117850853,-0.0375000018340919,0.166666673467524,-0.00183259579353034,0.02382374368608,-0.00244346098043024
5,1.02361117850853,-0.0375000018340919,0.166666673467524,0.0134390350431204,0.0198531206697226,0.00733038317412138
5,1.00138890837647,-0.0347222241455659,0.17361112072783,0.0128281703218818,0.00305432616733015,0.00244346098043024
5,1.00555558402623,-0.0375000018340919,0.181944447715425,0.00366519158706069,-0.00885754637420177,0.00305432616733015
5,1.00972225967599,-0.0388888906783549,0.176388892338373,-0.0033597587607801,-0.0152716310694814,-0.00519235478714108
5,1.00972225967599,-0.0388888906783549,0.176388892338373,-0.0122173046693206,-0.0152716310694814,0.0021380283869803
5,1.00972225967599,-0.029166668768514,0.170833336961321,-0.0128281703218818,-0.00733038317412138,0.00122173049021512
5,1.00972225967599,-0.029166668768514,0.170833336961321,-0.00183259579353034,-0.0021380283869803,-0.00580321997404099
5,1.00972225967599,-0.0361111129898289,0.176388892338373,-0.00183259579353034,-0.0229074470698834,-0.0128281703218818
5,1.00972225967599,-0.0361111129898289,0.176388892338373,-0.000916297896765172,-0.0397062413394451,-0.01588249579072
5,1.00972225967599,-0.0361111129898289,0.176388892338373,-0.000916297896765172,-0.0610865242779255,-0.0207694191485643
5,1.00000001649321,-0.033333335301303,0.187500003092477,-0.0192422550171614,-0.0745255574584007,-0.015577063895762
5,1.00277780025972,-0.0250000007162294,0.186111123365188,-0.0412334054708481,-0.0952949747443199,-0.01191187184304
5,1.00277780025972,-0.026388891079988,0.180555567988136,-0.0308486949652433,-0.108428582549095,-0.015577063895762
5,1.01527782720901,-0.033333335301303,0.177777784221628,-0.00702495034784079,-0.109344877302647,-0.00794124789535999
5,1.02638896227504,-0.0347222241455659,0.166666673467524,-0.00580321997404099,-0.0907134860754013,0.00580321997404099
5,1.03472221632685,-0.0444444460554069,0.151388899219622,-0.00763581553474069,-0.0503963828086853,0.0122173046693206
5,1.0361111082101,-0.0430555572111439,0.154166670830166,0.00671951752156019,-0.03176499158144,0.015577063895762
5,1.03194452980806,-0.0416666683668809,0.156944454596674,0.0232128798961639,-0.017409659922123,0.0256563406437635
5,1.02222228662528,-0.0416666683668809,0.150000007336368,0.0329867228865623,0.0027488935738802,0.0280998013913631
5,1.01666671909226,-0.0486111125881959,0.143055560076062,0.0247400421649218,0.0351247526705265,0.0204639863222837
5,1.00972225967599,-0.0444444460554069,0.14583334384257,0.00397062394768,0.0421497002243996,0.01191187184304
5,1.00277780025972,-0.0375000018340919,0.156944454596674,0.00824668072164059,0.027488935738802,0.0027488935738802
5,1.00833336779274,-0.030555557612777,0.166666673467524,0.02382374368608,0.013744467869401,0.0131336031481624
5,1.01527782720901,-0.03194444645704,0.158333334323963,0.0571159012615681,-0.00183259579353034,0.0253509078174829
5,1.01944450285877,-0.029166668768514,0.172222228844576,0.0763581544160843,0.00610865233466029,0.0271835029125214
5,1.02083339474202,-0.0388888906783549,0.161111118090472,0.0714712366461754,0.0103847095742822,0.0226020142436027
5,1.01527782720901,-0.0430555572111439,0.154166670830166,0.0320704244077206,0.0183259565383196,0.00702495034784079
5,1.00972225967599,-0.0361111129898289,0.163888889701015,0.0235183127224445,0.0167987942695618,0.00152716308366507
5,1.00555558402623,-0.0375000018340919,0.154166670830166,0.0146607663482428,0.011606439948082,-0.00549778714776039
5,1.00555558402623,-0.03194444645704,0.162500009973726,0.0152716310694814,0.00641408516094089,-0.00427605677396059
5,1.01111115155925,-0.033333335301303,0.158333334323963,0.00519235478714108,0.00397062394768,-0.00519235478714108
5,1.0125000434425,-0.0347222241455659,0.172222228844576,0.00488692196086049,0.00580321997404099,0.00519235478714108
5,1.01666671909226,-0.03194444645704,0.156944454596674,0.00671951752156019,0.011606439948082,-0.00152716308366507
5,1.0125000434425,-0.033333335301303,0.156944454596674,0.00763581553474069,0.0045814891345799,0.00519235478714108
5,1.01666671909226,-0.0361111129898289,0.16527778158427,0.00885754637420177,0.00946841109544039,0.0021380283869803
5,1.01388893532575,-0.03194444645704,0.163888889701015,0.00488692196086049,0.00702495034784079,-0.00366519158706069
5,1.0125000434425,-0.027777779924251,0.154166670830166,-0.00580321997404099,0.000916297896765172,-0.00580321997404099
5,1.01666671909226,-0.03194444645704,0.162500009973726,0.000916297896765172,-0.00427605677396059,0.00763581553474069
5,1.00833336779274,-0.0361111129898289,0.150000007336368,-0.00488692196086049,-0.00610865233466029,0.0033597587607801
5,1.00972225967599,-0.0361111129898289,0.161111118090472,-0.00855211354792118,-0.00519235478714108,0.000610865245107561
5,1.00694447590948,-0.0388888906783549,0.162500009973726,-0.0128281703218818,-0.00183259579353034,-0.00549778714776039
5,1.01805561097552,-0.0388888906783549,0.166666673467524,-0.00549778714776039,-0.00397062394768,-0.00733038317412138
5,1.01805561097552,-0.0361111129898289,0.163888889701015,-0.00977384392172098,0.00397062394768,-0.00824668072164059
5,1.0125000434425,-0.030555557612777,0.168055565350778,-0.00733038317412138,-0.0100792767480016,-0.00244346098043024
5,1.01527782720901,-0.03194444645704,0.163888889701015,-0.00244346098043024,-0.013744467869401,-0.0027488935738802
5,1.01111115155925,-0.0361111129898289,0.161111118090472,0.00366519158706069,-0.0146607663482428,0.00885754637420177
5,1.01111115155925,-0.0416666683668809,0.152777778946911,-0.00152716308366507,-0.01588249579072,0.00610865233466029
5,1.0125000434425,-0.0375000018340919,0.152777778946911,-0.0134390350431204,-0.00763581553474069,-0.00519235478714108
5,1.01666671909226,-0.0388888906783549,0.17361112072783,-0.01191187184304,-0.0152716310694814,0.0021380283869803
5,1.02500007039179,-0.0388888906783549,0.161111118090472,-0.00122173049021512,-0.0210748501121998,0.00610865233466029
5,1.01944450285877,-0.0388888906783549,0.15555556271342,0.0109955742955208,-0.0109955742955208,-0.000610865245107561
5,1.01944450285877,-0.03194444645704,0.152777778946911,0.0109955742955208,-0.00763581553474069,0.0125227374956012
5,1.02083339474202,-0.0347222241455659,0.148611115453114,0.00855211354792118,-0.0198531206697226,0.0109955742955208
5,1.01527782720901,-0.0361111129898289,0.14722222356986,-0.00152716308366507,0.0027488935738802,0.0128281703218818
5,1.01666671909226,-0.0416666683668809,0.156944454596674,0.00427605677396059,0.0045814891345799,0.00366519158706069
5,1.01666671909226,-0.0416666683668809,0.156944454596674,0.00916297826915979,0.00122173049021512,-0.0021380283869803
5,1.01527782720901,-0.029166668768514,0.14722222356986,0.0027488935738802,-0.00580321997404099,-0.000305432622553781
5,1.01111115155925,-0.029166668768514,0.150000007336368,-0.0033597587607801,-0.00641408516094089,0.000305432622553781
5,1.01111115155925,-0.029166668768514,0.150000007336368,-0.00610865233466029,-0.0198531206697226,0.00397062394768
5,1.00416669214298,-0.033333335301303,0.163888889701015,0.0027488935738802,-0.0222965814173222,0.0131336031481624
5,1.00833336779274,-0.0347222241455659,0.163888889701015,-0.00305432616733015,-0.0256563406437635,0.0146607663482428
5,1.00833336779274,-0.0347222241455659,0.163888889701015,-0.0033597587607801,-0.0381790772080422,0.00519235478714108
5,1.01666671909226,-0.0388888906783549,0.151388899219622,-0.0109955742955208,-0.0271835029125214,0.00549778714776039
5,1.01944450285877,-0.0416666683668809,0.150000007336368,-0.0192422550171614,-0.0226020142436027,-0.000305432622553781
5,1.01111115155925,-0.0347222241455659,0.158333334323963,-0.0164933614432812,-0.027488935738802,-0.00427605677396059
5,1.00694447590948,-0.0375000018340919,0.161111118090472,-0.00305432616733015,-0.027488935738802,0.00244346098043024
5,1.00833336779274,-0.0361111129898289,0.16527778158427,-0.0045814891345799,-0.0284052342176437,0.00671951752156019
5,1.01805561097552,-0.0375000018340919,0.14722222356986,-0.00671951752156019,-0.0213802829384804,0.00641408516094089
5,1.02222228662528,-0.033333335301303,0.14722222356986,-0.029626963660121,-0.00122173049021512,-0.00610865233466029
5,1.01527782720901,-0.0458333348996699,0.152777778946911,-0.0265726372599602,-0.00794124789535999,-0.00244346098043024
5,1.01527782720901,-0.0361111129898289,0.161111118090472,-0.0100792767480016,-0.00671951752156019,-0.000305432622553781
5,1.01805561097552,-0.0375000018340919,0.166666673467524,0.00305432616733015,-0.0183259565383196,0.00397062394768
5,1.01944450285877,-0.0347222241455659,0.15555556271342,0.0134390350431204,-0.00794124789535999,0.0045814891345799
5,1.01666671909226,-0.0402777795226179,0.162500009973726,0.0280998013913631,-0.0113010071218014,0.00244346098043024
5,1.00972225967599,-0.0361111129898289,0.161111118090472,0.0424551330506802,-0.00916297826915979,0.00916297826915979
5,1.00694447590948,-0.0388888906783549,0.15555556271342,0.0345138870179653,-0.0125227374956012,0.00977384392172098
5,1.00972225967599,-0.0416666683668809,0.150000007336368,0.00946841109544039,-0.00702495034784079,0.0021380283869803
5,1.0125000434425,-0.0458333348996699,0.144444451959316,-0.00122173049021512,-0.0109955742955208,0.00183259579353034
5,1.01388893532575,-0.0416666683668809,0.156944454596674,0.00855211354792118,-0.0152716310694814,0.0106901414692402
5,1.01666671909226,-0.0444444460554069,0.156944454596674,0.0204639863222837,-0.0244346093386412,0.0253509078174829
5,1.01944450285877,-0.0402777795226179,0.14583334384257,0.0222965814173222,-0.0210748501121998,0.0152716310694814
5,1.02222228662528,-0.033333335301303,0.150000007336368,0.0430659987032413,-0.0222965814173222,0.019547687843442
5,1.02500007039179,-0.0388888906783549,0.150000007336368,0.0613919571042061,-0.0302378293126821,0.0140499006956816
5,1.02222228662528,-0.0388888906783549,0.14722222356986,0.0607810914516449,-0.0201585534960032,0.0177150927484035
5,1.01388893532575,-0.0388888906783549,0.150000007336368,0.0589484944939613,-0.0210748501121998,0.0106901414692402
5,1.00972225967599,-0.0375000018340919,0.156944454596674,0.0668897479772568,-0.0314595587551594,0.0109955742955208
5,1.01388893532575,-0.0416666683668809,0.154166670830166,0.0681114718317986,-0.0311541277915239,0.0207694191485643
5,1.0125000434425,-0.0472222237439329,0.143055560076062,0.0427605658769607,-0.0192422550171614,0.0213802829384804
5,1.01388893532575,-0.0458333348996699,0.138888896582264,0.0287106670439243,-0.01588249579072,0.0161879286170006
5,1.01944450285877,-0.0347222241455659,0.140277788465518,0.0287106670439243,-0.0189368221908808,0.00366519158706069
5,1.01944450285877,-0.03194444645704,0.148611115453114,0.0424551330506802,-0.0125227374956012,0.00397062394768
5,1.02777785415829,-0.0347222241455659,0.151388899219622,0.0378736443817616,-0.0021380283869803,0.00152716308366507
5,1.02361117850853,-0.0375000018340919,0.154166670830166,0.0235183127224445,0.00519235478714108,0.00794124789535999
5,1.01805561097552,-0.0361111129898289,0.15555556271342,0.0143553335219622,0.00488692196086049,-0.00122173049021512
5,1.00555558402623,-0.0347222241455659,0.163888889701015,0.00488692196086049,-0.00885754637420177,-0.00427605677396059
5,1.00694447590948,-0.0347222241455659,0.15555556271342,0.00366519158706069,-0.0430659987032413,0.0021380283869803
5,1.01111115155925,-0.033333335301303,0.15555556271342,0.000610865245107561,-0.0522289797663689,-0.00641408516094089
5,1.01666671909226,-0.029166668768514,0.140277788465518,-0.00183259579353034,-0.0403171069920063,0.000610865245107561
5,1.01944450285877,-0.0361111129898289,0.13750000469901,-0.0161879286170006,-0.0201585534960032,-0.0045814891345799
5,1.01527782720901,-0.0402777795226179,0.12916666555545,-0.0430659987032413,0.015577063895762,-0.00671951752156019
5,1.02222228662528,-0.0402777795226179,0.138888896582264,-0.0485637858510017,0.0161879286170006,0.00122173049021512
5,1.01666671909226,-0.0430555572111439,0.152777778946911,-0.0161879286170006,0.00855211354792118,0.00946841109544039
5,1.02916674604155,-0.0388888906783549,0.154166670830166,0.0519235469400883,-0.00152716308366507,0.0253509078174829
5,1.04027778385987,-0.0444444460554069,0.156944454596674,0.131641462445259,-0.00824668072164059,0.0335975885391235
5,1.04861113515939,-0.0472222237439329,0.123611110178398,0.108123145997524,0.0207694191485643,0.0348193198442459
5,1.03194452980806,-0.0458333348996699,0.104166672436698,0.0455094613134861,0.0699440687894821,0.0103847095742822
5,1.01111115155925,-0.0444444460554069,0.116666675074056,-0.00824668072164059,0.0800233483314514,-0.00733038317412138
5,0.998611124609959,-0.0388888906783549,0.13750000469901,0.00152716308366507,0.0455094613134861,0.00702495034784079
5,0.991666665193688,-0.0361111129898289,0.14722222356986,0.0287106670439243,0.00794124789535999,0.0131336031481624
5,0.993055557076942,-0.029166668768514,0.13750000469901,0.0302378293126821,-0.00671951752156019,0.0253509078174829
5,1.00555558402623,-0.03194444645704,0.140277788465518,0.00580321997404099,-0.00885754637420177,0.017409659922123
5,1.0125000434425,-0.029166668768514,0.144444451959316,0.0027488935738802,-0.0033597587607801,0.0250454749912024
5,1.02083339474202,-0.0361111129898289,0.159722226207217,0.0241291765123606,-0.0421497002243996,0.0351247526705265
5,1.02777785415829,-0.0402777795226179,0.163888889701015,0.0592539273202419,-0.0675006061792374,0.0491746515035629
5,1.02500007039179,-0.0416666683668809,0.14722222356986,0.0616973899304867,-0.0610865242779255,0.0384845100343227
5,1.02222228662528,-0.0500000014324589,0.130555557438704,-0.00824668072164059,-0.0164933614432812,0.0106901414692402
5,1.01666671909226,-0.0416666683668809,0.14722222356986,-0.0500909499824047,0.0247400421649218,-0.0106901414692402
5,1.02083339474202,-0.0458333348996699,0.156944454596674,-0.0574213340878487,0.0128281703218818,-0.019547687843442
5,1.02500007039179,-0.0388888906783549,0.156944454596674,-0.03176499158144,0.0027488935738802,-0.0186313893646002
5,1.01805561097552,-0.029166668768514,0.144444451959316,-0.01191187184304,0.00885754637420177,-0.00763581553474069
5,1.01111115155925,-0.0347222241455659,0.140277788465518,-0.0244346093386412,0.0241291765123606,-0.00610865233466029
5,1.00416669214298,-0.0361111129898289,0.15555556271342,-0.037568211555481,0.0403171069920063,0.000916297896765172
5,1.00416669214298,-0.0361111129898289,0.15555556271342,-0.0439822971820831,0.0183259565383196,0.0140499006956816
5,1.00416669214298,-0.0375000018340919,0.162500009973726,-0.0424551330506802,0.0021380283869803,0.00855211354792118
5,1.01527782720901,-0.0569444456537738,0.141666668192807,-0.0247400421649218,-0.0106901414692402,0.017409659922123
5,1.01527782720901,-0.0569444456537738,0.141666668192807,-0.0244346093386412,-0.00519235478714108,0.00427605677396059
5,1.02222228662528,-0.0416666683668809,0.1194444466846,-0.0452040284872055,0.0146607663482428,0.00183259579353034
5,1.01666671909226,-0.0444444460554069,0.140277788465518,-0.0616973899304867,0.0357356183230877,0.00855211354792118
5,1.01666671909226,-0.0444444460554069,0.140277788465518,-0.0543670058250427,0.0299323964864016,-0.00824668072164059
5,1.0125000434425,-0.0388888906783549,0.150000007336368,-0.0378736443817616,0.0134390350431204,-0.019547687843442
5,1.0125000434425,-0.0375000018340919,0.170833336961321,-0.029626963660121,-0.0183259565383196,-0.0106901414692402
5,1.00972225967599,-0.0347222241455659,0.156944454596674,-0.0256563406437635,-0.0131336031481624,-0.0222965814173222
5,1.01944450285877,-0.0430555572111439,0.150000007336368,-0.027488935738802,0.011606439948082,-0.0284052342176437
5,1.02222228662528,-0.0430555572111439,0.151388899219622,-0.0265726372599602,0.0171042270958424,-0.0342084541916847
5,1.02638896227504,-0.0458333348996699,0.150000007336368,-0.00549778714776039,0.0290160998702049,-0.0387899428606033
5,1.02777785415829,-0.0486111125881959,0.140277788465518,0.00152716308366507,0.029626963660121,-0.0439822971820831
5,1.0125000434425,-0.0625000010308258,0.14722222356986,0.00824668072164059,0.0152716310694814,-0.0387899428606033
5,1.00972225967599,-0.0513888902767219,0.14722222356986,-0.000610865245107561,0.0100792767480016,-0.0397062413394451
5,1.00416669214298,-0.0486111125881959,0.14722222356986,-0.00244346098043024,0.00519235478714108,-0.0372627787292004
5,1.00833336779274,-0.0458333348996699,0.150000007336368,-0.0033597587607801,-0.000305432622553781,-0.0314595587551594
5,1.00138890837647,-0.0444444460554069,0.144444451959316,-0.0128281703218818,-0.0207694191485643,-0.00824668072164059
5,0.997222232726705,-0.03194444645704,0.152777778946911,-0.0183259565383196,-0.0299323964864016,-0.00427605677396059
5,1.00694447590948,-0.0361111129898289,0.152777778946911,-0.0113010071218014,-0.0183259565383196,0.00519235478714108
5,1.02222228662528,-0.0416666683668809,0.134722233088466,-0.0100792767480016,0.0177150927484035,0.00397062394768
5,1.0305556379248,-0.0458333348996699,0.131944449321958,-0.0106901414692402,0.0464257597923279,0.00977384392172098
5,1.02361117850853,-0.0430555572111439,0.14722222356986,-0.013744467869401,0.0332921557128429,0.0189368221908808
5,1.00277780025972,-0.0361111129898289,0.158333334323963,-0.00244346098043024,-0.0103847095742822,0.021685715764761
5,1.00555558402623,-0.033333335301303,0.166666673467524,0.0109955742955208,-0.0332921557128429,0.0326812900602817
5,1.0125000434425,-0.030555557612777,0.148611115453114,0.017409659922123,-0.0384845100343227,0.03176499158144
5,1.02361117850853,-0.0388888906783549,0.143055560076062,0.017409659922123,-0.0164933614432812,0.0207694191485643
5,1.02500007039179,-0.0430555572111439,0.13750000469901,0.0109955742955208,0.00824668072164059,0.0103847095742822
5,1.02222228662528,-0.0402777795226179,0.141666668192807,-0.000305432622553781,0.0149661982432008,0.000610865245107561
5,1.02222228662528,-0.0402777795226179,0.141666668192807,0.0131336031481624,0.0128281703218818,-0.00794124789535999
5,1.02222228662528,-0.0416666683668809,0.140277788465518,0.021685715764761,0.00641408516094089,-0.0177150927484035
5,1.01666671909226,-0.0361111129898289,0.141666668192807,0.019547687843442,0.0045814891345799,-0.011606439948082
5,1.01388893532575,-0.0361111129898289,0.140277788465518,0.0226020142436027,-0.00702495034784079,0.00244346098043024
5,1.0125000434425,-0.0347222241455659,0.148611115453114,0.0204639863222837,-0.0167987942695618,-0.00397062394768
5,1.00833336779274,-0.033333335301303,0.156944454596674,0.0152716310694814,-0.01191187184304,-0.00366519158706069
5,1.00694447590948,-0.033333335301303,0.162500009973726,0.00610865233466029,-0.0210748501121998,-0.00549778714776039
5,1.00972225967599,-0.0347222241455659,0.15555556271342,0.00885754637420177,-0.0387899428606033,-0.00183259579353034
5,1.01527782720901,-0.0416666683668809,0.158333334323963,0.00763581553474069,-0.0302378293126821,-0.00244346098043024
5,1.02083339474202,-0.0430555572111439,0.151388899219622,0.00824668072164059,-0.0152716310694814,-0.00152716308366507
5,1.02916674604155,-0.0416666683668809,0.150000007336368,0.0149661982432008,0.0100792767480016,-0.00427605677396059
5,1.02500007039179,-0.0444444460554069,0.13750000469901,0.027488935738802,0.0113010071218014,0.00152716308366507
5,1.02083339474202,-0.0388888906783549,0.14583334384257,0.0253509078174829,0.00702495034784079,0.000305432622553781
5,1.01944450285877,-0.0388888906783549,0.133333341205212,0.0268780700862408,0.0100792767480016,0.0033597587607801
5,1.0125000434425,-0.0430555572111439,0.14722222356986,0.0314595587551594,0.0161879286170006,-0.000610865245107561
5,1.00972225967599,-0.0402777795226179,0.154166670830166,0.0326812900602817,-0.00366519158706069,0.00641408516094089
5,1.00972225967599,-0.0388888906783549,0.148611115453114,0.0311541277915239,-0.0125227374956012,0.0180205255746841
5,1.01111115155925,-0.0361111129898289,0.140277788465518,0.0189368221908808,-0.00794124789535999,0.017409659922123
5,1.01527782720901,-0.0388888906783549,0.13750000469901,0.0128281703218818,0.0021380283869803,0.0146607663482428
5,1.00833336779274,-0.0361111129898289,0.144444451959316,0.00427605677396059,-0.00366519158706069,0.0146607663482428
5,1.00972225967599,-0.03194444645704,0.144444451959316,0.00549778714776039,-0.0128281703218818,0.0186313893646002
5,1.01527782720901,-0.0361111129898289,0.138888896582264,0.00794124789535999,-0.0271835029125214,0.0143553335219622
5,1.02222228662528,-0.0361111129898289,0.144444451959316,0.013744467869401,-0.0210748501121998,0.0109955742955208
5,1.02222228662528,-0.03194444645704,0.150000007336368,-0.0033597587607801,-0.0106901414692402,-0.0021380283869803
5,1.02222228662528,-0.0375000018340919,0.14722222356986,-0.00183259579353034,0.00183259579353034,-0.00244346098043024
5,1.01944450285877,-0.0361111129898289,0.144444451959316,-0.00610865233466029,0.00610865233466029,-0.00427605677396059
5,1.02222228662528,-0.0388888906783549,0.134722233088466,0.0109955742955208,0.00946841109544039,0.000305432622553781
5,1.02222228662528,-0.0375000018340919,0.138888896582264,0.0100792767480016,0.0103847095742822,0.0027488935738802
5,1.01805561097552,-0.0388888906783549,0.144444451959316,0.0103847095742822,0.0164933614432812,0.0186313893646002
5,1.01388893532575,-0.0388888906783549,0.15555556271342,0.0100792767480016,0.0287106670439243,0.0256563406437635
5,1.01111115155925,-0.033333335301303,0.14722222356986,0.000610865245107561,0.017409659922123,0.0287106670439243
5,1.01111115155925,-0.0361111129898289,0.148611115453114,-0.0033597587607801,-0.0103847095742822,0.0164933614432812
5,1.01111115155925,-0.0361111129898289,0.148611115453114,-0.00305432616733015,-0.0106901414692402,0.0109955742955208
5,1.02361117850853,-0.03194444645704,0.134722233088466,-0.00366519158706069,-0.00641408516094089,0.0106901414692402
5,1.02222228662528,-0.0347222241455659,0.140277788465518,-0.00580321997404099,-0.00977384392172098,0.00152716308366507
5,1.02222228662528,-0.0347222241455659,0.140277788465518,-0.00671951752156019,0.00366519158706069,-0.0131336031481624
5,1.02222228662528,-0.0458333348996699,0.150000007336368,-0.0164933614432812,0.013744467869401,-0.00671951752156019
5,1.01527782720901,-0.0444444460554069,0.14583334384257,-0.0109955742955208,0.0021380283869803,-0.0100792767480016
5,1.01388893532575,-0.0388888906783549,0.144444451959316,-0.00183259579353034,-0.0103847095742822,-0.01191187184304
5,1.00694447590948,-0.0458333348996699,0.152777778946911,0.00397062394768,-0.0186313893646002,-0.0100792767480016
5,1.0125000434425,-0.0416666683668809,0.151388899219622,0.00488692196086049,-0.0235183127224445,-0.000305432622553781
5,1.01111115155925,-0.0388888906783549,0.136111112815755,0.01191187184304,-0.0122173046693206,0.00152716308366507
5,1.02222228662528,-0.0388888906783549,0.13750000469901,0.00916297826915979,-0.0149661982432008,0.000610865245107561
5,1.02222228662528,-0.0416666683668809,0.141666668192807,0.00824668072164059,-0.00641408516094089,-0.00794124789535999
5,1.02222228662528,-0.0458333348996699,0.14583334384257,0.0161879286170006,-0.00427605677396059,0.00427605677396059
5,1.02222228662528,-0.0430555572111439,0.150000007336368,0.0247400421649218,0.00305432616733015,-0.000916297896765172
5,1.02361117850853,-0.0416666683668809,0.143055560076062,0.0284052342176437,0.00885754637420177,0.00580321997404099
5,1.01944450285877,-0.0458333348996699,0.14722222356986,0.0280998013913631,0.00916297826915979,0.00549778714776039
5,1.01666671909226,-0.0416666683668809,0.13750000469901,0.0207694191485643,0.00305432616733015,0.011606439948082
5,1.00972225967599,-0.0444444460554069,0.152777778946911,0.0235183127224445,-0.0131336031481624,0.00641408516094089
5,1.0125000434425,-0.0416666683668809,0.150000007336368,0.0226020142436027,-0.0106901414692402,0.00702495034784079
5,1.01527782720901,-0.03194444645704,0.140277788465518,0.015577063895762,0.000916297896765172,-0.00122173049021512
5,1.02083339474202,-0.0361111129898289,0.14722222356986,0.0152716310694814,0.00183259579353034,0.00519235478714108
5,1.01944450285877,-0.0375000018340919,0.14583334384257,0.017409659922123,0.00855211354792118,-0.0045814891345799
5,1.02222228662528,-0.0361111129898289,0.140277788465518,0.0232128798961639,-0.000916297896765172,-0.0033597587607801
5,1.02361117850853,-0.0361111129898289,0.141666668192807,0.0204639863222837,0.00152716308366507,-0.00671951752156019
5,1.01666671909226,-0.0361111129898289,0.140277788465518,0.0027488935738802,0.015577063895762,-0.0131336031481624
5,1.01388893532575,-0.0416666683668809,0.14722222356986,-0.00122173049021512,0.01191187184304,-0.0180205255746841
5,1.01527782720901,-0.0361111129898289,0.14722222356986,-0.00397062394768,0.00397062394768,-0.00641408516094089
5,1.01666671909226,-0.0430555572111439,0.138888896582264,0.0100792767480016,0.00488692196086049,0.0033597587607801
5,1.01666671909226,-0.0361111129898289,0.140277788465518,0.0128281703218818,0.00580321997404099,0.0021380283869803
5,1.01388893532575,-0.0416666683668809,0.140277788465518,0.017409659922123,0.00519235478714108,0.00671951752156019
5,1.0125000434425,-0.0458333348996699,0.141666668192807,0.0100792767480016,-0.00305432616733015,-0.000610865245107561
5,1.01527782720901,-0.0361111129898289,0.13750000469901,0.00183259579353034,-0.0109955742955208,0.000610865245107561
5,1.01111115155925,-0.0388888906783549,0.13750000469901,0.0109955742955208,-0.00488692196086049,-0.000916297896765172
5,1.01527782720901,-0.0388888906783549,0.141666668192807,0.00763581553474069,-0.0113010071218014,-0.00427605677396059
5,1.01666671909226,-0.033333335301303,0.134722233088466,0.00122173049021512,0.00763581553474069,-0.00122173049021512
5,1.01388893532575,-0.0347222241455659,0.143055560076062,-0.00794124789535999,0.00519235478714108,-0.00488692196086049
5,1.0125000434425,-0.029166668768514,0.166666673467524,-0.00702495034784079,-0.00946841109544039,0.00305432616733015
5,1.01527782720901,-0.03194444645704,0.150000007336368,-0.0103847095742822,-0.015577063895762,-0.00824668072164059
5,1.01666671909226,-0.033333335301303,0.144444451959316,-0.0149661982432008,-0.00519235478714108,-0.00885754637420177
5,1.01527782720901,-0.033333335301303,0.138888896582264,-0.0207694191485643,0.00916297826915979,-0.00641408516094089
5,1.01527782720901,-0.0388888906783549,0.144444451959316,-0.0284052342176437,0.00824668072164059,-0.0027488935738802
5,1.01111115155925,-0.0402777795226179,0.156944454596674,-0.0204639863222837,-0.00733038317412138,-0.00733038317412138
5,1.0125000434425,-0.0458333348996699,0.150000007336368,-0.0167987942695618,-0.0103847095742822,-0.00610865233466029
5,1.0125000434425,-0.0458333348996699,0.150000007336368,0.000305432622553781,-0.0207694191485643,-0.0045814891345799
5,1.01666671909226,-0.0458333348996699,0.140277788465518,0.00855211354792118,-0.0164933614432812,0.00397062394768
5,1.01666671909226,-0.0458333348996699,0.151388899219622,0.0204639863222837,-0.0207694191485643,-0.00366519158706069
5,1.01666671909226,-0.0458333348996699,0.151388899219622,0.0284052342176437,-0.011606439948082,-0.000610865245107561
5,1.01805561097552,-0.0486111125881959,0.14722222356986,0.0335975885391235,-0.0140499006956816,0.00183259579353034
5,1.02222228662528,-0.0444444460554069,0.144444451959316,0.0378736443817616,0.00183259579353034,0.00397062394768
5,1.02222228662528,-0.0444444460554069,0.144444451959316,0.0497855171561241,0.00549778714776039,0.0113010071218014
5,1.02638896227504,-0.0416666683668809,0.138888896582264,0.0546724386513233,0.0265726372599602,0.0164933614432812
5,1.02083339474202,-0.0402777795226179,0.13750000469901,0.0623082555830479,0.0397062413394451,0.0265726372599602
5,1.02083339474202,-0.0402777795226179,0.13750000469901,0.0580321997404099,0.0372627787292004,0.0164933614432812
5,1.01527782720901,-0.03194444645704,0.140277788465518,0.04764748737216,0.0247400421649218,0.019547687843442
5,1.01527782720901,-0.03194444645704,0.140277788465518,0.04764748737216,0.0247400421649218,0.019547687843442
5,1.00694447590948,-0.03194444645704,0.14722222356986,0.0418442711234093,0.00610865233466029,0.0345138870179653
5,1.00972225967599,-0.0347222241455659,0.14583334384257,0.0448985956609249,-0.00152716308366507,0.0235183127224445
5,1.0125000434425,-0.0347222241455659,0.148611115453114,0.0424551330506802,0.00488692196086049,0.017409659922123
5,1.01944450285877,-0.0361111129898289,0.14583334384257,0.0406225398182869,0.00610865233466029,0.0229074470698834
5,1.01944450285877,-0.0402777795226179,0.133333341205212,0.0400116741657257,0.0100792767480016,0.00885754637420177
5,1.02083339474202,-0.0402777795226179,0.138888896582264,0.0400116741657257,0.0152716310694814,0.0033597587607801
5,1.02222228662528,-0.0388888906783549,0.144444451959316,0.0329867228865623,0.0134390350431204,0.00152716308366507
5,1.01944450285877,-0.0361111129898289,0.150000007336368,0.0323758572340012,0.0189368221908808,-0.00671951752156019
5,1.01666671909226,-0.0361111129898289,0.143055560076062,0.0241291765123606,0.0180205255746841,-0.01588249579072
5,1.01944450285877,-0.0347222241455659,0.140277788465518,0.02382374368608,0.0201585534960032,-0.00885754637420177
5,1.01944450285877,-0.0361111129898289,0.14722222356986,0.0171042270958424,0.0222965814173222,-0.0106901414692402
5,1.0125000434425,-0.0361111129898289,0.148611115453114,0.00122173049021512,0.01191187184304,-0.00244346098043024
5,1.01388893532575,-0.0361111129898289,0.138888896582264,-0.00366519158706069,0.0106901414692402,-0.0100792767480016
5,1.01388893532575,-0.033333335301303,0.150000007336368,-0.0192422550171614,0.0122173046693206,-0.00946841109544039
5,1.01527782720901,-0.033333335301303,0.144444451959316,-0.0152716310694814,0.00733038317412138,-0.0113010071218014
5,1.01944450285877,-0.033333335301303,0.150000007336368,-0.0284052342176437,0.00977384392172098,-0.00580321997404099
5,1.01944450285877,-0.0347222241455659,0.154166670830166,-0.0253509078174829,0.0149661982432008,-0.00305432616733015
5,1.01805561097552,-0.0361111129898289,0.156944454596674,-0.0222965814173222,0.00855211354792118,-0.00610865233466029
5,1.01944450285877,-0.0361111129898289,0.152777778946911,-0.0265726372599602,0.0177150927484035,-0.0122173046693206
5,1.01666671909226,-0.0388888906783549,0.154166670830166,-0.0351247526705265,0.0241291765123606,-0.0128281703218818
5,1.01666671909226,-0.0347222241455659,0.14722222356986,-0.029626963660121,0.0183259565383196,-0.0140499006956816
5,1.01805561097552,-0.0375000018340919,0.148611115453114,-0.0390953756868839,0.0164933614432812,-0.00794124789535999
5,1.01666671909226,-0.0361111129898289,0.144444451959316,-0.0348193198442459,0.0183259565383196,-0.00733038317412138
5,1.01527782720901,-0.0388888906783549,0.154166670830166,-0.0424551330506802,0.017409659922123,-0.00641408516094089
5,1.01666671909226,-0.0361111129898289,0.161111118090472,-0.0345138870179653,0.0302378293126821,-0.0100792767480016
5,1.01527782720901,-0.0402777795226179,0.156944454596674,-0.0290160998702049,0.0299323964864016,-0.00824668072164059
5,1.01388893532575,-0.0388888906783549,0.159722226207217,-0.0326812900602817,0.0290160998702049,-0.01191187184304
5,1.01388893532575,-0.0388888906783549,0.159722226207217,-0.0262672062963247,0.0259617734700441,-0.017409659922123
5,1.01805561097552,-0.0402777795226179,0.151388899219622,-0.0268780700862408,0.0244346093386412,-0.0134390350431204
5,1.01805561097552,-0.0402777795226179,0.151388899219622,-0.0207694191485643,0.0351247526705265,-0.00488692196086049
5,1.00972225967599,-0.0388888906783549,0.14583334384257,-0.0192422550171614,0.0329867228865623,-0.00977384392172098
5,1.00972225967599,-0.0388888906783549,0.14583334384257,-0.01588249579072,0.02382374368608,-0.0149661982432008
5,1.00972225967599,-0.0361111129898289,0.151388899219622,-0.0131336031481624,0.0125227374956012,-0.0100792767480016
5,1.01527782720901,-0.0388888906783549,0.144444451959316,-0.00519235478714108,0.011606439948082,-0.011606439948082
5,1.01388893532575,-0.0375000018340919,0.156944454596674,0.0140499006956816,0.00305432616733015,-0.00519235478714108
5,1.01388893532575,-0.0361111129898289,0.15555556271342,0.0210748501121998,0.00366519158706069,-0.000610865245107561
5,1.0125000434425,-0.0375000018340919,0.15555556271342,0.0271835029125214,0.00763581553474069,0.00305432616733015
5,1.01388893532575,-0.0416666683668809,0.156944454596674,0.0268780700862408,-0.000610865245107561,0.00305432616733015
5,1.01527782720901,-0.0347222241455659,0.152777778946911,0.0259617734700441,0.00244346098043024,0.00702495034784079
5,1.01527782720901,-0.0402777795226179,0.152777778946911,0.0186313893646002,-0.00580321997404099,-0.00305432616733015
5,1.0125000434425,-0.03194444645704,0.156944454596674,0.0232128798961639,-0.00580321997404099,-0.00244346098043024
5,1.0125000434425,-0.0361111129898289,0.163888889701015,0.0229074470698834,-0.00671951752156019,0.00580321997404099
5,1.01527782720901,-0.0375000018340919,0.150000007336368,0.0326812900602817,-0.00244346098043024,0.0149661982432008
5,1.0125000434425,-0.0402777795226179,0.151388899219622,0.0241291765123606,-0.0021380283869803,0.00794124789535999
5,1.01527782720901,-0.03194444645704,0.154166670830166,0.0232128798961639,-0.00946841109544039,0.0143553335219622
5,1.01527782720901,-0.0402777795226179,0.154166670830166,0.0189368221908808,-0.00702495034784079,0.00824668072164059
5,1.01527782720901,-0.0347222241455659,0.154166670830166,0.0229074470698834,0.000610865245107561,0.00427605677396059
5,1.01944450285877,-0.033333335301303,0.159722226207217,0.0180205255746841,0.00397062394768,0.00488692196086049
5,1.01944450285877,-0.0347222241455659,0.154166670830166,0.0161879286170006,0.011606439948082,0.0109955742955208
5,1.01944450285877,-0.0388888906783549,0.156944454596674,0.0171042270958424,0.00733038317412138,0.00488692196086049
5,1.02222228662528,-0.0361111129898289,0.154166670830166,0.00855211354792118,0.0204639863222837,-0.000916297896765172
5,1.01527782720901,-0.0388888906783549,0.151388899219622,-0.00488692196086049,0.0122173046693206,0.00916297826915979
5,1.01388893532575,-0.0361111129898289,0.151388899219622,-0.00549778714776039,0.00244346098043024,-0.00610865233466029
5,1.01666671909226,-0.0347222241455659,0.159722226207217,-0.0033597587607801,-0.0204639863222837,-0.000305432622553781
5,1.01527782720901,-0.029166668768514,0.152777778946911,0.0125227374956012,-0.00824668072164059,-0.00549778714776039
5,1.01527782720901,-0.0361111129898289,0.154166670830166,0.0256563406437635,-0.00183259579353034,-0.00122173049021512
5,1.00833336779274,-0.030555557612777,0.151388899219622,0.0192422550171614,-0.00519235478714108,0.00122173049021512
5,1.00277780025972,-0.0361111129898289,0.156944454596674,0.00641408516094089,-0.00763581553474069,-0.0045814891345799
5,1.00972225967599,-0.0375000018340919,0.152777778946911,-0.0183259565383196,-0.021685715764761,-0.00397062394768
5,1.00972225967599,-0.0347222241455659,0.15555556271342,-0.0452040284872055,-0.0348193198442459,-0.0146607663482428
5,1.00972225967599,-0.033333335301303,0.14722222356986,-0.0592539273202419,-0.0329867228865623,-0.0204639863222837
5,1.01527782720901,-0.03194444645704,0.152777778946911,-0.0540615729987621,-0.0167987942695618,-0.0183259565383196
5,1.01944450285877,-0.033333335301303,0.156944454596674,-0.0332921557128429,-0.0143553335219622,-0.0189368221908808
5,1.02500007039179,-0.0250000007162294,0.161111118090472,-0.00488692196086049,-0.00549778714776039,-0.00610865233466029
5,1.0305556379248,-0.030555557612777,0.150000007336368,-0.0241291765123606,0.0103847095742822,-0.00702495034784079
5,1.02500007039179,-0.0375000018340919,0.140277788465518,-0.0430659987032413,0.0222965814173222,-0.0189368221908808
5,1.0125000434425,-0.0375000018340919,0.140277788465518,-0.0500909499824047,0.0329867228865623,-0.015577063895762
5,1.00416669214298,-0.0416666683668809,0.158333334323963,-0.0335975885391235,0.00580321997404099,-0.00488692196086049
5,1.00277780025972,-0.0430555572111439,0.156944454596674,-0.0372627787292004,-0.0100792767480016,-0.0100792767480016
5,1.00277780025972,-0.0430555572111439,0.156944454596674,-0.0439822971820831,-0.0103847095742822,-0.0149661982432008
5,1.00972225967599,-0.0361111129898289,0.158333334323963,-0.0497855171561241,-0.017409659922123,-0.0143553335219622
5,1.0125000434425,-0.03194444645704,0.170833336961321,-0.0332921557128429,-0.00794124789535999,-0.015577063895762
5,1.0125000434425,-0.027777779924251,0.176388892338373,-0.017409659922123,-0.0113010071218014,-0.00946841109544039
5,1.0125000434425,-0.03194444645704,0.166666673467524,-0.0134390350431204,-0.0161879286170006,-0.00397062394768
