Activity,acc_x,acc_y,acc_z,gyro_x,gyro_y,gyro_z
0,0.25555557165632,0.0513888902767219,0.997222232726705,-0.225103840231896,0.0778853222727776,-0.0033597587607801
0,0.236111109602691,0.0388888906783549,0.990277773310434,-0.108428582549095,0.217162594199181,0.0113010071218014
0,0.236111109602691,0.0388888906783549,0.990277773310434,0.0565050356090069,0.090408056974411,-0.0369573459029198
0,0.236111109602691,0.0388888906783549,0.990277773310434,0.0565050356090069,0.090408056974411,-0.0369573459029198
0,0.265277790527169,0.055555559848502,0.93750007624221,0.12675453722477,-0.0290160998702049,-0.0433714315295219
0,0.265277790527169,0.055555559848502,0.93750007624221,0.18020524084568,0.04764748737216,-0.0445931628346443
0,0.259722222994153,0.0541666679652478,0.947222222177272,0.133474051952362,0.0302378293126821,-0.0335975885391235
0,0.247222220356795,0.101388894748172,0.952777789710289,0.00824668072164059,0.00397062394768,-0.0125227374956012
0,0.287500012035377,0.0513888902767219,0.980555627375371,0.0271835029125214,0.0027488935738802,-0.0232128798961639
0,0.258333331110899,0.0652777787193518,0.969444492309338,-0.0219911485910416,0.0299323964864016,-0.0284052342176437
0,0.259722222994153,0.0611111152255539,0.959722249126559,0.0494800843298435,0.0232128798961639,0.0189368221908808
0,0.233333350148112,0.0750000036681839,0.963888924776322,0.0638354197144508,0.0491746515035629,0.0491746515035629
0,0.250000004123303,0.0819444448505077,0.970833384192592,0.117896988987923,0.194560587406159,0.0427605658769607
0,0.247222220356795,0.0847222225390337,0.976388951725609,0.0928515195846558,0.233350530266762,0.0772744566202164
0,0.252777787889811,0.0819444448505077,0.976388951725609,0.0629191175103188,-0.0488692186772823,-0.0360410511493683
0,0.25555557165632,0.113888891307548,0.969444492309338,0.0815505087375641,0.0458148941397667,0.0244346093386412
0,0.247222220356795,0.0680555564078778,0.94305554652751,-0.117591559886932,0.0045814891345799,0.0409279726445675
0,0.254166679773066,0.0916666697993398,0.951388897827035,-0.284663200378418,-0.0113010071218014,0.0229074470698834
0,0.230555566381603,0.0944444474878658,0.979166735492117,-0.23304508626461,0.0980438739061356,0.0140499006956816
0,0.233333350148112,0.0666666706026059,0.979166735492117,-0.16920967400074,0.245567828416824,-0.0177150927484035
0,0.270833333748257,0.0652777787193518,0.969444492309338,-0.149051114916802,0.0928515195846558,-0.0418442711234093
0,0.238888893369199,0.0472222237439329,0.961111141009813,-0.0998764708638191,-0.107817716896534,0.0103847095742822
0,0.243055569018962,0.0500000014324589,0.955555573476797,-0.00763581553474069,-0.143247902393341,0.0125227374956012
0,0.243055569018962,0.0500000014324589,0.955555573476797,0.0980438739061356,-0.193644285202026,-0.0415388382971287
0,0.254166679773066,0.0583333375370279,0.98888888142718,0.0888808965682983,-0.291993588209152,-0.0219911485910416
0,0.262500006760661,0.0513888902767219,0.96666670854283,0.0464257597923279,-0.319482535123825,-0.0021380283869803
0,0.262500006760661,0.0513888902767219,0.96666670854283,0.0464257597923279,-0.319482535123825,-0.0021380283869803
0,0.270833333748257,0.0513888902767219,0.947222222177272,-0.00152716308366507,-0.184786736965179,0.00122173049021512
0,0.276388901281273,0.0513888902767219,0.93750007624221,-0.00397062394768,-0.395535260438919,0.0598647929728031
0,0.268055574293678,0.0347222241455659,0.918055589876652,0.0390953756868839,-0.604756593704224,0.164933621883392
0,0.251388896006557,0.030555557612777,0.916666697993398,0.244040668010712,-0.468839079141617,0.184175878763199
0,0.234722242031366,0.0666666706026059,0.958333357243305,0.326202034950256,-0.229379892349243,0.175623759627342
0,0.25555557165632,0.0861111144222878,0.994444448960196,0.288022965192795,-0.124921940267086,0.175929188728332
0,0.275000009398019,0.113888891307548,1.02083339474202,0.0201585534960032,-0.0543670058250427,0.0543670058250427
0,0.308333341660331,0.100000002864918,0.981944519258625,-0.142942473292351,0.0384845100343227,0.0534507073462009
0,0.33750002258481,0.0750000036681839,0.96666670854283,-0.196393176913261,-0.0500909499824047,0.0736092627048492
0,0.359722244093018,0.0625000010308258,0.952777789710289,-0.168293371796608,-0.19058994948864,0.12156218290329
0,0.387500008822313,0.0805555590452358,0.968055600426084,-0.087659165263176,-0.270613312721252,0.110261179506779
0,0.377777789951463,0.0805555590452358,0.94305554652751,-0.076052725315094,-0.101098194718361,0.152716308832169
0,0.413888905980283,0.104166672436698,0.931944508709193,0.0302378293126821,0.401033043861389,0.260228604078293
0,0.381944465601225,0.140277788465518,0.906944454810619,-0.237626582384109,0.358883321285248,0.267558991909027
0,0.319444452414435,0.163888889701015,0.94305554652751,-0.189979091286659,0.336281329393387,0.350942075252533
0,0.288888903918631,0.206944452990142,0.926388941176177,-0.0778853222727776,0.241291776299477,0.280692577362061
0,0.277777793164528,0.130555557438704,0.89722221162784,-0.154548913240433,0.0455094613134861,0.48136180639267
0,0.266666682410424,0.108333335930496,0.895833319744586,-0.16951510310173,0.0885754600167274,0.624304294586182
0,0.250000004123303,0.0458333348996699,0.894444525109048,-0.11636982858181,-0.0726929605007172,0.648738861083984
0,0.200000005729836,-0.0111111115138517,0.870833363093728,0.10598511993885,-0.0665843114256859,0.600785970687866
0,0.177777784221628,-0.0625000010308258,0.879166714393253,0.313984721899033,-0.252898216247559,0.351858377456665
0,0.206944452990142,-0.0888888921108138,0.89722221162784,0.398894995450974,-0.261450320482254,0.0952949747443199
0,0.279166685047782,-0.0833333367337618,0.911111130460381,0.520151734352112,-0.187230199575424,0.0265726372599602
0,0.329166671285285,-0.0736111117849297,0.94305554652751,0.549778699874878,-0.118507854640484,0.013744467869401
0,0.351388892793493,-0.055555559848502,0.979166735492117,0.448375076055527,-0.125532805919647,0.0106901414692402
0,0.344444457689151,-0.0458333348996699,1.00972225967599,0.417220950126648,-0.0949895456433296,0.00244346098043024
0,0.331944455051793,-0.03194444645704,1.02638896227504,0.362853944301605,-0.0885754600167274,-0.0665843114256859
0,0.318055560531181,-0.029166668768514,1.03750000009336,0.341779112815857,-0.166766211390495,-0.192117124795914
0,0.333333346935047,-0.0125000003581147,1.03472221632685,0.355829000473023,-0.201890960335732,-0.271529614925385
0,0.333333346935047,-0.0125000003581147,1.04166667574312,0.386372268199921,-0.0693332031369209,-0.189062789082527
0,0.256944463539574,-0.00694444498106275,1.01805561097552,0.157908663153648,-0.141720741987228,-0.0491746515035629
0,0.161111118090472,0.00555555575692586,0.99583334084345,-0.170431405305862,-0.146913096308708,-0.090408056974411
0,0.14722222356986,0.030555557612777,0.961111141009813,-0.29107728600502,0.260839462280273,-0.383928805589676
0,0.252777787889811,0.0930555616825939,0.909722238577127,-0.296880513429642,0.156076073646545,-0.485027015209198
0,0.318055560531181,0.120833338567854,0.881944498159761,-0.22724187374115,-0.160962998867035,-0.365602850914002
0,0.411111122213775,0.156944454596674,0.85138887672817,-0.0378736443817616,0.0201585534960032,-0.218689754605293
0,0.473611111088636,0.19166667874224,0.911111130460381,0.081855945289135,0.225409269332886,-0.170431405305862
0,0.47500000297189,0.206944452990142,0.934722292475701,-0.00671951752156019,0.162795588374138,-0.133779495954514
0,0.479166678621653,0.194444450352783,0.979166735492117,-0.0045814891345799,0.0574213340878487,-0.0372627787292004
0,0.463888916529715,0.180555567988136,1.00277780025972,0.0577267669141293,0.0671951770782471,0.0546724386513233
0,0.430555559955475,0.163888889701015,1.00555558402623,0.0500909499824047,0.076052725315094,0.150578290224075
0,0.368055571080613,0.126388893944906,1.01944450285877,-0.0656680166721344,-0.104457959532738,0.129503428936005
0,0.358333352209763,0.111111119697004,1.01944450285877,-0.0616973899304867,-0.142026171088219,0.147218525409698
0,0.325000019947452,0.0944444474878658,1.00555558402623,-0.0192422550171614,-0.00397062394768,0.210748508572578
0,0.309722233543585,0.0722222259796579,0.980555627375371,-0.0897971913218498,-0.132863193750381,0.236099421977997
0,0.294444447139719,0.0541666679652478,0.947222222177272,-0.0763581544160843,-0.0372627787292004,0.223882108926773
0,0.294444447139719,0.0541666679652478,0.947222222177272,0.0635299831628799,0.0678060427308083,0.229074463248253
0,0.272222225631511,0.0458333348996699,0.930555616825939,0.137750118970871,0.0335975885391235,0.204639852046967
0,0.238888893369199,0.0583333375370279,0.923611157409668,0.132557764649391,0.0479529201984406,0.138666406273842
0,0.262500006760661,0.0416666683668809,0.947222222177272,-0.0543670058250427,-0.0335975885391235,0.0940732508897781
0,0.265277790527169,0.0583333375370279,0.94305554652751,-0.0882700309157372,-0.0345138870179653,0.0558941699564457
0,0.254166679773066,0.0500000014324589,0.95000000594378,-0.208305045962334,0.0858265683054924,-0.0366519130766392
0,0.243055569018962,0.0402777795226179,0.940277860008718,-0.11087204515934,0.0638354197144508,-0.0574213340878487
0,0.277777793164528,0.0416666683668809,0.933333400592447,0.0439822971820831,-0.0152716310694814,0.0607810914516449
0,0.304166666010569,0.0611111152255539,0.92083337364316,0.00244346098043024,-0.0769690200686455,0.0589484944939613
0,0.294444447139719,0.0680555564078778,0.931944508709193,-0.203723564743996,-0.23823744058609,0.101709060370922
0,0.281944444502361,0.0791666671619817,0.940277860008718,-0.311846703290939,-0.165239050984383,-0.0464257597923279
0,0.276388901281273,0.0388888906783549,0.959722249126559,-0.245262399315834,-0.204639852046967,-0.308181524276733
0,0.315277801076602,0.0680555564078778,0.955555573476797,-0.108428582549095,-0.170736834406853,-0.151189148426056
0,0.361111135976272,0.0583333375370279,0.940277860008718,-0.112093769013882,-0.0797179117798805,-0.11117747426033
0,0.354166676560001,0.0847222225390337,0.93750007624221,-0.107817716896534,-0.144164204597473,-0.0699440687894821
0,0.358333352209763,0.0777777813567098,0.93750007624221,-0.0507018156349659,-0.0839939713478088,-0.149356558918953
0,0.366666679197359,0.0791666671619817,0.940277860008718,0.0415388382971287,0.176234617829323,-0.18509216606617
0,0.375000006184955,0.0847222225390337,0.954166681593543,0.0210748501121998,0.204334422945976,-0.130114302039146
0,0.391666684472075,0.0875000002275597,0.959722249126559,-0.0888808965682983,0.0821613743901253,-0.015577063895762
0,0.376388898068209,0.0777777813567098,0.929166724942685,-0.0784961804747581,0.01588249579072,-0.0335975885391235
0,0.351388892793493,0.0750000036681839,0.92083337364316,0.0253509078174829,0.0262672062963247,-0.0980438739061356
0,0.334722238818301,0.0638888929140799,0.933333400592447,0.0830776765942574,-0.119729585945606,-0.118202425539494
0,0.345833349572405,0.0597222233422998,0.929166724942685,0.102319926023483,-0.000916297896765172,-0.0708603709936142
0,0.356944460326509,0.055555559848502,0.938888968125464,-0.011606439948082,0.0253509078174829,-0.0384845100343227
0,0.348611133338914,0.0541666679652478,0.945833330294018,-0.109650313854218,-0.00885754637420177,-0.0427605658769607
0,0.334722238818301,0.0402777795226179,0.94305554652751,-0.199752941727638,-0.0565050356090069,-0.0992656052112579
0,0.315277801076602,0.0250000007162294,0.941666654644256,-0.193338856101036,0.0140499006956816,-0.170431405305862
0,0.33750002258481,0.0416666683668809,0.933333400592447,-0.136833816766739,-0.0378736443817616,-0.117286130785942
0,0.368055571080613,0.0361111129898289,0.916666697993398,-0.078801617026329,-0.136528387665749,0.0244346093386412
0,0.361111135976272,0.030555557612777,0.92083337364316,-0.0403171069920063,0.0363464802503586,0.0436768643558025
0,0.344444457689151,0.0250000007162294,0.927777833059431,-0.0332921557128429,0.110566608607769,0.0204639863222837
0,0.308333341660331,0.0236111118719664,0.923611157409668,-0.148745685815811,-0.0815505087375641,0.00916297826915979
0,0.312500017310094,0.0180555564949145,0.923611157409668,-0.100792765617371,-0.199752941727638,-0.090408056974411
0,0.319444452414435,0.0180555564949145,0.930555616825939,0.0604756586253643,-0.0421497002243996,-0.118507854640484
0,0.327777779402031,0.0166666676506515,0.929166724942685,0.100792765617371,0.150883719325066,-0.168293371796608
0,0.362500003547597,0.0472222237439329,0.972222276075846,-0.0815505087375641,0.0974330082535744,-0.114842668175697
0,0.387500008822313,0.0638888929140799,0.976388951725609,-0.222660377621651,0.267253547906876,-0.0403171069920063
0,0.376388898068209,0.0430555572111439,0.959722249126559,-0.292604446411133,0.382096201181412,-0.0045814891345799
0,0.341666673922643,0.0250000007162294,0.951388897827035,-0.33841934800148,0.464563012123108,-0.0589484944939613
0,0.288888903918631,-0.0222222230277034,0.926388941176177,-0.114842668175697,0.478612929582596,-0.123700208961964
0,0.272222225631511,-0.0916666697993398,0.781944477060896,-0.102930791676045,-0.430049121379852,0.01191187184304
0,0.273611117514765,-0.0347222241455659,0.809722266102121,-0.678976714611053,-2.27547311782837,0.176540061831474
0,0.275000009398019,-0.00277777787846293,0.895833319744586,-0.623693406581879,-2.52531695365906,0.403476506471634
0,0.355555568443255,-0.00694444498106275,0.941666654644256,-0.489608496427536,-2.44926428794861,0.111788339912891
0,0.406944470875941,-0.00138888893923146,0.973611167959101,-0.357661604881287,-2.17162585258484,-0.0925460830330849
0,0.463888916529715,-0.00416666691266287,0.94305554652751,-0.363770246505737,-1.6001615524292,0.0287106670439243
0,0.509722251429385,-0.029166668768514,0.848611190209378,-0.410501450300217,-0.816726803779602,0.150578290224075
0,0.523611121638068,-0.0152777788063885,0.806944482335612,-0.365602850914002,0.327118337154388,0.205861583352089
0,0.466666700296224,-0.00833333382532574,0.805555590452358,-0.184481307864189,1.2834278345108,0.385455965995789
0,0.444444478788016,-0.0222222230277034,0.833333379493583,-0.119424156844616,1.84939455986023,0.365908294916153
0,0.462500024646461,-0.0930555616825939,0.86805557932722,-0.146302223205566,2.18689751625061,0.409279704093933
0,0.356944460326509,-0.0861111144222878,0.96666670854283,-0.109955742955208,2.58273816108704,0.510988771915436
0,0.356944460326509,-0.0861111144222878,0.96666670854283,-0.0485637858510017,2.8481593132019,0.5555819272995
0,0.136111112815755,0.0666666706026059,1.00555558402623,-0.197614908218384,2.80417680740356,0.875980734825134
0,0.0625000010308258,0.0750000036681839,0.895833319744586,-0.520151734352112,2.96880507469177,1.43034100532532
0,0.0722222259796579,-0.140277788465518,0.948611114060526,-0.495106279850006,2.98071694374085,0.822224617004395
0,0.176388892338373,-0.0763888894734557,0.98888888142718,0.0033597587607801,2.7324001789093,-0.144469633698463
0,0.166666673467524,-0.0180555564949145,0.836111163260091,0.218384325504303,3.85455965995789,-1.48837316036224
0,0.25555557165632,-0.138888896582264,0.918055589876652,-0.756251156330109,4.7314567565918,-2.06991696357727
0,0.304166666010569,-0.404166687109433,0.644444472361887,-0.0626136884093285,2.58334922790527,0.543670058250427
0,0.0569444456537738,-0.270833333748257,0.630555602153203,0.29657506942749,-0.37568211555481,1.86436069011688
0,-0.052777782159976,-0.163888889701015,0.647222256128395,0.916908740997314,-3.13434958457947,3.56226062774658
0,-0.16527778158427,-0.0152777788063885,1.01527782720901,-1.39002382755279,0.768773913383484,3.78675365447998
0,-0.16527778158427,-0.0152777788063885,1.01527782720901,-1.40437924861908,3.54607272148132,2.4935519695282
0,-0.0347222241455659,-0.00416666691266287,1.11805563207438,-0.919657647609711,5.34904146194458,0.794430255889893
0,-0.262500006760661,-0.184722231481934,0.926388941176177,-1.40651726722717,3.89884734153748,0.547029852867126
0,-0.318055560531181,-0.211111128639904,0.886111173809523,-2.16246294975281,0.882394850254059,1.95201992988586
0,-0.365277787314105,-0.263888898643915,0.911111130460381,-1.86283361911774,0.387288570404053,2.14444255828857
0,-0.452777781463682,-0.252777787889811,0.933333400592447,-1.08520209789276,0.58704149723053,2.18323230743408
0,-0.452777781463682,-0.252777787889811,0.933333400592447,-0.364686548709869,0.761748969554901,1.6111570596695
0,-0.483333354271415,-0.29166668768514,0.938888968125464,0.0543670058250427,0.621860802173615,1.11360728740692
0,-0.476388894855144,-0.281944444502361,0.908333346693873,0.0314595587551594,0.0601702257990837,1.13987457752228
0,-0.430555559955475,-0.319444452414435,0.930555616825939,0.00580321997404099,-0.536339700222015,1.1145236492157
0,-0.430555559955475,-0.319444452414435,0.930555616825939,0.0134390350431204,-0.607810914516449,1.00853848457336
0,-0.454166673346937,-0.215277779977737,0.965277816659576,0.0277943685650826,-0.276721954345703,0.805425822734833
0,-0.449999997697174,-0.181944447715425,0.963888924776322,0.017409659922123,-0.298407673835754,0.667981147766113
0,-0.400000011459671,-0.193055558469529,0.98888888142718,-0.081855945289135,-0.505185544490814,0.612697839736938
0,-0.44583337067127,-0.106944444047242,1.0305556379248,-0.287106662988663,-1.00823307037353,0.564439475536346
0,-0.451388889580428,-0.0916666697993398,1.04166667574312,-0.695775508880615,-1.59985601902008,0.52381694316864
0,-0.408333338447267,-0.105555564319952,1.0125000434425,-1.16278195381165,-1.79869270324707,0.488081336021423
0,-0.315277801076602,-0.104166672436698,0.981944519258625,-1.59130394458771,-1.33443510532379,0.181426972150803
0,-0.279166685047782,-0.120833338567854,1.00000001649321,-1.74371480941773,-0.932791233062744,-0.363159388303757
0,-0.266666682410424,-0.218055563744246,1.0333333244436,-1.42942464351654,-0.5555819272995,-0.324369430541992
0,-0.238888893369199,-0.250000004123303,1.01805561097552,-1.06748700141907,-0.175929188728332,-0.192727982997894
0,-0.190277786858986,-0.290277795801886,0.938888968125464,-0.80939644575119,-0.0965167060494423,-0.135306656360626
0,-0.187500003092477,-0.279166685047782,0.872222254976982,-0.718988418579102,-0.454789161682129,-0.1750128865242
0,-0.162500009973726,-0.298611122789481,0.841666730793107,-0.782823801040649,-0.48136180639267,-0.195476874709129
0,-0.190277786858986,-0.341666673922643,0.877777822509998,-0.969443142414093,0.170431405305862,-0.0183259565383196
0,-0.16527778158427,-0.370833354847121,0.92083337364316,-1.23914015293121,0.550084173679352,0.0497855171561241
0,-0.18333333959868,-0.400000011459671,0.905555562927365,-1.53846406936646,0.282525181770325,0.145691365003586
0,-0.208333344873396,-0.422222257279808,0.816666676894533,-1.62581789493561,-0.540310323238373,0.22785273194313
0,-0.230555566381603,-0.441666695021508,0.725000007095193,-1.84420216083527,-1.03327858448029,0.475253164768219
0,-0.231944458264858,-0.440277803138253,0.661111126337078,-2.14169359207153,-1.4178181886673,0.561385154724121
0,-0.179166676104882,-0.531944472937593,0.666666693870094,-2.28891205787659,-2.55341672897339,0.19028452038765
0,-0.130555557438704,-0.611111115787646,0.654166666920807,-2.43949031829834,-3.19115996360779,-0.349720358848572
0,-0.115277783190802,-0.648611148011649,0.687500023495048,-2.01646614074707,-2.71835041046143,-0.862236320972443
0,-0.187500003092477,-0.673611153286365,0.702777785586986,-0.867428660392761,-1.54671084880829,-1.12765729427338
0,-0.133333341205212,-0.712500028769764,0.559722261978817,0.0956004112958908,-1.59955060482025,-1.56014978885651
0,0.00277777787846293,-0.736111142161226,0.545833343146276,0.552222192287445,-2.29929685592651,-2.62305545806885
0,0.0944444474878658,-0.797222239152834,0.634722229179108,-0.36987891793251,-3.50850462913513,-3.59372019767761
0,0.168055565350778,-0.941666654644256,0.702777785586986,-1.83381748199463,-5.23358821868896,-4.01124668121338
0,0.193055558469529,-0.970833384192592,0.66527780198684,-3.25774431228638,-5.17861032485962,-3.9159517288208
0,0.390277792588821,-0.945833330294018,0.515277818962402,-4.59492826461792,-3.11388564109802,-4.06744623184204
0,0.440277803138253,-1.03194452980806,0.543055559379768,-4.96236371994019,-1.61726570129395,-4.26536655426025
0,0.505555575779623,-1.06250005399193,0.545833343146276,-4.3615779876709,-0.79351395368576,-4.18106698989868
0,0.569444456537738,-1.11111117265811,0.473611111088636,-3.26079869270325,-1.22020328044891,-3.18321871757507
0,0.5930555699292,-1.07083340529146,0.434722235605237,-3.11419105529785,-2.85335159301758,-2.71376895904541
0,0.736111142161226,-1.07638897282447,0.276388901281273,-3.76231908798218,-3.60715937614441,-2.78554558753967
0,0.809722266102121,-0.858333336144441,0.202777789496344,-4.2479567527771,-2.44559907913208,-2.2256875038147
0,0.781944477060896,-0.820833352544296,0.212499996211229,-4.00269460678101,0.234572261571884,-1.13284957408905
0,0.723611115211939,-0.708333353120002,0.161111118090472,-3.69665098190308,-0.312763005495071,-0.329561799764633
0,0.852777768611424,-0.623611142736933,-0.00277777787846293,-3.66977286338806,-1.92086577415466,-0.795651972293854
0,0.902777779160856,-0.598611137462217,-0.0680555564078778,-3.74063324928284,-2.42482948303223,-2.1291708946228
0,0.84583340644287,-0.484722246154669,-0.055555559848502,-3.03661108016968,-1.9034560918808,-2.19056272506714
0,0.825000028194058,-0.433333343721983,-0.027777779924251,-2.34236288070679,-1.07756626605988,-1.6978999376297
0,0.969444492309338,-0.443055586904762,0.00694444498106275,-2.23821020126343,-0.345444291830063,-1.68873691558838
0,0.898611103511094,-0.408333338447267,0.00972222266958873,-2.83013868331909,0.788016140460968,-1.56014978885651
0,0.791666671619817,-0.212499996211229,-0.0125000003581147,-3.58272457122803,1.28739845752716,-1.33810031414032
0,0.813888941751883,-0.140277788465518,-0.0444444460554069,-4.00208377838135,0.633161842823029,-1.14292883872986
0,0.998611124609959,-0.140277788465518,-0.0875000002275597,-3.55004334449768,-1.56595301628113,-1.16491997241974
0,1.0694445134082,-0.131944449321958,-0.17361112072783,-2.78035306930542,-2.69696998596191,-1.10383355617523
0,1.00277780025972,-0.0666666706026059,-0.0736111117849297,-1.46516025066376,-0.838107109069824,-0.78251838684082
0,0.993055557076942,-0.0791666671619817,-0.104166672436698,-0.367130011320114,0.268780708312988,-0.912327229976654
0,0.965277816659576,-0.144444451959316,-0.20138889761309,0.201890960335732,0.354607284069061,-0.749226212501526
0,0.916666697993398,-0.0375000018340919,-0.298611122789481,0.488997638225555,0.601091384887695,-0.213497400283814
0,0.969444492309338,0.111111119697004,-0.405555578992687,-0.117591559886932,0.158214092254639,-0.142637029290199
0,1.1083333888916,0.0930555616825939,-0.331944455051793,-0.525954961776733,-0.173485726118088,-1.4223997592926
0,0.963888924776322,-0.0444444460554069,-0.347222241455659,-0.273362189531326,-0.270613312721252,-1.36711645126343
0,0.95000000594378,-0.101388894748172,-0.375000006184955,0.130725160241127,-0.302683740854263,-0.960280179977417
0,0.909722238577127,-0.0722222259796579,-0.375000006184955,0.53817230463028,-0.240070044994354,-0.495411723852158
0,0.92083337364316,0.00277777787846293,-0.424999992422458,0.0684169083833694,-0.297491371631622,-0.898888230323792
0,0.956944465360051,0.0361111129898289,-0.447222262554524,-0.666453957557678,-0.166155353188515,-0.957531273365021
0,0.92083337364316,0.029166668768514,-0.433333343721983,-0.351247519254685,-0.177456349134445,-0.495411723852158
0,0.92083337364316,0.0111111115138517,-0.402777795226179,-0.0534507073462009,-0.134390354156494,0.373849540948868
0,0.894444525109048,0.033333335301303,-0.416666689746791,0.360105067491531,0.0665843114256859,0.830471277236938
0,0.86805557932722,0.0722222259796579,-0.437500019371745,0.768773913383484,-0.329561799764633,0.705243945121765
0,0.944444438410764,-0.0236111118719664,-0.4194444735133,0.692110300064087,-0.29657506942749,0.622777104377747
0,0.927777833059431,-0.0750000036681839,-0.405555578992687,0.0708603709936142,-0.0925460830330849,0.170125976204872
0,0.894444525109048,-0.0458333348996699,-0.42916666807222,-0.469144523143768,-0.195171445608139,-0.395535260438919
0,0.836111163260091,-0.00694444498106275,-0.452777781463682,-1.07298481464386,-0.570242702960968,-1.03633284568787
0,0.902777779160856,0.033333335301303,-0.552777802562547,-0.449902266263962,-1.4101824760437,-0.704327642917633
0,0.830555595727074,0.1194444466846,-0.513888927079148,-0.0910189226269722,-0.701884150505066,-0.240375474095344
0,0.798611131036088,0.122222230451108,-0.511111143312639,-0.226325571537018,-0.430660009384155,-0.389426589012146
0,0.854166660494678,0.10972222781375,-0.536111148587356,0.0314595587551594,-0.0235183127224445,-0.133168622851372
0,1.14027780495873,0.172222228844576,-0.830555595727074,0.782823801040649,-0.000305432622553781,0.399811297655106
0,1.17916668044213,0.0138888899621255,-0.708333353120002,-0.0299323964864016,0.150272846221924,0.296269655227661
0,0.827777811960566,-0.136111112815755,-0.505555575779623,-0.449291378259659,-0.483805269002914,-0.266031801700592
0,0.884722281926269,0.0375000018340919,-0.522222229754814,-0.17440202832222,0.553749322891235,-0.851851582527161
0,0.815277785011279,0.0625000010308258,-0.451388889580428,0.118813291192055,2.39489722251892,-0.959363877773285
0,0.801388914802596,0.141666668192807,-0.531944472937593,0.131336033344269,2.49782800674439,-1.91536796092987
0,0.862500011794203,0.280555576931036,-0.380555573717971,-0.139888137578964,2.29960227012634,-0.849102675914764
0,0.972222276075846,0.195833342236038,-0.426388884305712,-0.358883321285248,-0.278859972953796,0.241902634501457
0,0.890277849459286,0.195833342236038,-0.377777789951463,-0.0775798857212067,0.241902634501457,0.273667633533478
0,0.972222276075846,0.156944454596674,-0.440277803138253,-0.103847093880177,0.141415297985077,0.105068825185299
0,0.973611167959101,0.0944444474878658,-0.449999997697174,0.0610865242779255,0.303905457258224,0.194560587406159
0,0.870833363093728,0.122222230451108,-0.404166687109433,-0.206777885556221,0.131641462445259,0.302378296852112
0,0.745833336720147,-0.0541666679652478,-0.544444451263022,-0.352774679660797,-0.122478485107422,0.0638354197144508
0,0.780555585177642,0.0875000002275597,-0.422222257279808,-0.929736912250519,0.349109500646591,-0.0879645943641663
0,1.01805561097552,0.0916666697993398,-0.386111116939059,-0.238848313689232,0.465784758329391,0.778853178024292
0,1.04444445950963,0.104166672436698,-0.404166687109433,0.162490159273148,0.502436637878418,0.657901883125305
0,0.94305554652751,0.055555559848502,-0.404166687109433,0.115148097276688,0.993572294712067,0.592539310455322
0,0.880555606276507,0.0416666683668809,-0.283333336385615,0.298713117837906,1.2156218290329,0.582459986209869
0,1.15694450755778,-0.0777777813567098,-0.326388911830706,-0.0455094613134861,0.6722571849823,-0.134390354156494
0,1.05555559457566,0.0250000007162294,-0.340277782039389,0.233655959367752,0.818559408187866,0.17440202832222
0,1.06527783775844,0.033333335301303,-0.354166676560001,0.193338856101036,0.747699081897736,0.210748508572578
0,1.06527783775844,0.033333335301303,-0.354166676560001,-0.0253509078174829,0.58551436662674,0.193949714303017
0,0.947222222177272,0.029166668768514,-0.398611119576417,-0.507629036903381,0.872315585613251,0.130114302039146
0,0.805555590452358,-0.03194444645704,-0.16527778158427,-0.301767438650131,1.30022668838501,-0.02382374368608
0,1.07500008094122,0.115277783190802,-0.205555561106887,-0.173485726118088,-0.0867428630590439,-0.015577063895762
0,1.07500008094122,0.115277783190802,-0.205555561106887,-0.124005645513535,0.660039901733398,-0.124005645513535
0,0.99583334084345,0.0722222259796579,-0.326388911830706,-0.146607652306557,0.28496864438057,-0.143247902393341
0,1.03472221632685,0.0347222241455659,-0.24583335278547,-0.214108273386955,0.392786353826523,-0.256563395261765
0,1.03472221632685,0.0347222241455659,-0.24583335278547,0.0268780700862408,0.510072469711304,-0.264504641294479
0,1.00000001649321,0.00416666691266287,-0.234722242031366,0.0751364231109619,0.428216546773911,-0.161573857069016
0,0.941666654644256,0.0625000010308258,-0.161111118090472,0.0198531206697226,0.412028610706329,-0.132557764649391
0,1.00000001649321,0.1194444466846,-0.14583334384257,0.114842668175697,0.300851136445999,-0.000916297896765172
0,1.04861113515939,0.055555559848502,-0.14722222356986,0.376903861761093,0.251065611839294,0.300851136445999
0,1.03194452980806,0.0972222251763917,-0.223611131277262,0.432187169790268,0.129197999835014,0.463341295719147
0,1.0902777944093,0.125000002061652,-0.169444445078067,0.444709897041321,1.54732167720795,0.998459219932556
0,1.0902777944093,0.125000002061652,-0.169444445078067,0.0794124826788902,1.05526971817017,0.734260022640228
0,0.973611167959101,0.17361112072783,-0.166666673467524,0.151800006628036,0.432798027992248,0.529009282588959
0,0.909722238577127,0.187500003092477,-0.113888891307548,0.107206851243973,0.125227376818657,0.0213802829384804
0,0.923611157409668,0.0750000036681839,-0.158333334323963,0.0348193198442459,0.25411993265152,-0.419358998537064
0,0.908333346693873,0.0347222241455659,-0.156944454596674,-0.0488692186772823,0.0369573459029198,-0.483805269002914
0,0.941666654644256,0.0583333375370279,-0.154166670830166,-0.0381790772080422,0.316122770309448,-0.677449584007263
0,0.952777789710289,0.00416666691266287,-0.0861111144222878,0.00977384392172098,0.443793594837189,-0.779158592224121
0,1.03750000009336,0.0361111129898289,-0.113888891307548,-0.0800233483314514,0.306348919868469,-0.744033873081207
0,1.08750001064279,0.0652777787193518,-0.0847222225390337,-0.334754168987274,0.167682513594627,-0.63896507024765
0,1.04583335139288,0.0847222225390337,-0.0861111144222878,-0.320093393325806,0.0549778714776039,-0.609643518924713
0,1.01805561097552,0.102777780553444,-0.0472222237439329,-0.229990765452385,-0.636826992034912,-0.545197248458862
0,1.05694448645892,0.125000002061652,-0.030555557612777,-0.0919352173805237,-0.471893399953842,-0.35491269826889
0,1.06805562152495,0.104166672436698,-0.0486111125881959,0.0952949747443199,-0.592539310455322,-0.288022965192795
0,1.03750000009336,0.106944444047242,-0.130555557438704,0.0241291765123606,-0.398894995450974,-0.00916297826915979
0,1.06250005399193,0.12777778582816,-0.14722222356986,-0.0754418596625328,-0.340557366609573,0.140804439783096
0,1.04027778385987,0.0833333367337618,-0.115277783190802,0.0675006061792374,-0.148440256714821,0.0864374339580536
0,1.04027778385987,0.0833333367337618,-0.115277783190802,0.058643065392971,-0.127976268529892,0.0748309940099716
0,0.993055557076942,0.14722222356986,-0.130555557438704,0.0781907513737679,-0.11636982858181,0.0595593601465225
0,1.01805561097552,0.154166670830166,-0.143055560076062,0.0497855171561241,-0.23243422806263,0.128892570734024
0,0.986111194908388,0.0777777813567098,-0.237500001485945,-0.0470366254448891,-0.198225766420364,0.379347324371338
0,1.03472221632685,0.0875000002275597,-0.234722242031366,-0.191811680793762,0.1750128865242,0.735787212848663
0,1.02500007039179,0.0930555616825939,-0.200000005729836,-0.262672066688538,0.586736083030701,1.1267409324646
0,0.852777768611424,0.112499999424294,-0.0777777813567098,-0.247705861926079,0.549778699874878,1.39949226379395
0,1.06527783775844,0.0916666697993398,-0.351388892793493,-0.34330627322197,0.384845107793808,1.45416474342346
0,0.862500011794203,0.0458333348996699,-0.118055554801345,0.160046696662903,0.568410098552704,1.56778562068939
0,0.862500011794203,0.0458333348996699,-0.118055554801345,0.278554558753967,0.598953366279602,1.46027338504791
0,0.916666697993398,-0.0375000018340919,-0.0416666683668809,0.410196006298065,0.448680520057678,1.39155101776123
0,1.15972229132429,-0.105555564319952,-0.120833338567854,0.31703907251358,0.558330833911896,0.826500654220581
0,1.15972229132429,-0.105555564319952,-0.120833338567854,0.255952537059784,0.687528848648071,0.885449171066284
0,0.929166724942685,-0.0777777813567098,-0.0638888929140799,0.155770644545555,0.441655576229096,1.08214783668518
0,1.10138892947533,-0.105555564319952,-0.0125000003581147,0.0751364231109619,0.279776275157929,0.904385983943939
0,1.16666675074056,-0.175000000455119,-0.029166668768514,-0.019547687843442,0.162184715270996,0.67836582660675
0,1.16666675074056,-0.175000000455119,-0.029166668768514,0.0125227374956012,0.293826192617416,0.387288570404053
0,1.09861114570882,-0.202777789496344,-0.0486111125881959,-0.303600013256073,0.631329238414764,0.00488692196086049
0,1.19722227492443,-0.197222234119292,-0.0652777787193518,-0.00122173049021512,0.498160600662232,-0.0503963828086853
0,1.06527783775844,-0.170833336961321,0.0513888902767219,0.0360410511493683,0.220522359013557,-0.11087204515934
0,1.01388893532575,-0.158333334323963,0.0125000003581147,-0.00122173049021512,0.0842994004487991,-0.0668897479772568
0,0.963888924776322,-0.154166670830166,0.0138888899621255,-0.0980438739061356,-0.223882108926773,-0.0879645943641663
0,0.98888888142718,-0.14583334384257,0.03194444645704,-0.136833816766739,-0.442877292633057,-0.0293215326964855
0,1.00694447590948,-0.144444451959316,-0.00833333382532574,-0.225409269332886,-0.320093393325806,-0.0122173046693206
0,1.02916674604155,-0.150000007336368,-0.0416666683668809,-0.18539759516716,-0.113620936870575,-0.0464257597923279
0,1.01111115155925,-0.154166670830166,-0.0513888902767219,-0.120951317250729,-0.000305432622553781,-0.103847093880177
0,1.00833336779274,-0.161111118090472,-0.0138888899621255,-0.155465200543404,-0.171347707509995,-0.330783516168594
0,0.98888888142718,-0.148611115453114,-0.00555555575692586,-0.190895393490791,-0.316428184509277,-0.401949346065521
0,1.05000002704265,-0.120833338567854,-0.0513888902767219,-0.096211276948452,-0.269391566514969,-0.214413702487946
0,1.0305556379248,-0.113888891307548,-0.0680555564078778,-0.0574213340878487,-0.151494577527046,-0.250454753637314
0,1.00972225967599,-0.143055560076062,-0.0638888929140799,-0.0207694191485643,-0.0604756586253643,-0.526871263980865
0,1.00000001649321,-0.144444451959316,-0.0652777787193518,-0.155770644545555,0.0995710343122482,-1.15575706958771
0,0.858333336144441,-0.197222234119292,-0.0500000014324589,-0.239764615893364,-0.0806342139840126,-1.63834059238434
0,0.933333400592447,-0.055555559848502,-0.0138888899621255,-0.0256563406437635,-0.0387899428606033,-0.770301103591919
0,0.991666665193688,0.026388891079988,-0.026388891079988,0.129197999835014,0.0384845100343227,-0.74006325006485
0,1.06805562152495,-0.0250000007162294,-0.0972222251763917,0.220522359013557,0.326812893152237,-0.441044718027115
0,1.09583336194232,0.0152777788063885,-0.0791666671619817,0.134695783257484,0.245262399315834,-0.0965167060494423
0,1.09444447005906,-0.0152777788063885,-0.029166668768514,0.0983493030071259,-0.0192422550171614,-0.0775798857212067
0,1.00138890837647,-0.055555559848502,-0.0138888899621255,-0.0354301854968071,-0.275500237941742,-0.253203630447388
0,0.979166735492117,-0.0458333348996699,-0.0138888899621255,0.00916297826915979,-0.298713117837906,-0.189368233084679
0,0.991666665193688,0.0194444453391775,-0.0444444460554069,-0.0965167060494423,-0.311235845088959,0.109039448201656
0,1.01805561097552,0.0125000003581147,-0.0722222259796579,0.037568211555481,-0.342389971017838,0.248011291027069
0,1.08472222687628,-0.030555557612777,-0.0722222259796579,0.167682513594627,-0.0833831056952477,0.297185927629471
0,1.04305556762637,-0.0250000007162294,-0.0861111144222878,-0.01191187184304,-0.190895393490791,0.0592539273202419
0,1.05277781080915,-0.0361111129898289,-0.102777780553444,0.0241291765123606,-0.22174409031868,0.0983493030071259
0,1.00416669214298,-0.0500000014324589,-0.0652777787193518,0.0418442711234093,-0.641103088855743,0.200363799929619
0,1.00694447590948,-0.0250000007162294,-0.0652777787193518,0.106595985591412,-0.316733628511429,0.26908615231514
0,1.01944450285877,-0.0208333341834404,-0.104166672436698,-0.00885754637420177,-0.216246291995048,0.171042263507843
0,1.05972227022542,-0.0444444460554069,-0.126388893944906,-0.0256563406437635,-0.106595985591412,0.0998764708638191
0,1.08055555122652,-0.0444444460554069,-0.131944449321958,-0.0656680166721344,-0.210443079471588,0.05283984541893
0,0.986111194908388,-0.0402777795226179,-0.113888891307548,-0.0552833043038845,-0.101709060370922,-0.0928515195846558
0,1.06388894587519,-0.0472222237439329,-0.138888896582264,0.0833831056952477,0.405919969081879,-0.115758962929249
0,1.03750000009336,-0.0486111125881959,-0.102777780553444,0.0192422550171614,0.319177091121674,-0.156381502747536
0,1.01527782720901,-0.0416666683668809,-0.106944444047242,-0.0696386396884918,0.246484130620956,-0.140804439783096
0,0.987499989543926,-0.0458333348996699,-0.0819444448505077,-0.0766635909676552,0.145996794104576,-0.127365410327911
0,1.01388893532575,-0.029166668768514,-0.0722222259796579,-0.0537561401724815,0.0830776765942574,-0.0503963828086853
0,1.07777786470773,-0.03194444645704,-0.0486111125881959,-0.00855211354792118,0.231212496757507,-0.00641408516094089
0,1.08750001064279,-0.0236111118719664,-0.0972222251763917,-0.105068825185299,0.333532422780991,0.0965167060494423
0,1.08750001064279,-0.0236111118719664,-0.0972222251763917,0.170431405305862,0.724486172199249,0.00427605677396059
0,1.06250005399193,-0.0569444456537738,-0.104166672436698,0.152410879731178,0.599258780479431,-0.114842668175697
0,1.02361117850853,-0.0111111115138517,-0.0486111125881959,0.199752941727638,0.374765813350677,-0.0103847095742822
0,1.01527782720901,0.0125000003581147,-0.03194444645704,0.00794124789535999,0.16890424489975,-0.0745255574584007
0,1.04583335139288,-0.029166668768514,-0.0388888906783549,0.0045814891345799,-0.0167987942695618,0.0455094613134861
0,0.972222276075846,-0.029166668768514,0.0416666683668809,-0.132863193750381,-0.250760197639465,0.146913096308708
0,0.987499989543926,-0.00833333382532574,0.00277777787846293,-0.115148097276688,-0.333226978778839,0.152105450630188
0,1.02916674604155,-0.029166668768514,-0.0194444453391775,0.0394008085131645,-0.357050746679306,0.015577063895762
0,1.05000002704265,-0.0347222241455659,-0.0361111129898289,0.0656680166721344,-0.333226978778839,-0.0265726372599602
0,1.04166667574312,-0.0347222241455659,-0.0833333367337618,0.0668897479772568,-0.218384325504303,-0.0418442711234093
0,1.02916674604155,-0.0388888906783549,-0.0583333375370279,0.154243469238281,-0.140499010682106,-0.134390354156494
0,1.05000002704265,-0.0347222241455659,-0.0583333375370279,0.172874867916107,0.00794124789535999,-0.125227376818657
0,1.0125000434425,-0.0166666676506515,-0.0805555590452358,0.106901414692402,0.0968221426010132,-0.01588249579072
0,0.990277773310434,-0.0138888899621255,-0.0611111152255539,0.0128281703218818,-0.0696386396884918,-0.0397062413394451
0,1.05833337834217,-0.0222222230277034,-0.0902777839940679,0.0723875313997269,0.251676470041275,-0.0696386396884918
0,1.05555559457566,-0.0208333341834404,-0.0652777787193518,0.0836885422468185,0.368046313524246,-0.0946841165423393
0,1.00833336779274,-0.03194444645704,-0.052777782159976,0.0956004112958908,0.305127203464508,-0.0189368221908808
0,0.962500032893068,-0.03194444645704,-0.0444444460554069,0.101098194718361,0.161268427968025,0.0507018156349659
0,1.08333333499303,-0.0361111129898289,-0.03194444645704,0.153938040137291,0.411112308502197,-0.0681114718317986
0,1.07638897282447,-0.0430555572111439,-0.0500000014324589,0.199447497725487,0.891252398490906,-0.105068825185299
0,1.0305556379248,-0.0138888899621255,-0.0152777788063885,0.299934834241867,1.22631192207336,-0.0946841165423393
0,0.977777843608863,-0.00416666691266287,-0.033333335301303,0.154243469238281,0.888808906078339,0.0210748501121998
0,0.99583334084345,-0.00277777787846293,0.0125000003581147,-0.0424551330506802,0.589790403842926,0.0998764708638191
0,1.00277780025972,-0.00277777787846293,0.0513888902767219,-0.187841057777405,0.130419731140137,0.0940732508897781
0,1.05833337834217,-0.0194444453391775,0.0430555572111439,-0.334754168987274,-0.165849909186363,0.0415388382971287
0,1.03194452980806,-0.0347222241455659,0.0722222259796579,-0.204334422945976,-0.19578230381012,0.0280998013913631
0,1.07361118905796,-0.0375000018340919,0.0680555564078778,-0.0210748501121998,0.168293371796608,-0.00733038317412138
0,1.04583335139288,-0.0347222241455659,0.00555555575692586,-0.00366519158706069,0.445320755243301,-0.0345138870179653
0,1.0125000434425,-0.0208333341834404,0.033333335301303,0.0397062413394451,0.273667633533478,0.0638354197144508
0,0.993055557076942,-0.0152777788063885,0.0569444456537738,0.0412334054708481,-0.0394008085131645,0.0503963828086853
0,1.03194452980806,-0.027777779924251,0.0472222237439329,0.0797179117798805,0.0519235469400883,-0.0320704244077206
0,1.0513889189259,-0.0347222241455659,0.0138888899621255,0.0256563406437635,0.288939267396927,-0.0638354197144508
0,0.993055557076942,-0.026388891079988,0.0541666679652478,-0.00244346098043024,0.193644285202026,-0.0510072484612465
0,1.00277780025972,-0.0250000007162294,0.0736111117849297,-0.0204639863222837,-0.0604756586253643,0.0458148941397667
0,1.05416670269241,-0.0152777788063885,0.0736111117849297,0.0696386396884918,0.17989981174469,0.00855211354792118
0,1.04583335139288,-0.0138888899621255,0.0444444460554069,0.0842994004487991,0.413861215114594,-0.0540615729987621
0,1.04583335139288,-0.0138888899621255,0.0444444460554069,0.0149661982432008,0.19058994948864,-0.0345138870179653
0,1.00694447590948,-0.0194444453391775,0.0777777813567098,-0.013744467869401,-0.0232128798961639,-0.0329867228865623
0,1.0125000434425,-0.0194444453391775,0.0708333340964038,-0.0360410511493683,-0.0949895456433296,-0.00519235478714108
0,1.0125000434425,-0.0194444453391775,0.0708333340964038,-0.0329867228865623,-0.117286130785942,-0.0412334054708481
0,1.03472221632685,-0.0180555564949145,0.0583333375370279,0.0222965814173222,0.0604756586253643,-0.0519235469400883
0,1.00555558402623,-0.0180555564949145,0.026388891079988,0.0106901414692402,-0.00610865233466029,0.00519235478714108
0,1.00555558402623,-0.0180555564949145,0.026388891079988,-0.117896988987923,-0.244346097111702,0.076052725315094
0,0.984722303025134,0.00972222266958873,0.0347222241455659,-0.0641408488154411,-0.230907067656517,0.0595593601465225
0,1.03750000009336,-0.0513888902767219,0.0597222233422998,-0.00366519158706069,-0.0332921557128429,-0.0360410511493683
0,1.03750000009336,-0.0513888902767219,0.0597222233422998,-0.0442877300083637,0.02382374368608,-0.0751364231109619
0,1.02638896227504,-0.0222222230277034,0.0458333348996699,-0.140804439783096,-0.408363401889801,-0.00702495034784079
0,1.00138890837647,-0.0222222230277034,0.055555559848502,-0.167071640491486,-0.665537655353546,0.0568104684352875
0,1.03472221632685,-0.026388891079988,0.0638888929140799,-0.0103847095742822,-0.218995183706284,-0.0186313893646002
0,1.05833337834217,-0.0180555564949145,0.0111111115138517,0.0849102661013603,0.276416510343552,-0.0626136884093285
0,1.04166667574312,-0.0152777788063885,0.0111111115138517,0.05283984541893,0.166460782289505,-0.0537561401724815
0,1.00833336779274,-0.00694444498106275,0.00972222266958873,-0.0143553335219622,-0.0733038261532784,0.0204639863222837
0,0.997222232726705,-0.00555555575692586,0.0472222237439329,-0.0390953756868839,-0.187841057777405,0.0381790772080422
0,1.0361111082101,-0.029166668768514,0.0611111152255539,-0.0552833043038845,-0.000916297896765172,-0.0516181141138077
0,1.0333333244436,-0.029166668768514,0.0250000007162294,-0.0516181141138077,0.019547687843442,-0.109039448201656
0,1.03472221632685,-0.00694444498106275,0.0152777788063885,-0.0464257597923279,-0.013744467869401,-0.223882108926773
0,1.00555558402623,-0.0166666676506515,0.0458333348996699,-0.0232128798961639,-0.122783914208412,-0.129197999835014
0,1.01805561097552,-0.026388891079988,0.055555559848502,0.0885754600167274,0.310930401086807,0.0794124826788902
0,1.08055555122652,-0.033333335301303,0.0416666683668809,0.0699440687894821,0.516791999340057,0.15851953625679
0,1.06527783775844,-0.0222222230277034,-0.00277777787846293,-0.154548913240433,0.496633440256119,0.191506251692772
0,1.04166667574312,-0.0222222230277034,-0.00555555575692586,-0.186313897371292,0.622777104377747,0.0739146918058395
0,1.01388893532575,-0.033333335301303,-0.00555555575692586,-0.0448985956609249,0.748615384101868,0.131946891546249
0,1.0361111082101,-0.030555557612777,0.108333335930496,0.148134827613831,0.282219737768173,0.136528387665749
0,1.02638896227504,-0.03194444645704,0.115277783190802,0.0897971913218498,0.0949895456433296,0.0253509078174829
0,0.986111194908388,-0.0416666683668809,0.104166672436698,-0.0571159012615681,-0.0109955742955208,0.00641408516094089
0,0.99583334084345,-0.0361111129898289,0.0652777787193518,-0.1750128865242,0.122478485107422,0.0675006061792374
0,1.08472222687628,0.00972222266958873,-0.00277777787846293,0.0766635909676552,1.11482906341553,0.205556154251099
0,1.04861113515939,-0.0361111129898289,0.0958333393711199,-0.120340451598167,0.476780325174332,0.0897971913218498
0,0.984722303025134,-0.0416666683668809,0.166666673467524,-0.0684169083833694,0.203723564743996,0.0268780700862408
0,0.990277773310434,-0.0430555572111439,0.15555556271342,0.0510072484612465,0.139582708477974,-0.000610865245107561
0,0.983333411141879,-0.0472222237439329,0.134722233088466,0.189062789082527,0.0568104684352875,-0.0180205255746841
0,1.00833336779274,-0.0375000018340919,0.138888896582264,0.217468023300171,-0.0122173046693206,-0.0436768643558025
0,1.02500007039179,-0.0361111129898289,0.122222230451108,0.161573857069016,-0.112093769013882,-0.0983493030071259
0,1.03888889197661,-0.0361111129898289,0.120833338567854,0.126449108123779,-0.142331600189209,-0.125227376818657
0,1.01527782720901,0.0111111115138517,0.0819444448505077,0.0537561401724815,-0.402865618467331,-0.103847093880177
0,1.00972225967599,0.00138888893923146,0.130555557438704,0.145691365003586,-0.534201681613922,-0.0675006061792374
0,0.991666665193688,-0.00972222266958873,0.131944449321958,0.0815505087375641,-0.647211730480194,-0.0400116741657257
0,1.00000001649321,-0.00972222266958873,0.0680555564078778,-0.143553331494331,-0.391564607620239,0.0247400421649218
0,1.14166669684199,0.00694444498106275,-0.19166667874224,0.0684169083833694,0.495411723852158,0.0323758572340012
0,1.04583335139288,-0.0152777788063885,0.113888891307548,-0.0464257597923279,-0.0262672062963247,0.0366519130766392
0,0.986111194908388,-0.0138888899621255,0.120833338567854,-0.0577267669141293,-0.18020524084568,0.00580321997404099
0,0.975000059842355,-0.00555555575692586,0.116666675074056,-0.135001212358475,-0.367740869522095,-0.0164933614432812
0,0.981944519258625,-0.00277777787846293,0.0750000036681839,-0.0687223374843597,-0.29107728600502,-0.0247400421649218
0,1.02777785415829,-0.0166666676506515,0.0541666679652478,-0.0363464802503586,-0.27458393573761,-0.00397062394768
0,1.05694448645892,-0.0402777795226179,0.0680555564078778,0.0568104684352875,-0.0626136884093285,0.011606439948082
0,1.05833337834217,-0.03194444645704,0.0916666697993398,0.19058994948864,0.113926365971565,-0.0354301854968071
0,1.04166667574312,-0.0208333341834404,0.0861111144222878,0.188757359981537,0.21135938167572,-0.00580321997404099
0,0.99583334084345,-0.00972222266958873,0.0416666683668809,-0.0415388382971287,0.00427605677396059,0.0033597587607801
0,1.03750000009336,-0.026388891079988,0.0458333348996699,-0.0354301854968071,0.0265726372599602,-0.0125227374956012
0,1.02361117850853,-0.00972222266958873,0.0569444456537738,-0.0531452745199203,0.0418442711234093,0.00610865233466029
0,1.02916674604155,-0.00694444498106275,0.0569444456537738,0.00244346098043024,0.122173048555851,0.0241291765123606
0,1.03888889197661,-0.00972222266958873,0.0722222259796579,0.0513126812875271,0.212581098079681,0.017409659922123
0,1.03194452980806,-0.0125000003581147,0.0791666671619817,0.04764748737216,0.181732416152954,0.0103847095742822
0,0.987499989543926,-0.0180555564949145,0.10972222781375,0.0739146918058395,0.064446285367012,0.0201585534960032
0,0.993055557076942,-0.0361111129898289,0.108333335930496,0.0045814891345799,-0.142026171088219,0.0219911485910416
0,1.06111116210868,-0.0458333348996699,0.0694444482911319,-0.0418442711234093,-0.070249505341053,-0.0149661982432008
0,1.06666672964169,-0.0361111129898289,0.0888888921108138,0.0366519130766392,0.128587126731873,-0.0045814891345799
0,1.02638896227504,-0.0222222230277034,0.104166672436698,0.0421497002243996,0.155770644545555,0.00580321997404099
0,1.00416669214298,-0.026388891079988,0.118055554801345,0.240375474095344,0.2165517359972,-0.0595593601465225
0,1.01527782720901,-0.0222222230277034,0.0666666706026059,0.310930401086807,0.399200439453125,-0.0766635909676552
0,1.07222229717471,-0.0388888906783549,0.0888888921108138,0.239459171891212,0.488386750221252,-0.0467311926186085
0,0.976388951725609,-0.0166666676506515,0.0736111117849297,0.0409279726445675,0.193033412098885,-0.011606439948082
0,0.973611167959101,-0.029166668768514,0.140277788465518,0.0387899428606033,-0.115148097276688,0.0513126812875271
0,0.98888888142718,-0.0125000003581147,0.0777777813567098,-0.0387899428606033,-0.0531452745199203,0.0033597587607801
0,1.05555559457566,-0.029166668768514,0.0819444448505077,-0.0705549344420433,-0.0167987942695618,-0.0210748501121998
0,1.03472221632685,-0.026388891079988,0.0875000002275597,-0.0739146918058395,-0.0387899428606033,-0.03176499158144
0,1.02222228662528,-0.0250000007162294,0.0986111170596459,-0.0870482996106148,-0.0568104684352875,-0.0219911485910416
0,1.01527782720901,-0.0194444453391775,0.125000002061652,-0.00244346098043024,-0.0128281703218818,-0.0122173046693206
0,1.01666671909226,-0.0194444453391775,0.130555557438704,0.0568104684352875,0.0372627787292004,0.0201585534960032
0,1.00694447590948,-0.027777779924251,0.120833338567854,0.143858760595322,0.0387899428606033,0.0332921557128429
0,1.0125000434425,-0.0208333341834404,0.102777780553444,0.129808858036995,0.0470366254448891,0.0192422550171614
0,1.01388893532575,-0.033333335301303,0.0972222251763917,0.134084925055504,-0.00427605677396059,-0.0033597587607801
0,1.0125000434425,-0.0416666683668809,0.0944444474878658,0.144469633698463,-0.0693332031369209,-0.0384845100343227
0,1.05277781080915,-0.0236111118719664,0.0625000010308258,0.0629191175103188,0.0751364231109619,-0.021685715764761
0,1.02500007039179,-0.00138888893923146,0.0694444482911319,0.155159771442413,-0.122478485107422,-0.04764748737216
0,1.00277780025972,0.00972222266958873,0.105555564319952,0.132557764649391,-0.32284227013588,-0.0482583530247212
0,1.00555558402623,-0.00555555575692586,0.0916666697993398,0.0448985956609249,-0.40164390206337,-0.02382374368608
0,1.00555558402623,-0.00555555575692586,0.0916666697993398,-0.0287106670439243,-0.273667633533478,0.04764748737216
0,1.0361111082101,-0.029166668768514,0.106944444047242,0.0552833043038845,-0.0968221426010132,0.0299323964864016
0,1.02777785415829,-0.0472222237439329,0.0930555616825939,0.0794124826788902,-0.0681114718317986,-0.0021380283869803
0,1.02916674604155,-0.0361111129898289,0.0569444456537738,0.0360410511493683,-0.0864374339580536,-0.0540615729987621
0,1.0305556379248,-0.03194444645704,0.055555559848502,0.101403631269932,-0.117286130785942,-0.0842994004487991
0,1.02777785415829,-0.0125000003581147,0.0569444456537738,0.0592539273202419,-0.0555887371301651,-0.0510072484612465
0,1.02916674604155,0.00277777787846293,0.0652777787193518,0.0143553335219622,0.0180205255746841,-0.0293215326964855
0,1.02916674604155,0.00277777787846293,0.0680555564078778,-0.0268780700862408,0.0351247526705265,-0.000916297896765172
0,1.01944450285877,-0.00555555575692586,0.0750000036681839,-0.11117747426033,0.0864374339580536,0.0235183127224445
0,1.04166667574312,-0.0125000003581147,0.0750000036681839,-0.165239050984383,0.411723166704178,0.0781907513737679
0,1.04166667574312,-0.0486111125881959,0.141666668192807,-0.0372627787292004,0.178983509540558,0.0687223374843597
0,1.04861113515939,0.00277777787846293,0.0472222237439329,0.0720821022987366,0.473726004362106,0.0516181141138077
0,0.981944519258625,0.00555555575692586,0.100000002864918,-0.0280998013913631,0.00519235478714108,0.0247400421649218
0,0.979166735492117,-0.0125000003581147,0.0930555616825939,-0.177150920033455,-0.309097826480865,0.00794124789535999
0,1.01666671909226,-0.029166668768514,0.0847222225390337,-0.192727982997894,-0.270918726921081,-0.00244346098043024
0,1.03888889197661,-0.0375000018340919,0.0819444448505077,-0.0879645943641663,-0.0803287774324417,-0.0351247526705265
0,1.04027778385987,-0.029166668768514,0.0916666697993398,0.198225766420364,0.16401731967926,-0.0106901414692402
0,0.970833384192592,-0.029166668768514,0.0972222251763917,0.171653136610985,-0.228769034147263,-0.0167987942695618
0,0.99583334084345,-0.0111111115138517,0.118055554801345,0.0540615729987621,-0.419664412736893,-0.00824668072164059
0,0.99583334084345,-0.0111111115138517,0.118055554801345,0.0766635909676552,-0.453567445278168,-0.0271835029125214
0,1.04166667574312,-0.029166668768514,0.0861111144222878,0.238848313689232,-0.220216915011406,-0.0543670058250427
0,1.05972227022542,-0.0194444453391775,0.0375000018340919,0.241597205400467,-0.0946841165423393,-0.0626136884093285
0,1.0333333244436,-0.00833333382532574,0.0138888899621255,0.187535628676414,-0.0687223374843597,-0.0152716310694814
0,1.0333333244436,-0.00833333382532574,0.0138888899621255,0.0192422550171614,-0.213191971182823,0.027488935738802
0,1.0125000434425,-0.00694444498106275,0.0708333340964038,0.00427605677396059,-0.177761793136597,0.0293215326964855
0,1.02083339474202,-0.00972222266958873,0.0819444448505077,0.081855945289135,-0.13744467496872,0.00733038317412138
0,1.02361117850853,-0.00555555575692586,0.0680555564078778,0.0836885422468185,-0.0928515195846558,0.0027488935738802
0,1.02083339474202,-0.0152777788063885,0.0250000007162294,0.0164933614432812,-0.136222943663597,-0.00916297826915979
0,1.02916674604155,-0.0222222230277034,0.03194444645704,0.0122173046693206,-0.0546724386513233,-0.0125227374956012
0,1.04027778385987,-0.0125000003581147,0.0402777795226179,-0.0131336031481624,0.0299323964864016,-0.00519235478714108
0,1.0333333244436,-0.00972222266958873,0.0388888906783549,-0.0635299831628799,0.0198531206697226,0.0103847095742822
0,1.03194452980806,-0.00555555575692586,0.033333335301303,-0.108428582549095,0.122783914208412,0.0219911485910416
0,1.04305556762637,-0.00694444498106275,0.030555557612777,-0.256257981061935,0.182343274354935,0.0604756586253643
0,1.04305556762637,-0.00694444498106275,0.0361111129898289,-0.347582310438156,0.270613312721252,0.0736092627048492
0,1.04444445950963,-0.00694444498106275,0.0750000036681839,-0.229379892349243,0.383012503385544,0.0705549344420433
0,1.03888889197661,-0.00833333382532574,0.0819444448505077,-0.0668897479772568,0.408057987689972,0.0613919571042061
0,1.04722224327614,-0.0194444453391775,0.0722222259796579,-0.0045814891345799,0.286495804786682,0.0497855171561241
0,1.02916674604155,-0.0194444453391775,0.0763888894734557,0.0427605658769607,0.53969943523407,0.0342084541916847
0,1.00694447590948,-0.0222222230277034,0.102777780553444,0.0229074470698834,0.262672066688538,-0.021685715764761
0,1.00277780025972,-0.0125000003581147,0.108333335930496,-0.0623082555830479,0.210137650370598,0.00641408516094089
0,0.977777843608863,-0.0152777788063885,0.131944449321958,-0.0335975885391235,-0.00671951752156019,0.00702495034784079
0,1.00555558402623,-0.0138888899621255,0.134722233088466,-0.0207694191485643,0.03176499158144,-0.000916297896765172
0,1.02361117850853,-0.0222222230277034,0.1194444466846,-0.00427605677396059,0.0271835029125214,-0.00641408516094089
0,1.02222228662528,-0.0222222230277034,0.0958333393711199,-0.0109955742955208,0.0271835029125214,0.00519235478714108
0,1.02500007039179,-0.0152777788063885,0.0888888921108138,-0.0103847095742822,0.0345138870179653,-0.00733038317412138
0,1.02222228662528,-0.0194444453391775,0.0958333393711199,-0.00824668072164059,0.0314595587551594,-0.000610865245107561
0,1.02222228662528,-0.0166666676506515,0.111111119697004,-0.00977384392172098,0.0219911485910416,-0.0045814891345799
0,1.02777785415829,-0.0222222230277034,0.102777780553444,-0.0131336031481624,0.0204639863222837,-0.00244346098043024
0,1.02638896227504,-0.0236111118719664,0.0972222251763917,-0.00671951752156019,0.0299323964864016,0.00549778714776039
0,1.02222228662528,-0.0250000007162294,0.0944444474878658,-0.0100792767480016,0.0293215326964855,0.00763581553474069
0,1.02083339474202,-0.0222222230277034,0.100000002864918,-0.0134390350431204,0.0302378293126821,0.00580321997404099
0,1.02222228662528,-0.029166668768514,0.101388894748172,-0.011606439948082,0.0244346093386412,0.00366519158706069
0,1.02361117850853,-0.027777779924251,0.0986111170596459,-0.00702495034784079,0.0232128798961639,0.00794124789535999
0,1.01944450285877,-0.0250000007162294,0.0986111170596459,-0.00244346098043024,0.017409659922123,0.00397062394768
0,1.01944450285877,-0.0236111118719664,0.0930555616825939,-0.00519235478714108,0.019547687843442,0.00855211354792118
0,1.02083339474202,-0.0250000007162294,0.0875000002275597,-0.00427605677396059,0.00916297826915979,0.00671951752156019
0,1.02638896227504,-0.0250000007162294,0.0875000002275597,0.00702495034784079,0.0113010071218014,-0.00183259579353034
0,1.02638896227504,-0.0236111118719664,0.0902777839940679,0.00549778714776039,0.0146607663482428,0.00549778714776039
0,1.02500007039179,-0.0250000007162294,0.0916666697993398,-0.00549778714776039,0.0128281703218818,0.0103847095742822
0,1.02638896227504,-0.026388891079988,0.0847222225390337,0.0021380283869803,0.01191187184304,0.0125227374956012
0,1.02777785415829,-0.029166668768514,0.0916666697993398,0.00122173049021512,0.0152716310694814,0.0106901414692402
0,1.02777785415829,-0.03194444645704,0.0875000002275597,-0.0027488935738802,0.01588249579072,0.011606439948082
0,1.02500007039179,-0.033333335301303,0.0861111144222878,0.00671951752156019,0.00671951752156019,0.01588249579072
0,1.02222228662528,-0.03194444645704,0.0875000002275597,0.00366519158706069,0.00305432616733015,0.0262672062963247
0,1.02222228662528,-0.0361111129898289,0.0986111170596459,0.00397062394768,0.0027488935738802,0.02382374368608
0,1.02777785415829,-0.033333335301303,0.0847222225390337,0.00244346098043024,0.00916297826915979,0.0290160998702049
0,1.02222228662528,-0.027777779924251,0.0888888921108138,0.00519235478714108,0.00641408516094089,0.0366519130766392
0,1.01944450285877,-0.03194444645704,0.0861111144222878,0.00488692196086049,0.00488692196086049,0.0345138870179653
0,1.01944450285877,-0.03194444645704,0.0847222225390337,0.0122173046693206,-0.0161879286170006,0.0427605658769607
0,1.0125000434425,-0.03194444645704,0.0944444474878658,0.00733038317412138,-0.0149661982432008,0.0448985956609249
0,1.01527782720901,-0.03194444645704,0.0777777813567098,0.0232128798961639,-0.0183259565383196,0.0351247526705265
0,1.02083339474202,-0.0361111129898289,0.0819444448505077,0.0311541277915239,-0.00977384392172098,0.0198531206697226
0,1.02222228662528,-0.03194444645704,0.0916666697993398,0.0226020142436027,-0.00824668072164059,0.0109955742955208
0,1.01944450285877,-0.027777779924251,0.0944444474878658,0.0222965814173222,-0.0106901414692402,0.0192422550171614
0,1.01527782720901,-0.026388891079988,0.0902777839940679,0.0189368221908808,-0.0125227374956012,-0.000305432622553781
0,1.01944450285877,-0.026388891079988,0.0916666697993398,0.0180205255746841,-0.0131336031481624,-0.00549778714776039
0,1.02500007039179,-0.030555557612777,0.100000002864918,0.0268780700862408,-0.0177150927484035,-0.00671951752156019
0,1.03194452980806,-0.0222222230277034,0.0875000002275597,0.0268780700862408,-0.000305432622553781,-0.00702495034784079
0,1.0333333244436,-0.029166668768514,0.101388894748172,0.0235183127224445,0.0106901414692402,-0.0125227374956012
0,1.03194452980806,-0.0402777795226179,0.118055554801345,0.0293215326964855,0.027488935738802,-0.0149661982432008
0,1.0305556379248,-0.0402777795226179,0.10972222781375,0.0265726372599602,0.0302378293126821,-0.00519235478714108
0,1.02500007039179,-0.0361111129898289,0.118055554801345,0.0320704244077206,0.03176499158144,-0.0100792767480016
0,1.03194452980806,-0.03194444645704,0.120833338567854,0.0192422550171614,0.0369573459029198,-0.000610865245107561
0,1.02916674604155,-0.0347222241455659,0.118055554801345,0.01588249579072,0.0479529201984406,0.0204639863222837
0,1.01666671909226,-0.03194444645704,0.100000002864918,0.0253509078174829,0.0369573459029198,0.0103847095742822
0,1.0125000434425,-0.029166668768514,0.108333335930496,0.0189368221908808,0.0143553335219622,0.00977384392172098
0,1.01111115155925,-0.027777779924251,0.111111119697004,0.00763581553474069,0.0164933614432812,0.00977384392172098
0,1.01944450285877,-0.027777779924251,0.104166672436698,-0.00305432616733015,0.00702495034784079,0.00641408516094089
0,1.01527782720901,-0.033333335301303,0.108333335930496,-0.00824668072164059,0.00580321997404099,0.00366519158706069
0,1.00972225967599,-0.0194444453391775,0.111111119697004,-0.00916297826915979,-0.000916297896765172,-0.00610865233466029
0,1.00972225967599,-0.0152777788063885,0.123611110178398,-0.021685715764761,-0.0164933614432812,-0.00244346098043024
0,1.01944450285877,-0.0222222230277034,0.115277783190802,-0.0366519130766392,-0.0164933614432812,-0.00427605677396059
0,1.02916674604155,-0.033333335301303,0.108333335930496,-0.029626963660121,-0.00519235478714108,-0.00885754637420177
0,1.02222228662528,-0.0416666683668809,0.125000002061652,-0.0177150927484035,-0.00152716308366507,-0.015577063895762
0,1.0125000434425,-0.0388888906783549,0.150000007336368,-0.0171042270958424,0.0100792767480016,-0.027488935738802
0,1.02222228662528,-0.03194444645704,0.159722226207217,-0.0259617734700441,0.0308486949652433,-0.017409659922123
0,1.02916674604155,-0.0236111118719664,0.138888896582264,-0.0543670058250427,0.0305432621389627,-0.0180205255746841
0,1.03194452980806,-0.0180555564949145,0.13750000469901,-0.0922406539320946,0.0485637858510017,-0.0229074470698834
0,1.02222228662528,-0.0125000003581147,0.140277788465518,-0.116980694234371,0.0494800843298435,-0.0262672062963247
0,1.01527782720901,-0.0152777788063885,0.13750000469901,-0.133474051952362,0.0180205255746841,-0.0204639863222837
0,1.00833336779274,-0.027777779924251,0.131944449321958,-0.159741267561913,-0.000916297896765172,0.0021380283869803
0,1.00277780025972,-0.0513888902767219,0.138888896582264,-0.172263994812965,-0.0109955742955208,0.00305432616733015
0,1.00972225967599,-0.0625000010308258,0.141666668192807,-0.156381502747536,-0.0219911485910416,0.0192422550171614
0,1.00138890837647,-0.0736111117849297,0.140277788465518,-0.12156218290329,-0.0439822971820831,0.0027488935738802
0,0.99583334084345,-0.0694444482911319,0.130555557438704,-0.0711658000946045,-0.119118720293045,-0.00977384392172098
0,1.00000001649321,-0.0583333375370279,0.118055554801345,-0.0360410511493683,-0.16920967400074,0.00610865233466029
0,1.00833336779274,-0.0652777787193518,0.116666675074056,-0.00641408516094089,-0.184786736965179,0.0329867228865623
0,1.01527782720901,-0.0791666671619817,0.116666675074056,0.0247400421649218,-0.215940862894058,0.0549778714776039
0,1.01666671909226,-0.0777777813567098,0.118055554801345,0.0885754600167274,-0.245873257517815,0.0763581544160843
0,1.01666671909226,-0.0777777813567098,0.118055554801345,0.144469633698463,-0.264504641294479,0.0980438739061356
0,1.03472221632685,-0.141666668192807,0.104166672436698,0.206777885556221,-0.293520748615265,0.133779495954514
0,1.0513889189259,-0.15555556271342,0.0986111170596459,0.295658767223358,-0.298407673835754,0.167987942695618
0,1.0513889189259,-0.15555556271342,0.0986111170596459,0.319177091121674,-0.235793977975845,0.196087747812271
0,1.10000003759208,-0.140277788465518,0.0750000036681839,0.329256355762482,-0.181732416152954,0.194866016507149
0,1.08888890252604,-0.131944449321958,0.055555559848502,0.352469235658646,-0.0772744566202164,0.183565005660057
0,1.08888890252604,-0.131944449321958,0.055555559848502,0.380874484777451,-0.0210748501121998,0.13744467496872
0,1.01944450285877,-0.0500000014324589,0.0583333375370279,0.335975885391235,-0.0232128798961639,0.108123145997524
0,0.991666665193688,-0.0500000014324589,0.0458333348996699,0.236099421977997,0.0027488935738802,0.0748309940099716
0,0.991666665193688,-0.0500000014324589,0.0458333348996699,0.0519235469400883,-0.00122173049021512,0.0583376325666905
0,0.983333411141879,0.0208333341834404,0.0541666679652478,-0.0293215326964855,0.0152716310694814,0.0503963828086853
0,1.00000001649321,0.00277777787846293,0.0513888902767219,-0.081855945289135,0.0207694191485643,-0.00244346098043024
0,1.02361117850853,-0.0361111129898289,0.0513888902767219,-0.0934623852372169,0.013744467869401,-0.0247400421649218
0,1.04861113515939,-0.0652777787193518,0.0597222233422998,-0.0885754600167274,0.0366519130766392,-0.0534507073462009
0,1.06111116210868,-0.0763888894734557,0.0458333348996699,-0.076052725315094,0.0827722400426865,-0.08460483700037
0,1.04583335139288,-0.0611111152255539,0.0458333348996699,-0.0943786799907684,0.0858265683054924,-0.107512280344963
0,1.02083339474202,-0.030555557612777,0.0458333348996699,-0.142637029290199,0.0595593601465225,-0.0827722400426865
0,1.00277780025972,-0.0125000003581147,0.0486111125881959,-0.175623759627342,0.00977384392172098,-0.027488935738802
0,0.99583334084345,-0.0180555564949145,0.055555559848502,-0.173180297017098,-0.0360410511493683,0.0167987942695618
0,1.00694447590948,-0.033333335301303,0.0416666683668809,-0.16401731967926,-0.0607810914516449,0.0448985956609249
0,1.02500007039179,-0.0597222233422998,0.0500000014324589,-0.131641462445259,-0.0555887371301651,0.0436768643558025
0,1.03750000009336,-0.0819444448505077,0.029166668768514,-0.109344877302647,-0.0421497002243996,0.03176499158144
0,1.04722224327614,-0.0944444474878658,0.03194444645704,-0.101098194718361,-0.029626963660121,0.0045814891345799
0,1.0361111082101,-0.0777777813567098,0.026388891079988,-0.0983493030071259,-0.0488692186772823,-0.0204639863222837
0,1.00833336779274,-0.0513888902767219,0.0125000003581147,-0.125838235020638,-0.0879645943641663,-0.01588249579072
0,0.993055557076942,-0.0361111129898289,0.0125000003581147,-0.189062789082527,-0.131946891546249,0.0100792767480016
0,0.98888888142718,-0.0250000007162294,0.0152777788063885,-0.267253547906876,-0.152105450630188,0.0482583530247212
0,1.00277780025972,-0.0194444453391775,0.00694444498106275,-0.306043475866318,-0.157297804951668,0.0565050356090069
0,1.00555558402623,-0.029166668768514,0.0138888899621255,-0.363770246505737,-0.159741267561913,0.0546724386513233
0,1.01388893532575,-0.0388888906783549,0.0125000003581147,-0.388510286808014,-0.145996794104576,0.0583376325666905
0,1.02777785415829,-0.0388888906783549,0.0125000003581147,-0.414472073316574,-0.11117747426033,0.0381790772080422
0,1.02916674604155,-0.0472222237439329,0.0222222230277034,-0.446237057447434,-0.0882700309157372,0.0204639863222837
0,1.02638896227504,-0.0458333348996699,0.0152777788063885,-0.462730437517166,-0.0934623852372169,0.0109955742955208
0,1.02083339474202,-0.0500000014324589,0.0180555564949145,-0.481667250394821,-0.109650313854218,0.01191187184304
0,1.01944450285877,-0.0472222237439329,0.0125000003581147,-0.478612929582596,-0.106595985591412,0.0177150927484035
0,1.02083339474202,-0.052777782159976,0.00277777787846293,-0.474947720766068,-0.0937678143382072,0.021685715764761
0,1.01111115155925,-0.0486111125881959,-0.00277777787846293,-0.465173870325089,-0.123394779860973,-0.00794124789535999
0,1.00833336779274,-0.0430555572111439,-0.00972222266958873,-0.468228220939636,-0.188757359981537,0.000916297896765172
0,1.01527782720901,-0.033333335301303,-0.00972222266958873,-0.477085769176483,-0.225103840231896,-0.00916297826915979
0,1.02916674604155,-0.0250000007162294,-0.0222222230277034,-0.497549742460251,-0.224492982029915,-0.0146607663482428
0,1.03194452980806,-0.0208333341834404,-0.026388891079988,-0.50335294008255,-0.233350530266762,-0.0222965814173222
0,1.03194452980806,-0.0152777788063885,-0.03194444645704,-0.513432264328003,-0.24312436580658,-0.0342084541916847
0,1.03194452980806,-0.0152777788063885,-0.03194444645704,-0.518319189548492,-0.259312301874161,-0.0424551330506802
0,1.0333333244436,-0.0125000003581147,-0.0250000007162294,-0.525344133377075,-0.258090555667877,-0.0531452745199203
0,1.0333333244436,-0.0125000003581147,-0.0250000007162294,-0.529314756393433,-0.241291776299477,-0.0406225398182869
0,1.04722224327614,-0.0166666676506515,-0.0361111129898289,-0.518013715744019,-0.192117124795914,-0.0464257597923279
0,1.05000002704265,-0.0222222230277034,-0.0361111129898289,-0.48685958981514,-0.149356558918953,-0.0503963828086853
0,1.04861113515939,-0.0430555572111439,-0.03194444645704,-0.425467640161514,-0.107206851243973,-0.0699440687894821
0,1.04861113515939,-0.052777782159976,-0.0347222241455659,-0.341473668813705,-0.027488935738802,-0.0940732508897781
0,1.05416670269241,-0.0569444456537738,-0.033333335301303,-0.268169850111008,0.019547687843442,-0.11087204515934
0,1.04166667574312,-0.0430555572111439,-0.0250000007162294,-0.199447497725487,0.0736092627048492,-0.106901414692402
0,1.03888889197661,-0.03194444645704,-0.00972222266958873,-0.140499010682106,0.08460483700037,-0.101098194718361
0,1.03194452980806,-0.00555555575692586,-0.0180555564949145,-0.101098194718361,0.0959058403968811,-0.0940732508897781
0,1.0333333244436,0.00972222266958873,-0.0194444453391775,-0.0974330082535744,0.103541657328606,-0.0662788823246956
0,1.02916674604155,0.029166668768514,-0.0347222241455659,-0.113315500319004,0.0940732508897781,-0.0424551330506802
0,1.0305556379248,0.0388888906783549,-0.0430555572111439,-0.156992360949516,0.100792765617371,-0.0232128798961639
0,1.0305556379248,0.0458333348996699,-0.0472222237439329,-0.192727982997894,0.102625362575054,-0.00580321997404099
0,1.02222228662528,0.029166668768514,-0.0402777795226179,-0.194255143404007,0.0925460830330849,0.00885754637420177
0,1.02777785415829,0.0222222230277034,-0.0458333348996699,-0.203723564743996,0.100792765617371,0.0222965814173222
0,1.0333333244436,0.0166666676506515,-0.0458333348996699,-0.196087747812271,0.109344877302647,0.0507018156349659
0,1.03194452980806,0.0194444453391775,-0.0486111125881959,-0.186008468270302,0.103847093880177,0.0827722400426865
0,1.02222228662528,0.0111111115138517,-0.0472222237439329,-0.188146501779556,0.0894917547702789,0.105068825185299
0,1.02222228662528,0.00972222266958873,-0.0513888902767219,-0.176845490932465,0.0806342139840126,0.135612085461616
0,1.01527782720901,-0.00555555575692586,-0.0513888902767219,-0.176845490932465,0.0684169083833694,0.15332718193531
0,1.01527782720901,-0.0125000003581147,-0.0625000010308258,-0.162184715270996,0.0525344125926495,0.16920967400074
0,1.00972225967599,-0.0152777788063885,-0.0750000036681839,-0.155465200543404,-0.000610865245107561,0.182343274354935
0,1.00972225967599,-0.0152777788063885,-0.0750000036681839,-0.158214092254639,-0.00641408516094089,0.212275668978691
0,1.03194452980806,-0.0652777787193518,-0.0902777839940679,-0.151800006628036,0.0314595587551594,0.236710280179977
0,1.04305556762637,-0.100000002864918,-0.0847222225390337,-0.0894917547702789,0.0549778714776039,0.207083314657211
0,1.07361118905796,-0.161111118090472,-0.0750000036681839,0.0268780700862408,0.120340451598167,0.139582708477974
0,1.08472222687628,-0.218055563744246,-0.0625000010308258,0.145080491900444,0.157603234052658,0.0705549344420433
0,1.08333333499303,-0.216666671860991,-0.0652777787193518,0.276721954345703,0.183565005660057,0.0235183127224445
0,1.05972227022542,-0.175000000455119,-0.0597222233422998,0.368351757526398,0.222965821623802,-0.000305432622553781
0,1.00972225967599,-0.0916666697993398,-0.029166668768514,0.411112308502197,0.205861583352089,0.0146607663482428
0,1.00555558402623,-0.0652777787193518,-0.0125000003581147,0.408668845891953,0.206472456455231,0.0430659987032413
0,1.00694447590948,-0.0361111129898289,0.00138888893923146,0.394618958234787,0.21135938167572,0.0635299831628799
0,1.02222228662528,-0.0416666683668809,0.00416666691266287,0.38026362657547,0.221133217215538,0.0583376325666905
0,1.02638896227504,-0.0486111125881959,0.00416666691266287,0.340557366609573,0.260534018278122,0.0201585534960032
0,1.00833336779274,-0.0444444460554069,0.00694444498106275,0.280692577362061,0.277638256549835,-0.0027488935738802
0,1.00138890837647,-0.0513888902767219,0.0125000003581147,0.223882108926773,0.260534018278122,-0.0186313893646002
0,1.00138890837647,-0.0513888902767219,0.0125000003581147,0.201890960335732,0.263282924890518,0.0021380283869803
0,1.01111115155925,-0.0777777813567098,0.0152777788063885,0.200058370828629,0.30757063627243,-0.000610865245107561
0,1.01388893532575,-0.104166672436698,0.00833333382532574,0.200058370828629,0.323147714138031,0.01191187184304
0,1.02222228662528,-0.141666668192807,-0.00138888893923146,0.212581098079681,0.378431022167206,0.0552833043038845
0,1.01666671909226,-0.156944454596674,0.00972222266958873,0.247400417923927,0.407447129487991,0.0690277740359306
0,0.998611124609959,-0.17361112072783,0.0361111129898289,0.294131606817245,0.379652738571167,0.0503963828086853
0,0.930555616825939,-0.156944454596674,0.126388893944906,0.268475264310837,0.301156580448151,0.0192422550171614
0,0.930555616825939,-0.144444451959316,0.170833336961321,0.180816113948822,0.240986332297325,0.00977384392172098
0,0.969444492309338,-0.10972222781375,0.216666671860991,0.0784961804747581,0.236099421977997,0.0262672062963247
0,1.0361111082101,-0.0791666671619817,0.229166674498349,0.000916297896765172,0.210443079471588,0.03176499158144
0,1.09305557817581,-0.0680555564078778,0.229166674498349,-0.0922406539320946,0.229685336351395,0.0543670058250427
0,1.14444448060849,-0.0791666671619817,0.238888893369199,-0.146302223205566,0.344833433628082,0.0858265683054924
0,1.13194445365921,-0.112499999424294,0.250000004123303,-0.137139245867729,0.329561799764633,0.0729983970522881
0,1.04444445950963,-0.123611110178398,0.25555557165632,-0.108123145997524,0.23823744058609,0.029626963660121
0,0.913888914226889,-0.0958333393711199,0.236111109602691,-0.0885754600167274,0.122173048555851,-0.0610865242779255
0,0.876388930626744,-0.0777777813567098,0.236111109602691,-0.0925460830330849,-0.0400116741657257,-0.145080491900444
0,0.84583340644287,-0.0722222259796579,0.223611131277262,-0.111482910811901,-0.195171445608139,-0.191506251692772
0,0.872222254976982,-0.0583333375370279,0.227777782615095,-0.119424156844616,-0.383317947387695,-0.165849909186363
0,0.911111130460381,-0.0736111117849297,0.197222234119292,-0.119118720293045,-0.409890592098236,-0.096211276948452
0,1.01527782720901,-0.120833338567854,0.163888889701015,-0.0974330082535744,-0.281914323568344,-0.0280998013913631
0,1.08055555122652,-0.161111118090472,0.125000002061652,0.0232128798961639,-0.35979962348938,0.0342084541916847
0,1.17222222102586,-0.177777784221628,0.0875000002275597,0.168598800897598,-0.197309479117393,0.0736092627048492
0,1.15138894002476,-0.176388892338373,0.0888888921108138,0.184175878763199,-0.0705549344420433,0.0192422550171614
0,1.04861113515939,-0.17361112072783,0.130555557438704,0.186619326472282,-0.0824668109416962,-0.0192422550171614
0,0.984722303025134,-0.162500009973726,0.15555556271342,0.164628177881241,-0.105374254286289,-0.0259617734700441
0,0.962500032893068,-0.13750000469901,0.148611115453114,0.125532805919647,-0.163406446576118,0.0100792767480016
0,0.98888888142718,-0.108333335930496,0.12916666555545,0.0956004112958908,-0.211664810776711,0.0219911485910416
0,1.03194452980806,-0.0777777813567098,0.101388894748172,0.0510072484612465,-0.262977480888367,0.0311541277915239
0,1.03750000009336,-0.0513888902767219,0.052777782159976,-0.0131336031481624,-0.284663200378418,0.0418442711234093
0,1.00416669214298,-0.0361111129898289,0.0125000003581147,-0.122783914208412,-0.259312301874161,0.0406225398182869
0,0.980555627375371,-0.0430555572111439,0.00555555575692586,-0.271529614925385,-0.278554558753967,0.05283984541893
0,0.913888914226889,-0.102777780553444,-0.0250000007162294,-0.284357786178589,-0.398284137248993,0.0629191175103188
0,0.904166671044111,-0.116666675074056,-0.0430555572111439,-0.262061178684235,-0.492662817239761,0.0794124826788902
0,0.933333400592447,-0.118055554801345,-0.0611111152255539,-0.213191971182823,-0.515570282936096,0.0949895456433296
0,1.09305557817581,-0.101388894748172,-0.0430555572111439,-0.0671951770782471,-0.293826192617416,0.078801617026329
0,1.1083333888916,-0.0958333393711199,-0.0375000018340919,0.0342084541916847,-0.201890960335732,-0.000305432622553781
0,1.1083333888916,-0.0902777839940679,0.00277777787846293,0.115148097276688,-0.176234617829323,-0.112399205565453
0,1.08472222687628,-0.0583333375370279,0.0194444453391775,0.200058370828629,-0.206472456455231,-0.250454753637314
0,1.04861113515939,-0.0152777788063885,0.00694444498106275,0.244040668010712,-0.263588339090347,-0.315817326307297
0,1.02361117850853,0.033333335301303,-0.0194444453391775,0.199447497725487,-0.31245756149292,-0.254730820655823
0,1.02916674604155,0.0597222233422998,-0.055555559848502,0.148745685815811,-0.307876080274582,-0.15332718193531
0,1.04583335139288,0.055555559848502,-0.0541666679652478,0.123700208961964,-0.225714713335037,-0.0390953756868839
0,1.05972227022542,0.00972222266958873,-0.0486111125881959,0.0949895456433296,-0.111482910811901,0.03176499158144
0,1.06805562152495,-0.0152777788063885,-0.0388888906783549,0.03176499158144,0.00549778714776039,0.0400116741657257
0,1.06527783775844,-0.0416666683668809,-0.0222222230277034,-0.0339030213654041,0.114231802523136,0.0192422550171614
0,1.07083340529146,-0.0944444474878658,0.03194444645704,0.00702495034784079,0.139582708477974,-0.0757472887635231
0,1.05416670269241,-0.113888891307548,0.0458333348996699,0.0424551330506802,0.103847093880177,-0.149356558918953
0,1.02777785415829,-0.0375000018340919,0.00277777787846293,-0.015577063895762,0.0824668109416962,-0.1795943826437
0,0.986111194908388,0.0194444453391775,-0.0375000018340919,-0.0983493030071259,0.0678060427308083,-0.154854342341423
0,0.990277773310434,0.0250000007162294,-0.0736111117849297,-0.200974673032761,-0.0143553335219622,-0.107817716896534
0,1.03194452980806,0.00833333382532574,-0.0722222259796579,-0.252898216247559,-0.0152716310694814,-0.0675006061792374
0,1.0361111082101,-0.03194444645704,-0.0458333348996699,-0.25411993265152,0.0171042270958424,-0.00733038317412138
0,1.02083339474202,-0.0930555616825939,-0.0152777788063885,-0.177150920033455,0.0565050356090069,0.0687223374843597
0,0.99583334084345,-0.13750000469901,-0.0152777788063885,-0.0726929605007172,0.0583376325666905,0.0833831056952477
0,0.983333411141879,-0.150000007336368,0.00833333382532574,-0.017409659922123,0.0320704244077206,0.0772744566202164
0,0.990277773310434,-0.13750000469901,-0.00833333382532574,0.0192422550171614,0.00519235478714108,0.0467311926186085
0,1.0361111082101,-0.0833333367337618,-0.0500000014324589,0.0265726372599602,-0.00183259579353034,0.0354301854968071
0,1.0513889189259,-0.0625000010308258,-0.052777782159976,0.0207694191485643,0.021685715764761,0.037568211555481
0,1.04861113515939,-0.0625000010308258,-0.0541666679652478,0.0106901414692402,0.0763581544160843,0.0513126812875271
0,1.04305556762637,-0.0805555590452358,-0.0388888906783549,0.0213802829384804,0.0879645943641663,0.0485637858510017
0,1.03472221632685,-0.0847222225390337,-0.0361111129898289,0.0149661982432008,0.0986547395586967,0.0482583530247212
0,1.0361111082101,-0.0666666706026059,-0.0180555564949145,0.00244346098043024,0.102319926023483,0.0219911485910416
0,1.03888889197661,-0.0500000014324589,-0.0111111115138517,-0.00610865233466029,0.104457959532738,-0.00305432616733015
0,1.0361111082101,-0.055555559848502,0.00138888893923146,-0.00427605677396059,0.0971275717020035,-0.0198531206697226
0,1.01944450285877,-0.0611111152255539,0.0138888899621255,0.00824668072164059,0.0861319974064827,-0.0277943685650826
0,1.01805561097552,-0.0652777787193518,0.00694444498106275,0.0339030213654041,0.0745255574584007,-0.0287106670439243
0,1.02777785415829,-0.0638888929140799,0.00694444498106275,0.0436768643558025,0.0745255574584007,-0.02382374368608
0,1.0333333244436,-0.0583333375370279,0.00833333382532574,0.0418442711234093,0.0998764708638191,-0.0027488935738802
0,1.02777785415829,-0.0597222233422998,0.00416666691266287,0.0543670058250427,0.0986547395586967,-0.0033597587607801
0,1.02916674604155,-0.0597222233422998,0.00972222266958873,0.0656680166721344,0.108428582549095,-0.013744467869401
0,1.02500007039179,-0.0652777787193518,0.0152777788063885,0.0717766657471657,0.112399205565453,-0.0134390350431204
0,1.02777785415829,-0.0638888929140799,-0.00277777787846293,0.0736092627048492,0.113315500319004,-0.0180205255746841
0,1.02916674604155,-0.0750000036681839,-0.00972222266958873,0.0803287774324417,0.107817716896534,-0.01191187184304
0,1.02222228662528,-0.0777777813567098,0.00694444498106275,0.0800233483314514,0.0998764708638191,0.0033597587607801
0,1.01388893532575,-0.0763888894734557,0.00972222266958873,0.0723875313997269,0.0784961804747581,0.0128281703218818
0,1.01388893532575,-0.0666666706026059,0.00555555575692586,0.0739146918058395,0.0461203269660473,0.0229074470698834
0,1.0125000434425,-0.0569444456537738,0.0152777788063885,0.0733038261532784,0.0241291765123606,0.0302378293126821
0,1.00833336779274,-0.055555559848502,0.027777779924251,0.0754418596625328,-0.0280998013913631,0.0507018156349659
0,1.00972225967599,-0.0611111152255539,0.0250000007162294,0.0552833043038845,-0.0366519130766392,0.0739146918058395
0,1.00972225967599,-0.0583333375370279,0.0416666683668809,0.0433714315295219,-0.0482583530247212,0.0824668109416962
0,1.0125000434425,-0.0652777787193518,0.033333335301303,0.0250454749912024,-0.0427605658769607,0.0949895456433296
0,1.01805561097552,-0.0708333340964038,0.033333335301303,0.0146607663482428,-0.0308486949652433,0.0980438739061356
0,1.02083339474202,-0.0777777813567098,0.0250000007162294,0.00519235478714108,-0.0235183127224445,0.102625362575054
0,1.02083339474202,-0.0791666671619817,0.0208333341834404,0.00488692196086049,-0.0335975885391235,0.113620936870575
0,1.03194452980806,-0.0777777813567098,0.0194444453391775,-0.00519235478714108,-0.0378736443817616,0.102014496922493
0,1.03194452980806,-0.0819444448505077,0.00416666691266287,-0.0247400421649218,-0.0222965814173222,0.0980438739061356
0,1.0361111082101,-0.0847222225390337,0.00972222266958873,-0.0326812900602817,-0.00580321997404099,0.0937678143382072
0,1.03888889197661,-0.0916666697993398,0.00694444498106275,-0.0351247526705265,0.00122173049021512,0.0812450796365738
0,1.04166667574312,-0.0875000002275597,0.0111111115138517,-0.0415388382971287,0.00946841109544039,0.05283984541893
0,1.04166667574312,-0.0875000002275597,0.0111111115138517,-0.0424551330506802,0.00702495034784079,0.0302378293126821
0,1.04166667574312,-0.0722222259796579,0.0208333341834404,-0.0384845100343227,0.0134390350431204,0.00671951752156019
0,1.0361111082101,-0.0819444448505077,0.0152777788063885,-0.0332921557128429,0.01191187184304,-0.011606439948082
0,1.0361111082101,-0.0819444448505077,0.0152777788063885,-0.0302378293126821,0.0131336031481624,-0.0204639863222837
0,1.02083339474202,-0.0819444448505077,0.0388888906783549,-0.00366519158706069,0.00610865233466029,-0.027488935738802
0,1.02638896227504,-0.0819444448505077,0.03194444645704,0.000305432622553781,0.00794124789535999,-0.02382374368608
0,1.02638896227504,-0.0819444448505077,0.03194444645704,0.0198531206697226,0.0265726372599602,-0.0293215326964855
0,1.02638896227504,-0.0750000036681839,0.0347222241455659,0.0256563406437635,0.0235183127224445,-0.0241291765123606
0,1.01805561097552,-0.0638888929140799,0.029166668768514,0.029626963660121,0.0167987942695618,-0.0177150927484035
0,1.01805561097552,-0.0638888929140799,0.029166668768514,0.021685715764761,-0.00244346098043024,-0.0113010071218014
0,1.02083339474202,-0.0722222259796579,0.0361111129898289,0.0164933614432812,-0.0021380283869803,-0.00794124789535999
0,1.02777785415829,-0.0791666671619817,0.030555557612777,0.0131336031481624,-0.00885754637420177,0.00183259579353034
0,1.02500007039179,-0.0750000036681839,0.030555557612777,0.0189368221908808,-0.00397062394768,-0.0033597587607801
0,1.02500007039179,-0.0819444448505077,0.0250000007162294,0.0152716310694814,0.000610865245107561,-0.00885754637420177
0,1.02361117850853,-0.0750000036681839,0.03194444645704,0.019547687843442,-0.0027488935738802,-0.00733038317412138
0,1.02222228662528,-0.0819444448505077,0.026388891079988,0.0152716310694814,-0.00580321997404099,-0.00733038317412138
0,1.02222228662528,-0.0833333367337618,0.0250000007162294,0.0143553335219622,-0.00610865233466029,-0.0167987942695618
0,1.02222228662528,-0.0819444448505077,0.0125000003581147,0.0180205255746841,-0.00397062394768,-0.0180205255746841
0,1.02638896227504,-0.0847222225390337,0.0208333341834404,0.0192422550171614,-0.00427605677396059,-0.0198531206697226
0,1.03194452980806,-0.0916666697993398,0.00833333382532574,0.015577063895762,-0.000610865245107561,-0.01588249579072
0,1.02916674604155,-0.101388894748172,0.0180555564949145,0.0241291765123606,0.00977384392172098,-0.0161879286170006
0,1.02916674604155,-0.100000002864918,0.00972222266958873,0.0299323964864016,0.015577063895762,-0.0213802829384804
0,1.02916674604155,-0.0958333393711199,0.0152777788063885,0.0329867228865623,0.0113010071218014,-0.0244346093386412
0,1.03194452980806,-0.0930555616825939,0.0111111115138517,0.0409279726445675,0.0103847095742822,-0.0339030213654041
0,1.02916674604155,-0.100000002864918,0.0125000003581147,0.0406225398182869,0.0226020142436027,-0.0284052342176437
0,1.0305556379248,-0.0958333393711199,0.0180555564949145,0.0488692186772823,0.0277943685650826,-0.0378736443817616
0,1.0333333244436,-0.0875000002275597,0.0125000003581147,0.0458148941397667,0.0430659987032413,-0.04764748737216
0,1.02916674604155,-0.0861111144222878,0.0194444453391775,0.05283984541893,0.0510072484612465,-0.0497855171561241
0,1.02361117850853,-0.0805555590452358,0.0236111118719664,0.0513126812875271,0.0390953756868839,-0.0479529201984406
0,1.02500007039179,-0.0708333340964038,0.03194444645704,0.0519235469400883,0.0366519130766392,-0.0497855171561241
0,1.02083339474202,-0.0708333340964038,0.0375000018340919,0.0335975885391235,0.029626963660121,-0.0424551330506802
0,1.01805561097552,-0.0680555564078778,0.0250000007162294,0.0284052342176437,0.0207694191485643,-0.0378736443817616
0,1.02361117850853,-0.0638888929140799,0.029166668768514,0.0183259565383196,0.00977384392172098,-0.0357356183230877
0,1.02222228662528,-0.0652777787193518,0.027777779924251,0.00488692196086049,0.011606439948082,-0.0287106670439243
0,1.02222228662528,-0.0708333340964038,0.0194444453391775,0.0140499006956816,0.00244346098043024,-0.0302378293126821
0,1.02222228662528,-0.0652777787193518,0.0194444453391775,0.0122173046693206,-0.0128281703218818,-0.01588249579072
0,1.02222228662528,-0.0638888929140799,0.0180555564949145,0.011606439948082,-0.0021380283869803,-0.0164933614432812
0,1.02222228662528,-0.0763888894734557,0.0222222230277034,0.00671951752156019,-0.01191187184304,-0.00366519158706069
0,1.02500007039179,-0.0750000036681839,0.0222222230277034,0.00427605677396059,-0.0177150927484035,-0.00183259579353034
0,1.01944450285877,-0.0666666706026059,0.0180555564949145,0.00641408516094089,-0.0244346093386412,0.00763581553474069
0,1.01805561097552,-0.0638888929140799,0.027777779924251,0.00366519158706069,-0.0369573459029198,0.0134390350431204
0,1.01944450285877,-0.0652777787193518,0.0250000007162294,0.0033597587607801,-0.0369573459029198,0.01191187184304
0,1.01944450285877,-0.0625000010308258,0.0194444453391775,0.00580321997404099,-0.0458148941397667,0.0201585534960032
0,1.02500007039179,-0.0611111152255539,0.0152777788063885,-0.00366519158706069,-0.0390953756868839,0.0284052342176437
0,1.02916674604155,-0.0680555564078778,0.0222222230277034,0.0021380283869803,-0.0409279726445675,0.0302378293126821
0,1.02500007039179,-0.0722222259796579,0.0180555564949145,0.00183259579353034,-0.0412334054708481,0.0244346093386412
0,1.02500007039179,-0.0680555564078778,0.00972222266958873,-0.0027488935738802,-0.0354301854968071,0.0299323964864016
0,1.02638896227504,-0.0694444482911319,0.0180555564949145,0.0045814891345799,-0.0387899428606033,0.0253509078174829
0,1.03194452980806,-0.0736111117849297,0.0194444453391775,0.00183259579353034,-0.0363464802503586,0.0369573459029198
0,1.03194452980806,-0.0680555564078778,0.00972222266958873,-0.00244346098043024,-0.027488935738802,0.01588249579072
0,1.0361111082101,-0.0777777813567098,0.00416666691266287,0.00366519158706069,-0.00916297826915979,0.015577063895762
0,1.02916674604155,-0.0777777813567098,0.00555555575692586,-0.000916297896765172,-0.00152716308366507,0.0021380283869803
0,1.0305556379248,-0.0763888894734557,0.0222222230277034,0.00122173049021512,0.00519235478714108,-0.0143553335219622
0,1.03194452980806,-0.0722222259796579,0.0166666676506515,-0.00305432616733015,0.0106901414692402,-0.0152716310694814
0,1.03194452980806,-0.0638888929140799,0.00972222266958873,-0.0259617734700441,0.00641408516094089,-0.0167987942695618
0,1.02222228662528,-0.0638888929140799,0.0152777788063885,-0.02382374368608,-0.00244346098043024,-0.0326812900602817
0,1.02500007039179,-0.0611111152255539,0.0152777788063885,-0.0314595587551594,0.00152716308366507,-0.0229074470698834
0,1.02361117850853,-0.0583333375370279,0.0166666676506515,-0.0342084541916847,0.00733038317412138,-0.0302378293126821
0,1.01666671909226,-0.055555559848502,0.0166666676506515,-0.0299323964864016,0.00519235478714108,-0.0320704244077206
0,1.02916674604155,-0.0583333375370279,0.0180555564949145,-0.0323758572340012,0.00122173049021512,-0.0268780700862408
0,1.03194452980806,-0.055555559848502,0.00555555575692586,-0.037568211555481,0.0241291765123606,-0.0241291765123606
0,1.03194452980806,-0.0611111152255539,0.00555555575692586,-0.0390953756868839,0.0403171069920063,-0.0143553335219622
0,1.0305556379248,-0.0694444482911319,0.00694444498106275,-0.0354301854968071,0.0519235469400883,-0.0183259565383196
0,1.0305556379248,-0.0736111117849297,0.00972222266958873,-0.0268780700862408,0.0519235469400883,-0.0192422550171614
0,1.02222228662528,-0.0708333340964038,0.0222222230277034,-0.0131336031481624,0.0308486949652433,-0.0284052342176437
0,1.02083339474202,-0.0708333340964038,0.0180555564949145,-0.00488692196086049,0.0106901414692402,-0.0134390350431204
0,1.01944450285877,-0.0722222259796579,0.0208333341834404,0.0113010071218014,-0.0198531206697226,-0.0113010071218014
0,1.01805561097552,-0.0736111117849297,0.0222222230277034,0.0171042270958424,-0.0290160998702049,0.00366519158706069
0,1.01666671909226,-0.0819444448505077,0.0125000003581147,0.0390953756868839,-0.0409279726445675,0.0125227374956012
0,1.02777785415829,-0.0972222251763917,-0.00138888893923146,0.0610865242779255,-0.0229074470698834,0.00824668072164059
0,1.02916674604155,-0.104166672436698,-0.0152777788063885,0.0687223374843597,-0.0229074470698834,-0.00885754637420177
0,1.02500007039179,-0.0930555616825939,-0.00694444498106275,0.0739146918058395,-0.0161879286170006,-0.00855211354792118
0,1.0305556379248,-0.0819444448505077,-0.0152777788063885,0.0671951770782471,-0.0198531206697226,0.0113010071218014
0,1.02916674604155,-0.0694444482911319,-0.0194444453391775,0.0699440687894821,-0.0186313893646002,0.0167987942695618
0,1.02500007039179,-0.055555559848502,-0.00833333382532574,0.0445931628346443,-0.0406225398182869,0.0152716310694814
0,1.02638896227504,-0.0416666683668809,-0.00972222266958873,0.0226020142436027,-0.0473420582711697,0.019547687843442
0,1.02222228662528,-0.0388888906783549,-0.0111111115138517,-0.00397062394768,-0.0635299831628799,0.01588249579072
0,1.03194452980806,-0.0388888906783549,-0.00972222266958873,-0.0229074470698834,-0.0430659987032413,0.0293215326964855
0,1.0305556379248,-0.0416666683668809,-0.00555555575692586,-0.0357356183230877,-0.01588249579072,0.0354301854968071
0,1.02916674604155,-0.0458333348996699,-0.00972222266958873,-0.0507018156349659,0.000916297896765172,0.0326812900602817
0,1.03194452980806,-0.0458333348996699,0.00555555575692586,-0.0433714315295219,0.017409659922123,0.0271835029125214
0,1.03194452980806,-0.0513888902767219,-0.00138888893923146,-0.0461203269660473,0.0314595587551594,0.0323758572340012
0,1.0361111082101,-0.055555559848502,0.00555555575692586,-0.0488692186772823,0.0394008085131645,0.0351247526705265
0,1.0333333244436,-0.052777782159976,0.00555555575692586,-0.0552833043038845,0.0470366254448891,0.0122173046693206
0,1.0305556379248,-0.0541666679652478,0.00555555575692586,-0.0568104684352875,0.0467311926186085,0.00549778714776039
0,1.0361111082101,-0.055555559848502,0.00555555575692586,-0.0632245540618896,0.0485637858510017,-0.00977384392172098
0,1.03888889197661,-0.0611111152255539,0.00416666691266287,-0.0693332031369209,0.0626136884093285,-0.0339030213654041
0,1.04722224327614,-0.0777777813567098,0.00416666691266287,-0.0714712366461754,0.070249505341053,-0.0565050356090069
0,1.04583335139288,-0.0875000002275597,0.0111111115138517,-0.058643065392971,0.100792765617371,-0.0592539273202419
0,1.02916674604155,-0.0972222251763917,0.0208333341834404,-0.0128281703218818,0.05283984541893,-0.0607810914516449
0,1.01944450285877,-0.0819444448505077,0.0194444453391775,-0.00855211354792118,0.0433714315295219,-0.0729983970522881
0,1.02222228662528,-0.0736111117849297,0.0152777788063885,-0.0232128798961639,0.0363464802503586,-0.0678060427308083
0,1.02083339474202,-0.0597222233422998,0.026388891079988,-0.0351247526705265,0.0534507073462009,-0.0620028227567673
0,1.03194452980806,-0.0458333348996699,0.03194444645704,-0.0183259565383196,0.121867619454861,-0.0403171069920063
0,1.01944450285877,-0.0430555572111439,0.0361111129898289,-0.0045814891345799,0.0711658000946045,-0.0146607663482428
0,1.04166667574312,-0.0472222237439329,0.0250000007162294,-0.00427605677396059,0.0934623852372169,-0.000305432622553781
0,1.03194452980806,-0.0458333348996699,0.033333335301303,0.000610865245107561,0.102319926023483,-0.00824668072164059
0,1.02222228662528,-0.0444444460554069,0.0236111118719664,-0.013744467869401,0.0842994004487991,-0.0302378293126821
0,1.02222228662528,-0.0513888902767219,0.00138888893923146,-0.00519235478714108,0.0766635909676552,-0.0311541277915239
0,1.02916674604155,-0.0652777787193518,-0.0125000003581147,0.00397062394768,0.0791070461273193,-0.0247400421649218
0,1.04166667574312,-0.0791666671619817,-0.00555555575692586,0.0204639863222837,0.11087204515934,-0.0308486949652433
0,1.0361111082101,-0.0847222225390337,-0.00138888893923146,0.0479529201984406,0.143553331494331,-0.0409279726445675
0,1.0361111082101,-0.0847222225390337,-0.00138888893923146,0.0693332031369209,0.16371189057827,-0.0519235469400883
0,1.02916674604155,-0.0791666671619817,0.0111111115138517,0.0897971913218498,0.182648703455925,-0.0638354197144508
0,1.02361117850853,-0.0680555564078778,0.0111111115138517,0.102930791676045,0.203723564743996,-0.0879645943641663
0,1.02361117850853,-0.0680555564078778,0.0111111115138517,0.109344877302647,0.210443079471588,-0.0956004112958908
0,1.01527782720901,-0.0486111125881959,0.0250000007162294,0.116980694234371,0.213191971182823,-0.0916297882795334
0,1.0125000434425,-0.052777782159976,0.030555557612777,0.128281697630882,0.203723564743996,-0.106595985591412
0,1.0125000434425,-0.052777782159976,0.030555557612777,0.140193566679955,0.215330004692078,-0.129808858036995
0,1.00416669214298,-0.055555559848502,0.03194444645704,0.141109868884087,0.228769034147263,-0.138055548071861
0,0.98888888142718,-0.0416666683668809,0.0138888899621255,0.136528387665749,0.230296194553375,-0.169820532202721
0,0.98888888142718,-0.0416666683668809,0.0138888899621255,0.108428582549095,0.244346097111702,-0.232128798961639
0,0.991666665193688,-0.0513888902767219,-0.00416666691266287,0.105374254286289,0.286495804786682,-0.272445887327194
0,0.979166735492117,-0.111111119697004,-0.0152777788063885,0.129808858036995,0.324674874544144,-0.323758572340012
0,0.979166735492117,-0.111111119697004,-0.0152777788063885,0.191506251692772,0.348498612642288,-0.374154955148697
0,0.956944465360051,-0.125000002061652,0.00416666691266287,0.276111096143722,0.299629390239716,-0.425162196159363
0,0.976388951725609,-0.106944444047242,0.0402777795226179,0.357356160879135,0.278859972953796,-0.428827404975891
0,0.993055557076942,-0.0847222225390337,0.055555559848502,0.417220950126648,0.246178686618805,-0.417526394128799
0,1.02361117850853,-0.0250000007162294,0.101388894748172,0.411112308502197,0.17989981174469,-0.361021369695664
0,1.09166668629255,0.0819444448505077,0.180555567988136,0.318260788917542,0.147218525409698,-0.294131606817245
0,1.12083341584089,0.112499999424294,0.195833342236038,0.206472456455231,0.207999616861343,-0.191811680793762
0,1.1652778588573,0.143055560076062,0.211111128639904,0.0983493030071259,0.249233022332191,-0.0910189226269722
0,1.15000004814151,0.130555557438704,0.231944458264858,0.0180205255746841,0.193033412098885,0.0244346093386412
0,1.1083333888916,0.0902777839940679,0.241666677135707,-0.00946841109544039,0.206472456455231,0.0849102661013603
0,1.06666672964169,0.0361111129898289,0.254166679773066,-0.0143553335219622,0.168293371796608,0.0971275717020035
0,1.00416669214298,-0.0111111115138517,0.250000004123303,0.0226020142436027,0.108428582549095,0.114537231624126
0,0.926388941176177,-0.0222222230277034,0.241666677135707,0.058643065392971,-0.0113010071218014,0.137139245867729
0,0.869444471210474,-0.00555555575692586,0.238888893369199,0.0977384373545647,-0.160352125763893,0.131336033344269
0,0.834722271376837,0.0222222230277034,0.233333350148112,0.126143679022789,-0.310014098882675,0.0769690200686455
0,0.831944487610329,0.0486111125881959,0.218055563744246,0.124616511166096,-0.474031418561935,0.0348193198442459
0,0.862500011794203,0.0416666683668809,0.190277786858986,0.0433714315295219,-0.602923989295959,0.134390354156494
0,1.06527783775844,-0.0486111125881959,0.0819444448505077,0.0183259565383196,-0.317649930715561,0.353080123662949
0,1.2430556098241,-0.0916666697993398,-0.055555559848502,0.173180297017098,-0.182648703455925,0.431881725788117
0,1.26249999894194,-0.0847222225390337,-0.0972222251763917,0.328950941562653,-0.0204639863222837,0.327729195356369
0,1.13472223742571,-0.029166668768514,-0.0458333348996699,0.35979962348938,0.126143679022789,0.167987942695618
0,0.959722249126559,-0.0208333341834404,0.0680555564078778,0.248011291027069,0.206472456455231,-0.0149661982432008
0,0.849999984844916,-0.0194444453391775,0.159722226207217,-0.0100792767480016,0.254425376653671,-0.139277279376984
0,0.840277838909853,0.0194444453391775,0.190277786858986,-0.208610475063324,0.191506251692772,-0.205861583352089
0,0.89166674134254,0.0625000010308258,0.176388892338373,-0.319177091121674,-0.0384845100343227,-0.2379320114851
0,0.98888888142718,0.10972222781375,0.143055560076062,-0.360105067491531,-0.358883321285248,-0.17989981174469
0,1.11111117265811,0.111111119697004,0.140277788465518,-0.266642689704895,-0.352163821458816,-0.111788339912891
0,1.15000004814151,0.0472222237439329,0.120833338567854,-0.193033412098885,-0.199447497725487,-0.0647517144680023
0,1.11944452395763,-0.0222222230277034,0.116666675074056,-0.171347707509995,-0.0604756586253643,-0.0464257597923279
0,1.08888890252604,-0.0472222237439329,0.112499999424294,-0.197614908218384,0.0913243517279625,-0.0977384373545647
0,1.08472222687628,-0.0458333348996699,0.104166672436698,-0.215024560689926,0.182343274354935,-0.140804439783096
0,1.07638897282447,-0.0375000018340919,0.123611110178398,-0.196393176913261,0.181732416152954,-0.135917514562607
0,1.04583335139288,-0.0208333341834404,0.122222230451108,-0.1795943826437,0.142637029290199,-0.0711658000946045
0,1.00416669214298,0.00555555575692586,0.126388893944906,-0.189979091286659,0.107206851243973,-0.0134390350431204
0,0.987499989543926,0.00833333382532574,0.123611110178398,-0.196087747812271,0.0412334054708481,0.0293215326964855
0,0.980555627375371,-0.00416666691266287,0.12916666555545,-0.171042263507843,-0.0146607663482428,0.0250454749912024
0,0.993055557076942,-0.0194444453391775,0.112499999424294,-0.114537231624126,-0.0259617734700441,0.0219911485910416
0,1.0125000434425,-0.0250000007162294,0.100000002864918,-0.0809396430850029,-0.0177150927484035,0.000610865245107561
0,1.01111115155925,-0.0152777788063885,0.100000002864918,-0.0754418596625328,-0.0207694191485643,-0.01588249579072
0,1.00416669214298,-0.00972222266958873,0.102777780553444,-0.0647517144680023,-0.0461203269660473,-0.0222965814173222
0,1.01666671909226,-0.00833333382532574,0.0916666697993398,-0.0497855171561241,-0.0485637858510017,-0.03176499158144
0,1.02916674604155,-0.00972222266958873,0.0902777839940679,-0.0320704244077206,-0.0247400421649218,-0.0323758572340012
0,1.03888889197661,-0.0194444453391775,0.0986111170596459,-0.0284052342176437,0.00916297826915979,-0.0400116741657257
0,1.03472221632685,-0.0138888899621255,0.108333335930496,-0.0219911485910416,0.0397062413394451,-0.0522289797663689
0,1.02777785415829,-0.00833333382532574,0.113888891307548,-0.0256563406437635,0.0448985956609249,-0.0711658000946045
0,1.01111115155925,0.00555555575692586,0.10972222781375,-0.0244346093386412,0.0247400421649218,-0.0769690200686455
0,1.00833336779274,0.0111111115138517,0.116666675074056,-0.0265726372599602,0.0164933614432812,-0.0552833043038845
0,1.00833336779274,0.00972222266958873,0.10972222781375,-0.029626963660121,-0.00763581553474069,-0.0421497002243996
0,1.01805561097552,0.0152777788063885,0.112499999424294,-0.0219911485910416,-0.0164933614432812,-0.021685715764761
0,1.02500007039179,0.00972222266958873,0.104166672436698,-0.02382374368608,-0.00763581553474069,-0.0164933614432812
0,1.01944450285877,0.00833333382532574,0.100000002864918,-0.0213802829384804,-0.000916297896765172,-0.01191187184304
0,1.01111115155925,0.00833333382532574,0.108333335930496,-0.013744467869401,-0.000305432622553781,-0.0045814891345799
0,1.00972225967599,0.00833333382532574,0.0888888921108138,-0.0106901414692402,-0.0149661982432008,-0.000305432622553781
0,1.00138890837647,-0.00416666691266287,0.102777780553444,0.00305432616733015,-0.0311541277915239,0.00122173049021512
0,1.00000001649321,-0.00277777787846293,0.104166672436698,0.0189368221908808,-0.0592539273202419,0.019547687843442
0,1.00555558402623,-0.00277777787846293,0.0986111170596459,0.0342084541916847,-0.0745255574584007,0.0351247526705265
0,1.00555558402623,-0.00555555575692586,0.108333335930496,0.0519235469400883,-0.090408056974411,0.0467311926186085
0,1.01388893532575,-0.00555555575692586,0.100000002864918,0.0705549344420433,-0.096211276948452,0.0629191175103188
0,1.01944450285877,0.00138888893923146,0.0916666697993398,0.0626136884093285,-0.0879645943641663,0.0726929605007172
0,1.01805561097552,0.00138888893923146,0.0847222225390337,0.0723875313997269,-0.0751364231109619,0.0946841165423393
0,1.02361117850853,0.00416666691266287,0.0958333393711199,0.0836885422468185,-0.0598647929728031,0.0919352173805237
0,1.02916674604155,0.00138888893923146,0.0888888921108138,0.0751364231109619,-0.0522289797663689,0.0965167060494423
0,1.04166667574312,0.0111111115138517,0.0875000002275597,0.0638354197144508,-0.0369573459029198,0.0959058403968811
0,1.0513889189259,0.0250000007162294,0.0750000036681839,0.02382374368608,-0.0210748501121998,0.0772744566202164
0,1.05000002704265,0.029166668768514,0.0722222259796579,-0.0235183127224445,-0.0161879286170006,0.0513126812875271
0,1.0361111082101,0.0194444453391775,0.0861111144222878,-0.0390953756868839,-0.0207694191485643,0.0531452745199203
0,1.02777785415829,0.00277777787846293,0.0750000036681839,-0.0262672062963247,-0.0397062413394451,0.0491746515035629
0,1.0305556379248,-0.0125000003581147,0.0861111144222878,0.0033597587607801,-0.0381790772080422,0.0277943685650826
0,1.03888889197661,-0.0180555564949145,0.0986111170596459,0.0259617734700441,-0.00885754637420177,0.00885754637420177
0,1.03472221632685,-0.0152777788063885,0.0958333393711199,0.04764748737216,0.0171042270958424,-0.01191187184304
0,1.02500007039179,-0.00972222266958873,0.0875000002275597,0.0607810914516449,0.0268780700862408,-0.0125227374956012
0,1.0305556379248,0.00277777787846293,0.0888888921108138,0.0928515195846558,0.0290160998702049,-0.0100792767480016
0,1.01527782720901,0.0194444453391775,0.0916666697993398,0.10598511993885,0.00183259579353034,-0.00488692196086049
0,1.00694447590948,0.00972222266958873,0.0944444474878658,0.100792765617371,-0.0372627787292004,0.0433714315295219
0,1.0125000434425,-0.00277777787846293,0.0902777839940679,0.11117747426033,-0.0598647929728031,0.0778853222727776
0,1.02222228662528,-0.00138888893923146,0.0750000036681839,0.132863193750381,-0.0500909499824047,0.0729983970522881
0,1.02638896227504,-0.00555555575692586,0.0708333340964038,0.149356558918953,-0.0335975885391235,0.0513126812875271
0,1.02916674604155,-0.0125000003581147,0.0777777813567098,0.156381502747536,-0.0167987942695618,0.0372627787292004
0,1.02222228662528,-0.00555555575692586,0.0819444448505077,0.16951510310173,0.00427605677396059,0.0143553335219622
0,1.02083339474202,0.0125000003581147,0.0888888921108138,0.161268427968025,0.0167987942695618,0.00244346098043024
0,1.01527782720901,0.0208333341834404,0.0972222251763917,0.127670839428902,0.021685715764761,0.0122173046693206
0,1.02083339474202,0.027777779924251,0.0777777813567098,0.0858265683054924,0.0287106670439243,-0.0125227374956012
0,1.02361117850853,0.03194444645704,0.0847222225390337,0.0543670058250427,0.0342084541916847,-0.0247400421649218
0,1.02500007039179,0.0347222241455659,0.0944444474878658,0.0412334054708481,0.027488935738802,-0.0253509078174829
0,1.02916674604155,0.0250000007162294,0.0875000002275597,0.0250454749912024,0.019547687843442,-0.0207694191485643
0,1.0361111082101,0.0180555564949145,0.0916666697993398,0.0171042270958424,0.0348193198442459,-0.0222965814173222
0,1.02500007039179,0.00555555575692586,0.0819444448505077,0.0109955742955208,0.0433714315295219,-0.03176499158144
0,1.02500007039179,0.00277777787846293,0.0861111144222878,0.0131336031481624,0.0485637858510017,-0.0290160998702049
0,1.02222228662528,0.00277777787846293,0.0958333393711199,0.00366519158706069,0.0430659987032413,-0.037568211555481
0,1.02222228662528,0.00138888893923146,0.0847222225390337,0.0033597587607801,0.0461203269660473,-0.0442877300083637
0,1.01805561097552,-0.00138888893923146,0.0777777813567098,0.015577063895762,0.0329867228865623,-0.0397062413394451
0,1.02083339474202,0.00277777787846293,0.0819444448505077,0.0229074470698834,0.0271835029125214,-0.0311541277915239
0,1.02083339474202,0.00277777787846293,0.0819444448505077,0.0128281703218818,0.0406225398182869,-0.0314595587551594
0,1.01805561097552,-0.00277777787846293,0.0805555590452358,0.019547687843442,0.0433714315295219,-0.0290160998702049
0,1.01805561097552,-0.00277777787846293,0.0805555590452358,0.00763581553474069,0.0390953756868839,-0.0363464802503586
0,1.01944450285877,-0.00416666691266287,0.0861111144222878,0.0106901414692402,0.0516181141138077,-0.0397062413394451
0,1.02638896227504,-0.00277777787846293,0.0861111144222878,0.00885754637420177,0.0455094613134861,-0.0235183127224445
0,1.02361117850853,0.00277777787846293,0.0861111144222878,-0.000916297896765172,0.037568211555481,-0.0229074470698834
0,1.02916674604155,0.00972222266958873,0.0833333367337618,-0.0113010071218014,0.0253509078174829,-0.0177150927484035
0,1.0305556379248,0.00138888893923146,0.0791666671619817,-0.0113010071218014,0.0226020142436027,-0.0229074470698834
0,1.02916674604155,-0.00277777787846293,0.0791666671619817,-0.00183259579353034,0.0360410511493683,-0.0277943685650826
0,1.02638896227504,-0.00555555575692586,0.0847222225390337,0.00122173049021512,0.0467311926186085,-0.0369573459029198
0,1.02500007039179,-0.00277777787846293,0.0902777839940679,-0.0021380283869803,0.0467311926186085,-0.0485637858510017
0,1.01944450285877,-0.00277777787846293,0.0888888921108138,0.00366519158706069,0.0415388382971287,-0.0503963828086853
0,1.01388893532575,0.0111111115138517,0.101388894748172,-0.00549778714776039,0.0256563406437635,-0.0488692186772823
0,1.00972225967599,0.0222222230277034,0.101388894748172,-0.00305432616733015,0.0198531206697226,-0.0424551330506802
0,1.01944450285877,0.0222222230277034,0.0972222251763917,-0.00183259579353034,0.00855211354792118,-0.0387899428606033
0,1.01805561097552,0.0166666676506515,0.104166672436698,0.00122173049021512,-0.00152716308366507,-0.0354301854968071
0,1.01944450285877,0.0208333341834404,0.108333335930496,-0.000916297896765172,0.00977384392172098,-0.0387899428606033
0,1.02083339474202,0.0222222230277034,0.10972222781375,0.00549778714776039,-0.00152716308366507,-0.0342084541916847
0,1.02222228662528,0.0138888899621255,0.122222230451108,0.00427605677396059,0.00427605677396059,-0.0366519130766392
0,1.02222228662528,0.0111111115138517,0.118055554801345,0.00977384392172098,0.00885754637420177,-0.0390953756868839
0,1.02222228662528,0.0222222230277034,0.0986111170596459,0.00946841109544039,0.00244346098043024,-0.0409279726445675
0,1.02222228662528,0.0138888899621255,0.108333335930496,0.00855211354792118,0.0250454749912024,-0.0409279726445675
0,1.01944450285877,0.0152777788063885,0.108333335930496,0.0180205255746841,0.0235183127224445,-0.0387899428606033
0,1.01666671909226,0.0125000003581147,0.116666675074056,0.0229074470698834,0.0186313893646002,-0.0329867228865623
0,1.01805561097552,0.0166666676506515,0.105555564319952,0.0232128798961639,0.0171042270958424,-0.0366519130766392
0,1.0125000434425,0.0125000003581147,0.0986111170596459,0.0140499006956816,0.0100792767480016,-0.0354301854968071
0,1.0125000434425,0.00555555575692586,0.10972222781375,0.0219911485910416,0.00152716308366507,-0.0290160998702049
0,1.02222228662528,0.00555555575692586,0.101388894748172,0.037568211555481,0.00641408516094089,-0.011606439948082
0,1.02777785415829,0.00277777787846293,0.0986111170596459,0.0387899428606033,0.00366519158706069,-0.00641408516094089
0,1.02500007039179,0.00277777787846293,0.0847222225390337,0.0342084541916847,0.00427605677396059,0.000916297896765172
0,1.02500007039179,0.0111111115138517,0.0902777839940679,0.029626963660121,0.000916297896765172,-0.00152716308366507
0,1.02222228662528,0.0138888899621255,0.101388894748172,0.02382374368608,0.00152716308366507,0.0106901414692402
0,1.02222228662528,0.0138888899621255,0.108333335930496,0.0152716310694814,-0.00763581553474069,0.0140499006956816
0,1.02222228662528,0.0152777788063885,0.120833338567854,0.0180205255746841,-0.00580321997404099,0.0161879286170006
0,1.02222228662528,0.00972222266958873,0.100000002864918,0.0213802829384804,-0.00946841109544039,0.00855211354792118
0,1.02500007039179,0.00694444498106275,0.0986111170596459,0.0207694191485643,-0.00855211354792118,0.011606439948082
0,1.02222228662528,0.00833333382532574,0.0930555616825939,0.0219911485910416,-0.00885754637420177,0.017409659922123
0,1.02083339474202,0.00694444498106275,0.108333335930496,0.0265726372599602,-0.00122173049021512,0.0192422550171614
0,1.01666671909226,0.0111111115138517,0.0916666697993398,0.0271835029125214,-0.0125227374956012,0.02382374368608
0,1.01944450285877,0.0152777788063885,0.0958333393711199,0.017409659922123,-0.00885754637420177,0.0226020142436027
0,1.01527782720901,0.0111111115138517,0.0986111170596459,0.0247400421649218,-0.00702495034784079,0.0332921557128429
0,1.02083339474202,0.0152777788063885,0.0888888921108138,0.0229074470698834,-0.01191187184304,0.0329867228865623
0,1.01805561097552,0.0194444453391775,0.0888888921108138,0.0219911485910416,-0.021685715764761,0.0439822971820831
0,1.01944450285877,0.0152777788063885,0.101388894748172,0.0210748501121998,-0.0106901414692402,0.0561996027827263
0,1.01944450285877,0.0125000003581147,0.100000002864918,0.0232128798961639,-0.0152716310694814,0.0513126812875271
0,1.02638896227504,0.0152777788063885,0.0986111170596459,0.0207694191485643,-0.0143553335219622,0.0445931628346443
0,1.0305556379248,0.0125000003581147,0.0986111170596459,0.0222965814173222,-0.00885754637420177,0.0335975885391235
0,1.02638896227504,0.0194444453391775,0.0888888921108138,0.0204639863222837,-0.000916297896765172,0.0381790772080422
0,1.02916674604155,0.0138888899621255,0.101388894748172,0.0222965814173222,-0.00122173049021512,0.00397062394768
0,1.02500007039179,0.0111111115138517,0.106944444047242,0.0262672062963247,0.0033597587607801,0.00183259579353034
0,1.02916674604155,0.00833333382532574,0.104166672436698,0.0363464802503586,0.00366519158706069,-0.0131336031481624
0,1.02916674604155,0.00833333382532574,0.101388894748172,0.0516181141138077,0.0021380283869803,-0.0204639863222837
0,1.02916674604155,0.0125000003581147,0.101388894748172,0.0607810914516449,0.0210748501121998,-0.0323758572340012
0,1.02500007039179,0.0138888899621255,0.0958333393711199,0.0687223374843597,0.0299323964864016,-0.0287106670439243
0,1.02500007039179,0.0138888899621255,0.113888891307548,0.0729983970522881,0.0339030213654041,-0.0177150927484035
0,1.02222228662528,0.0194444453391775,0.108333335930496,0.0839939713478088,0.0348193198442459,-0.00488692196086049
0,1.02222228662528,0.0208333341834404,0.108333335930496,0.0772744566202164,0.0439822971820831,-0.00122173049021512
0,1.02083339474202,0.0222222230277034,0.10972222781375,0.0794124826788902,0.0378736443817616,0.0045814891345799
0,1.01944450285877,0.0222222230277034,0.102777780553444,0.0681114718317986,0.0339030213654041,0.0167987942695618
0,1.01805561097552,0.0250000007162294,0.0986111170596459,0.0534507073462009,0.0189368221908808,0.0177150927484035
0,1.01944450285877,0.0152777788063885,0.101388894748172,0.0445931628346443,0.0152716310694814,0.013744467869401
0,1.01805561097552,0.0111111115138517,0.100000002864918,0.0455094613134861,0.0235183127224445,0.00885754637420177
0,1.01527782720901,0.0111111115138517,0.0861111144222878,0.0427605658769607,0.0210748501121998,-0.00366519158706069
0,1.01805561097552,0.0152777788063885,0.0916666697993398,0.0381790772080422,0.0186313893646002,-0.00397062394768
0,1.02083339474202,0.0152777788063885,0.0972222251763917,0.0262672062963247,0.0164933614432812,-0.00427605677396059
0,1.02222228662528,0.0138888899621255,0.101388894748172,0.0287106670439243,0.0222965814173222,-0.0164933614432812
0,1.01944450285877,0.0152777788063885,0.101388894748172,0.0262672062963247,0.0149661982432008,-0.0164933614432812
0,1.01944450285877,0.0208333341834404,0.0888888921108138,0.0183259565383196,0.0100792767480016,-0.00671951752156019
0,1.01944450285877,0.0208333341834404,0.0888888921108138,0.00580321997404099,0.0262672062963247,0.00305432616733015
0,1.01666671909226,0.0125000003581147,0.101388894748172,0.00946841109544039,0.00885754637420177,0.0109955742955208
0,1.02083339474202,0.0125000003581147,0.0958333393711199,-0.00610865233466029,-0.00763581553474069,0.0171042270958424
0,1.02083339474202,0.0125000003581147,0.0958333393711199,-0.0109955742955208,-0.011606439948082,0.013744467869401
0,1.02361117850853,0.00694444498106275,0.106944444047242,-0.0290160998702049,-0.0106901414692402,0.0186313893646002
0,1.02222228662528,0.00416666691266287,0.101388894748172,-0.0384845100343227,-0.01588249579072,0.0131336031481624
0,1.02222228662528,0.00416666691266287,0.101388894748172,-0.0387899428606033,-0.00427605677396059,0.0128281703218818
0,1.02916674604155,-0.00138888893923146,0.104166672436698,-0.0381790772080422,-0.00397062394768,0.00977384392172098
0,1.02638896227504,-0.00277777787846293,0.112499999424294,-0.0397062413394451,0.00794124789535999,-0.0027488935738802
0,1.02638896227504,-0.00277777787846293,0.112499999424294,-0.0394008085131645,0.00794124789535999,-0.00366519158706069
0,1.02500007039179,-0.00277777787846293,0.112499999424294,-0.0433714315295219,0.0146607663482428,-0.00397062394768
0,1.02638896227504,0.00416666691266287,0.106944444047242,-0.0409279726445675,0.0149661982432008,-0.00397062394768
0,1.02222228662528,0.00555555575692586,0.10972222781375,-0.0549778714776039,-0.000916297896765172,0.00641408516094089
0,1.02083339474202,0.0138888899621255,0.102777780553444,-0.0589484944939613,-0.011606439948082,0.00122173049021512
0,1.01944450285877,0.00972222266958873,0.104166672436698,-0.0690277740359306,-0.015577063895762,0.00855211354792118
0,1.01666671909226,0.0125000003581147,0.106944444047242,-0.0784961804747581,-0.0189368221908808,0.0113010071218014
0,1.02083339474202,0.0111111115138517,0.112499999424294,-0.0803287774324417,-0.0305432621389627,0.0183259565383196
0,1.01388893532575,0.0138888899621255,0.10972222781375,-0.0952949747443199,-0.0366519130766392,0.0152716310694814
0,1.00833336779274,0.0222222230277034,0.106944444047242,-0.109039448201656,-0.0381790772080422,0.0222965814173222
0,1.01944450285877,0.0152777788063885,0.0944444474878658,-0.117896988987923,-0.0335975885391235,0.0244346093386412
0,1.01944450285877,0.0152777788063885,0.0944444474878658,-0.129197999835014,-0.029626963660121,0.01191187184304
0,1.02222228662528,0.00555555575692586,0.0875000002275597,-0.123089343309402,-0.0232128798961639,0.00824668072164059
0,1.02916674604155,0.00277777787846293,0.0944444474878658,-0.11087204515934,-0.00702495034784079,-0.0128281703218818
0,1.02500007039179,0.00277777787846293,0.100000002864918,-0.0879645943641663,-0.00519235478714108,-0.0100792767480016
0,1.02638896227504,0.00138888893923146,0.100000002864918,-0.0708603709936142,-0.00916297826915979,-0.011606439948082
0,1.02500007039179,0.00138888893923146,0.0958333393711199,-0.0494800843298435,-0.0134390350431204,-0.0128281703218818
0,1.02222228662528,-0.00416666691266287,0.102777780553444,-0.0161879286170006,-0.00763581553474069,-0.0140499006956816
0,1.02500007039179,-0.0111111115138517,0.0930555616825939,0.00977384392172098,0.00610865233466029,-0.0113010071218014
0,1.03194452980806,-0.0152777788063885,0.0861111144222878,0.0360410511493683,0.0201585534960032,-0.0284052342176437
0,1.03472221632685,-0.0194444453391775,0.0875000002275597,0.0678060427308083,0.0332921557128429,-0.027488935738802
0,1.0333333244436,-0.0194444453391775,0.0888888921108138,0.0949895456433296,0.0397062413394451,-0.0232128798961639
0,1.02916674604155,-0.0125000003581147,0.104166672436698,0.118507854640484,0.0510072484612465,-0.0186313893646002
0,1.03194452980806,-0.0111111115138517,0.0986111170596459,0.139277279376984,0.0558941699564457,-0.00244346098043024
0,1.03194452980806,-0.0125000003581147,0.111111119697004,0.149967417120934,0.0623082555830479,0.00244346098043024
0,1.02916674604155,-0.00833333382532574,0.102777780553444,0.170431405305862,0.0623082555830479,-0.0106901414692402
0,1.02222228662528,-0.00694444498106275,0.101388894748172,0.163101017475128,0.0558941699564457,-0.0167987942695618
0,1.02222228662528,-0.00694444498106275,0.0944444474878658,0.161879286170006,0.0494800843298435,-0.015577063895762
0,1.01944450285877,-0.00694444498106275,0.0930555616825939,0.145996794104576,0.0314595587551594,-0.0198531206697226
0,1.01527782720901,0.0180555564949145,0.102777780553444,0.114842668175697,0.0219911485910416,-0.0256563406437635
0,1.01805561097552,0.026388891079988,0.120833338567854,0.0864374339580536,0.0207694191485643,-0.011606439948082
0,1.01944450285877,0.0458333348996699,0.112499999424294,0.0406225398182869,0.0134390350431204,-0.00733038317412138
0,1.02500007039179,0.0513888902767219,0.108333335930496,-0.0219911485910416,0.0021380283869803,0.00519235478714108
0,1.02361117850853,0.0472222237439329,0.108333335930496,-0.0580321997404099,-0.00610865233466029,0.015577063895762
