Activity,acc_x,acc_y,acc_z,gyro_x,gyro_y,gyro_z
0,0.402777795226179,0.029166668768514,0.909722238577127,0.0302378293126821,-0.00763581553474069,-0.0232128798961639
0,0.402777795226179,0.029166668768514,0.909722238577127,0.0284052342176437,-0.00519235478714108,-0.0280998013913631
0,0.398611119576417,0.0361111129898289,0.916666697993398,0.0293215326964855,0.01588249579072,-0.0250454749912024
0,0.400000011459671,0.0347222241455659,0.925000049292922,0.0390953756868839,-0.000305432622553781,-0.013744467869401
0,0.405555578992687,0.0416666683668809,0.927777833059431,0.0387899428606033,-0.021685715764761,-0.0210748501121998
0,0.404166687109433,0.0388888906783549,0.926388941176177,0.0222965814173222,-0.0268780700862408,-0.0222965814173222
0,0.397222227693163,0.0361111129898289,0.936111184358955,0.00763581553474069,-0.0488692186772823,-0.029626963660121
0,0.400000011459671,0.0388888906783549,0.930555616825939,0.0103847095742822,0.000305432622553781,-0.0467311926186085
0,0.404166687109433,0.03194444645704,0.92083337364316,0.0134390350431204,0.0222965814173222,-0.0516181141138077
0,0.409722230330521,0.03194444645704,0.919444481759906,-0.00366519158706069,-0.0226020142436027,-0.0387899428606033
0,0.411111122213775,0.029166668768514,0.919444481759906,0.000305432622553781,-0.0482583530247212,-0.0345138870179653
0,0.408333338447267,0.029166668768514,0.919444481759906,0.0146607663482428,-0.0427605658769607,-0.0210748501121998
0,0.402777795226179,0.027777779924251,0.923611157409668,0.0143553335219622,-0.0534507073462009,-0.0149661982432008
0,0.395833335809908,0.030555557612777,0.92083337364316,0.0131336031481624,-0.0592539273202419,-0.0164933614432812
0,0.411111122213775,0.03194444645704,0.925000049292922,-0.0329867228865623,-0.0235183127224445,-0.0204639863222837
0,0.416666689746791,0.030555557612777,0.923611157409668,-0.0473420582711697,0.00519235478714108,-0.0271835029125214
0,0.413888905980283,0.029166668768514,0.913888914226889,-0.0219911485910416,0.0100792767480016,-0.0360410511493683
0,0.412500014097029,0.029166668768514,0.913888914226889,0.00733038317412138,-0.0244346093386412,-0.0381790772080422
0,0.405555578992687,0.030555557612777,0.922222265526414,0.0213802829384804,-0.0284052342176437,-0.0387899428606033
0,0.405555578992687,0.030555557612777,0.922222265526414,0.0280998013913631,-0.0253509078174829,-0.0455094613134861
0,0.411111122213775,0.033333335301303,0.918055589876652,0.0244346093386412,-0.0219911485910416,-0.0500909499824047
0,0.411111122213775,0.033333335301303,0.918055589876652,0.00977384392172098,0.0268780700862408,-0.0653625801205635
0,0.412500014097029,0.0250000007162294,0.92083337364316,0.00152716308366507,0.021685715764761,-0.0531452745199203
0,0.411111122213775,0.027777779924251,0.92083337364316,0.00122173049021512,0.0152716310694814,-0.0390953756868839
0,0.411111122213775,0.027777779924251,0.92083337364316,-0.0131336031481624,0.0131336031481624,-0.0253509078174829
0,0.409722230330521,0.033333335301303,0.922222265526414,-0.0244346093386412,-0.01191187184304,-0.0253509078174829
0,0.409722230330521,0.033333335301303,0.922222265526414,-0.017409659922123,-0.00824668072164059,-0.0244346093386412
0,0.416666689746791,0.0361111129898289,0.933333400592447,-0.017409659922123,0.000610865245107561,-0.0329867228865623
0,0.415277797863537,0.03194444645704,0.931944508709193,0.0021380283869803,0.00122173049021512,-0.0280998013913631
0,0.412500014097029,0.03194444645704,0.923611157409668,-0.00152716308366507,-0.00641408516094089,-0.0305432621389627
0,0.406944470875941,0.027777779924251,0.911111130460381,0.0140499006956816,-0.0290160998702049,-0.0345138870179653
0,0.406944470875941,0.03194444645704,0.919444481759906,0.011606439948082,-0.0268780700862408,-0.0348193198442459
0,0.409722230330521,0.030555557612777,0.916666697993398,0.0201585534960032,-0.00397062394768,-0.0433714315295219
0,0.404166687109433,0.0347222241455659,0.906944454810619,0.0189368221908808,0.00122173049021512,-0.0534507073462009
0,0.409722230330521,0.0347222241455659,0.906944454810619,0.027488935738802,-0.0146607663482428,-0.0424551330506802
0,0.400000011459671,0.033333335301303,0.911111130460381,0.0424551330506802,-0.00885754637420177,-0.0433714315295219
0,0.406944470875941,0.0388888906783549,0.911111130460381,0.0400116741657257,-0.00519235478714108,-0.0394008085131645
0,0.406944470875941,0.0375000018340919,0.923611157409668,0.0418442711234093,-0.00244346098043024,-0.0494800843298435
0,0.408333338447267,0.0388888906783549,0.919444481759906,0.0445931628346443,-0.01588249579072,-0.0415388382971287
0,0.408333338447267,0.0402777795226179,0.912500022343635,0.0522289797663689,-0.00183259579353034,-0.0394008085131645
0,0.411111122213775,0.0375000018340919,0.915277806110144,0.0406225398182869,-0.00152716308366507,-0.0280998013913631
0,0.415277797863537,0.0416666683668809,0.913888914226889,0.0293215326964855,0.0109955742955208,-0.0256563406437635
0,0.415277797863537,0.0361111129898289,0.927777833059431,-0.00549778714776039,-0.0253509078174829,-0.0226020142436027
0,0.422222257279808,0.0388888906783549,0.933333400592447,-0.0534507073462009,-0.104152522981167,-0.0265726372599602
0,0.426388884305712,0.0402777795226179,0.955555573476797,-0.107817716896534,-0.310624986886978,-0.0693332031369209
0,0.416666689746791,0.0347222241455659,1.02916674604155,-0.241902634501457,-0.56657749414444,-0.118507854640484
0,0.44583337067127,0.0416666683668809,1.18194446420864,-0.373544096946716,-1.03541660308838,-0.101403631269932
0,0.495833332596844,0.027777779924251,1.2430556098241,-0.386983126401901,-1.22417390346527,-0.0943786799907684
0,0.565277780887976,0.0152777788063885,1.20000005869094,-0.34941491484642,-1.24860858917236,-0.0919352173805237
0,0.588888894279438,0.00277777787846293,1.09305557817581,-0.244956970214844,-1.26510190963745,-0.111482910811901
0,0.587500002396184,-0.00416666691266287,0.969444492309338,-0.142026171088219,-1.38147175312042,-0.124616511166096
0,0.548611126912784,0.00694444498106275,0.841666730793107,-0.0561996027827263,-1.47035264968872,-0.128892570734024
0,0.46527780841297,0.0250000007162294,0.702777785586986,-0.0662788823246956,-1.31763637065887,-0.115453533828259
0,0.46527780841297,0.0250000007162294,0.702777785586986,-0.132863193750381,-0.85215699672699,-0.104763388633728
0,0.266666682410424,0.0111111115138517,0.318055560531181,-0.205556154251099,-0.342389971017838,-0.0222965814173222
0,0.181944447715425,0.0416666683668809,0.130555557438704,-0.217162594199181,0.30695977807045,0.0946841165423393
0,0.150000007336368,0.0541666679652478,0.029166668768514,-0.0864374339580536,1.26296389102936,0.121256753802299
0,0.227777782615095,0.0125000003581147,0.0875000002275597,0.0858265683054924,1.84084236621857,0.00488692196086049
0,0.379166681834717,-0.0347222241455659,0.394444468238583,0.189979091286659,2.39642429351807,-0.146913096308708
0,0.534722256704101,-0.0444444460554069,0.887500065692777,0.362853944301605,2.48744320869446,-0.297796815633774
0,0.705555569353494,-0.03194444645704,1.39444453335565,0.397673279047012,1.75196146965027,-0.337197601795196
0,0.82916670384382,-0.0250000007162294,1.68611124535272,0.310319542884827,1.1001683473587,-0.31154128909111
0,0.894444525109048,-0.00277777787846293,1.77916680703532,0.149967417120934,0.414777487516403,-0.306654363870621
0,0.855555552377932,-0.00277777787846293,1.70277775345634,-0.0681114718317986,-0.595593631267548,-0.274889349937439
0,0.690277807261557,0.00555555575692586,1.46250004113967,-0.142331600189209,-1.0934487581253,-0.25411993265152
0,0.468055592179478,0.0125000003581147,1.12777777800944,-0.189368233084679,-1.48776233196259,-0.162795588374138
0,0.256944463539574,0.0194444453391775,0.788888936477167,-0.184481307864189,-1.36314582824707,-0.126143679022789
0,0.0958333393711199,0.055555559848502,0.493055597454194,-0.011606439948082,-0.792597651481628,-0.114842668175697
0,0.0222222230277034,0.0972222251763917,0.308333341660331,0.146913096308708,-0.26969701051712,-0.142331600189209
0,0.055555559848502,0.112499999424294,0.240277785252453,0.223882108926773,0.321620553731918,-0.186008468270302
0,0.161111118090472,0.0847222225390337,0.300000014672736,0.289244681596756,1.08031523227692,-0.218384325504303
0,0.318055560531181,0.0583333375370279,0.515277818962402,0.12156218290329,1.35184478759766,-0.218995183706284
0,0.318055560531181,0.0583333375370279,0.515277818962402,-0.0943786799907684,1.53663146495819,-0.192422553896904
0,0.570833348420992,0.0208333341834404,1.25694452865664,-0.299018532037735,1.41354215145111,-0.136528387665749
0,0.616666683320662,0.0222222230277034,1.41250003059024,-0.257479697465897,0.801149785518646,-0.0455094613134861
0,0.715277812536273,0.0152777788063885,1.50416670038958,-0.164322748780251,0.127670839428902,0.0390953756868839
0,0.681944455962032,0.030555557612777,1.32777782020717,-0.0751364231109619,-0.171958565711975,0.0241291765123606
0,0.654166666920807,0.03194444645704,1.22361112345855,0.00183259579353034,-0.338113903999329,-0.0885754600167274
0,0.654166666920807,0.03194444645704,1.22361112345855,0.0678060427308083,-0.50823986530304,-0.152716308832169
0,0.458333348996699,0.0486111125881959,0.89722221162784,0.133779495954514,-0.573297023773193,-0.181732416152954
0,0.377777789951463,0.055555559848502,0.812500049868629,0.167987942695618,-0.557414531707764,-0.19058994948864
0,0.377777789951463,0.055555559848502,0.812500049868629,0.0913243517279625,-0.457232624292374,-0.165239050984383
0,0.320833344297689,0.0722222259796579,0.769444450111609,-0.00794124789535999,-0.340862810611725,-0.143553331494331
0,0.326388911830706,0.0750000036681839,0.781944477060896,-0.108734011650086,-0.209832206368446,-0.124616511166096
0,0.338888890156135,0.0819444448505077,0.816666676894533,-0.160046696662903,-0.0152716310694814,-0.100181899964809
0,0.338888890156135,0.0819444448505077,0.816666676894533,-0.192727982997894,0.0543670058250427,-0.0748309940099716
0,0.343055565805897,0.0791666671619817,0.85138887672817,-0.186619326472282,-0.0442877300083637,-0.0418442711234093
0,0.363888895430851,0.0722222259796579,0.880555606276507,-0.192727982997894,-0.16371189057827,-0.00427605677396059
0,0.370833354847121,0.0652777787193518,0.904166671044111,-0.187841057777405,-0.189368233084679,-0.00305432616733015
0,0.406944470875941,0.055555559848502,0.911111130460381,-0.156686931848526,-0.0684169083833694,-0.0583376325666905
0,0.447222262554524,0.055555559848502,0.92083337364316,-0.153021737933159,0.0525344125926495,-0.134390354156494
0,0.473611111088636,0.0402777795226179,0.901388887277602,-0.131641462445259,0.0638354197144508,-0.203723564743996
0,0.484722246154669,0.0250000007162294,0.906944454810619,-0.122783914208412,-0.00152716308366507,-0.192117124795914
0,0.470833327322128,0.00833333382532574,0.895833319744586,-0.0943786799907684,-0.0213802829384804,-0.175623759627342
0,0.458333348996699,0.00277777787846293,0.883333390043015,-0.12675453722477,0.0140499006956816,-0.165544480085373
0,0.461111132763207,-0.0111111115138517,0.865277795560711,-0.171042263507843,0.114231802523136,-0.199752941727638
0,0.469444484062732,-0.0166666676506515,0.841666730793107,-0.0983493030071259,0.118507854640484,-0.246484130620956
0,0.466666700296224,-0.0180555564949145,0.831944487610329,0.0558941699564457,-0.113315500319004,-0.303294599056244
0,0.472222219205382,-0.0250000007162294,0.808333374218867,0.147829383611679,-0.233655959367752,-0.304210901260376
0,0.463888916529715,-0.0208333341834404,0.827777811960566,-0.0467311926186085,-0.330783516168594,-0.286801218986511
0,0.46527780841297,-0.03194444645704,0.837500055143345,-0.318566232919693,-0.0632245540618896,-0.165544480085373
0,0.426388884305712,-0.0847222225390337,0.647222256128395,-0.892779529094696,-0.811229050159454,-0.0864374339580536
0,0.383333357484479,-0.0847222225390337,0.634722229179108,-1.14995384216309,-2.5491406917572,0.538783133029938
0,0.447222262554524,-0.0513888902767219,0.604166704995233,-1.33046448230743,-2.12153506278992,0.469755381345749
0,0.515277818962402,-0.0500000014324589,0.652777823661411,-1.48623514175415,-1.716836810112,0.474336862564087
0,0.529166689171085,-0.0166666676506515,0.773611125761372,-1.55373573303223,-1.50883710384369,0.57757306098938
0,0.581944483487025,-0.055555559848502,0.82222224442755,-1.20432078838348,-0.990517973899841,0.516791999340057
0,0.581944483487025,-0.0486111125881959,0.861111119910949,-0.718682944774628,-0.422107875347138,0.364075690507889
0,0.618055575203916,-0.0513888902767219,0.916666697993398,-0.138360977172852,-0.176845490932465,0.22754730284214
0,0.663888910103586,-0.0583333375370279,0.87500003874349,0.0965167060494423,0.250760197639465,0.096211276948452
0,0.690277807261557,-0.0194444453391775,0.808333374218867,0.0507018156349659,0.511294186115265,0.148745685815811
0,0.690277807261557,-0.0194444453391775,0.808333374218867,0.146913096308708,1.05862951278687,-0.0027488935738802
0,0.751388904253164,-0.226388890731841,0.876388930626744,0.632245540618896,1.16950154304504,-0.102319926023483
0,0.73055557462821,-0.194444450352783,0.855555552377932,0.669508337974548,1.46974182128906,-0.387899428606033
0,0.6125000076709,-0.136111112815755,0.890277849459286,0.717766642570496,1.98317396640778,-0.491746515035629
0,0.548611126912784,-0.0847222225390337,0.96666670854283,0.740368664264679,2.04426050186157,-0.601091384887695
0,0.508333359546131,-0.0625000010308258,1.00416669214298,0.424551337957382,1.23761296272278,-0.841772317886353
0,0.508333359546131,-0.0625000010308258,1.00416669214298,0.328034639358521,0.859792828559875,-0.96241819858551
0,0.459722240879953,-0.0694444482911319,0.959722249126559,0.214108273386955,0.807258427143097,-0.885754585266113
0,0.454166673346937,-0.0388888906783549,0.933333400592447,-0.0171042270958424,1.10291719436646,-0.889114379882813
0,0.440277803138253,-0.0194444453391775,0.938888968125464,-0.249538451433182,1.31885802745819,-0.918435871601105
0,0.375000006184955,-0.0152777788063885,0.96666670854283,-0.409890592098236,1.22050881385803,-0.816421389579773
0,0.355555568443255,-0.027777779924251,0.96666670854283,-0.444404453039169,0.891252398490906,-0.720515549182892
0,0.309722233543585,-0.0361111129898289,0.911111130460381,-0.442877292633057,0.537866830825806,-0.558636248111725
0,0.290277795801886,-0.0402777795226179,0.831944487610329,-0.616363048553467,-0.0473420582711697,-0.389732033014297
0,0.206944452990142,-0.00555555575692586,0.880555606276507,-0.777631461620331,-0.647211730480194,-0.0354301854968071
0,0.277777793164528,-0.00694444498106275,0.969444492309338,-0.532063603401184,-1.5723671913147,0.356134444475174
0,0.470833327322128,-0.116666675074056,0.661111126337078,-0.193338856101036,-1.67896318435669,0.247705861926079
0,0.46527780841297,-0.118055554801345,0.773611125761372,-0.603840291500092,-1.66430234909058,0.0366519130766392
0,0.463888916529715,-0.134722233088466,0.668055585753349,-0.277638256549835,-2.24737334251404,-0.0882700309157372
0,0.463888916529715,-0.134722233088466,0.668055585753349,-0.673784375190735,-3.91839504241943,-0.0791070461273193
0,0.654166666920807,-0.0138888899621255,0.313888909193348,-2.1725423336029,-8.15810489654541,0.0653625801205635
0,0.654166666920807,-0.0138888899621255,0.313888909193348,-2.60320234298706,-7.00234842300415,0.203112691640854
0,0.770833341994863,-0.175000000455119,0.420833365396554,-1.57419979572296,-1.5723671913147,-0.314901024103165
0,0.825000028194058,-0.227777782615095,0.375000006184955,-0.503047525882721,0.832914769649506,-0.153632611036301
0,0.862500011794203,-0.298611122789481,0.397222227693163,0.233961388468742,-2.41688823699951,0.409890592098236
0,0.92083337364316,-0.334722238818301,0.387500008822313,0.021685715764761,-5.60652112960815,0.511905074119568
0,0.836111163260091,-0.319444452414435,0.509722251429385,-2.08732652664185,-6.25220584869385,0.392786353826523
0,1.07777786470773,-0.46527780841297,0.676388937052873,-3.45994067192078,-6.46051073074341,0.0247400421649218
0,1.22083333969204,-0.455555565230191,0.395833335809908,-3.17161226272583,-5.52435970306396,-0.167071640491486
0,1.16805564262381,-0.343055565805897,0.144444451959316,-1.67438161373138,-2.6679539680481,-0.0394008085131645
0,1.10277782135859,-0.269444466176932,0.0194444453391775,-1.20890235900879,-2.47308802604675,-0.0106901414692402
0,1.05972227022542,-0.248611112240049,0.00833333382532574,-1.40590631961823,-3.5668420791626,-0.108123145997524
0,0.993055557076942,-0.222222239394008,-0.0375000018340919,-1.73638451099396,-5.04819059371948,-0.462119549512863
0,0.888888957576031,-0.144444451959316,-0.212499996211229,-1.78067219257355,-7.46416234970093,-1.47126889228821
0,0.86805557932722,-0.133333341205212,-0.268055574293678,-1.76845490932465,-8.09610271453857,-1.93552649021149
0,1.22222223157529,-0.212499996211229,-0.359722244093018,-0.801760613918304,-4.69999742507935,-2.51951360702515
0,1.25000006924037,-0.213888888094483,-0.365277787314105,0.0888808965682983,-1.17286121845245,-1.6734653711319
0,1.14444448060849,-0.12916666555545,-0.381944465601225,-0.395229816436768,-0.391870051622391,-1.2467759847641
0,0.980555627375371,0.0125000003581147,-0.483333354271415,-0.64385199546814,-1.06931960582733,-0.718988418579102
0,0.970833384192592,0.0486111125881959,-0.538888932353864,-0.483805269002914,-1.14812123775482,-0.260839462280273
0,1.13055556177595,-0.0583333375370279,-0.608333332021137,-0.0418442711234093,-2.42177534103394,0.21685716509819
0,1.09722225382557,-0.0805555590452358,-0.650000039894903,0.390953749418259,-2.04975843429565,0.419358998537064
0,0.913888914226889,-0.105555564319952,-0.572222240304247,0.712268888950348,-1.17102873325348,0.517708301544189
0,0.770833341994863,-0.106944444047242,-0.56666667277123,1.2012665271759,0.29046642780304,0.583070874214172
0,0.643055580478633,-0.148611115453114,-0.534722256704101,1.43919849395752,0.716544926166534,0.794430255889893
0,0.562499997121468,-0.150000007336368,-0.509722251429385,1.47096347808838,1.08092606067657,0.815810561180115
0,0.498611116363352,-0.0652777787193518,-0.500000008246606,1.2434161901474,1.09405970573425,0.739146947860718
0,0.538888932353864,-0.0652777787193518,-0.500000008246606,0.959669291973114,1.51402950286865,0.640186786651611
0,0.552777802562547,-0.0194444453391775,-0.479166678621653,0.8662069439888,2.71773958206177,0.197614908218384
0,0.683333347845286,-0.141666668192807,-0.433333343721983,1.00242984294891,4.04728746414185,-0.0354301854968071
0,1.14027780495873,-0.188888894975731,-0.934722292475701,0.944397687911987,4.37837648391724,0.274889349937439
0,1.13055556177595,-0.108333335930496,-0.562499997121468,0.771828234195709,5.26871252059937,0.28557950258255
0,1.19166670739142,-0.322222236180943,-0.395833335809908,0.373238652944565,3.4547483921051,-0.28008171916008
0,1.11111117265811,-0.362500003547597,-0.309722233543585,0.0937678143382072,2.08060693740845,-0.171653136610985
0,1.13472223742571,-0.400000011459671,-0.181944447715425,-0.141720741987228,0.586430609226227,-0.611781537532806
0,1.20277784245745,-0.327777779402031,-0.177777784221628,-0.211664810776711,-0.290160983800888,-0.402560204267502
0,1.08333333499303,-0.358333352209763,-0.204166669223633,-0.266642689704895,-0.62491512298584,-0.288633823394775
0,0.983333411141879,-0.315277801076602,-0.247222220356795,-0.354607284069061,-0.752280533313751,-0.417220950126648
0,0.983333411141879,-0.315277801076602,-0.247222220356795,-0.313679307699203,-0.286801218986511,-0.384539663791656
0,0.916666697993398,-0.229166674498349,-0.229166674498349,-0.134084925055504,0.321315109729767,-0.187841057777405
0,0.837500055143345,-0.222222239394008,-0.223611131277262,0.0668897479772568,1.43522787094116,-0.302378296852112
0,0.837500055143345,-0.222222239394008,-0.223611131277262,0.0867428630590439,1.94713294506073,-0.32253685593605
0,0.837500055143345,-0.222222239394008,-0.223611131277262,0.105068825185299,2.65756916999817,-0.0226020142436027
0,0.819444460661041,0.0222222230277034,-0.193055558469529,-0.0729983970522881,2.77607703208923,-0.67836582660675
0,1.0125000434425,-0.316666668647927,-0.0222222230277034,0.0192422550171614,1.64170038700104,-1.26662909984589
0,1.0125000434425,-0.316666668647927,-0.0222222230277034,0.149356558918953,0.720515549182892,-1.34726333618164
0,1.3208333607909,-0.158333334323963,-0.0194444453391775,0.0711658000946045,0.101709060370922,-0.53481251001358
0,1.3208333607909,-0.158333334323963,-0.0194444453391775,0.0561996027827263,-0.167987942695618,-0.0406225398182869
0,1.13472223742571,-0.14583334384257,-0.0222222230277034,-0.04764748737216,-0.179288953542709,-0.477696627378464
0,0.938888968125464,-0.150000007336368,0.0138888899621255,-0.146302223205566,-0.40714168548584,-0.716239511966705
0,0.938888968125464,-0.150000007336368,0.0138888899621255,-0.155159771442413,0.524427831172943,-0.00305432616733015
0,0.695833374794573,-0.0472222237439329,-0.131944449321958,0.595899045467377,1.67224359512329,1.99203157424927
0,0.695833374794573,-0.0472222237439329,-0.131944449321958,0.293215304613113,0.554054796695709,2.39123201370239
0,0.922222265526414,-0.03194444645704,0.148611115453114,-0.0427605658769607,0.246178686618805,0.493273675441742
0,0.922222265526414,-0.03194444645704,0.148611115453114,-0.199752941727638,0.164322748780251,0.305432617664337
0,1.19583338304118,-0.19166667874224,-0.00277777787846293,-0.213497400283814,0.150272846221924,0.236710280179977
0,1.19583338304118,-0.19166667874224,-0.00277777787846293,-0.197004035115242,0.178983509540558,0.119424156844616
0,1.00555558402623,-0.20138889761309,0.029166668768514,-0.00183259579353034,0.216246291995048,0.00641408516094089
0,1.00000001649321,-0.187500003092477,0.0819444448505077,0.100792765617371,0.300851136445999,0.0369573459029198
0,1.00000001649321,-0.187500003092477,0.0819444448505077,0.167987942695618,-0.0684169083833694,0.0867428630590439
0,1.03888889197661,-0.206944452990142,0.0347222241455659,-0.0577267669141293,-0.400727599859238,0.205556154251099
0,1.20555562622396,-0.322222236180943,-0.298611122789481,0.0519235469400883,1.63039934635162,-0.28008171916008
0,1.20555562622396,-0.322222236180943,-0.298611122789481,-0.0122173046693206,1.29442346096039,0.100792765617371
0,1.00972225967599,-0.206944452990142,0.101388894748172,-0.0922406539320946,1.61757111549377,-0.01588249579072
0,0.941666654644256,-0.216666671860991,0.18333333959868,-0.11606439948082,1.01159286499023,-0.154854342341423
0,0.941666654644256,-0.216666671860991,0.18333333959868,-0.0320704244077206,0.401033043861389,-0.178983509540558
0,0.972222276075846,-0.193055558469529,0.243055569018962,0.0604756586253643,-0.351858377456665,-0.0745255574584007
0,0.991666665193688,-0.188888894975731,0.20972223675665,0.107817716896534,-0.599564254283905,0.00122173049021512
0,0.997222232726705,-0.180555567988136,0.12777778582816,0.0021380283869803,-0.345444291830063,0.0180205255746841
0,1.01527782720901,-0.17361112072783,0.0847222225390337,0.135612085461616,-0.314290165901184,-0.00916297826915979
0,0.986111194908388,-0.206944452990142,0.0819444448505077,0.100181899964809,-0.256257981061935,0.0842994004487991
0,1.00972225967599,-0.197222234119292,0.148611115453114,0.0335975885391235,-0.323453158140182,0.0580321997404099
0,0.979166735492117,-0.216666671860991,0.0833333367337618,0.0277943685650826,-0.13744467496872,0.117896988987923
0,0.861111119910949,-0.180555567988136,0.0819444448505077,0.0271835029125214,-0.0748309940099716,-0.149661988019943
0,0.884722281926269,-0.161111118090472,0.125000002061652,0.206472456455231,-0.400422155857086,0.171653136610985
0,0.981944519258625,-0.0777777813567098,0.123611110178398,0.304210901260376,-0.614835858345032,0.2379320114851
0,1.08194444310977,-0.279166685047782,0.14722222356986,0.458454370498657,-0.63896507024765,-0.716544926166534
0,0.95000000594378,-0.240277785252453,0.120833338567854,0.323147714138031,-0.413861215114594,-0.929736912250519
0,1.02638896227504,-0.17361112072783,-0.0152777788063885,0.0998764708638191,-0.140499010682106,-0.495411723852158
0,1.12222230772414,-0.175000000455119,0.00833333382532574,0.0907134860754013,0.137750118970871,-0.605978310108185
0,0.993055557076942,-0.10972222781375,0.0125000003581147,0.148440256714821,0.655152976512909,0.0256563406437635
0,0.983333411141879,-0.111111119697004,0.0652777787193518,0.241597205400467,0.705549359321594,-0.0775798857212067
0,0.798611131036088,-0.17361112072783,0.118055554801345,0.12705996632576,0.494495421648026,-0.458148926496506
0,1.22083333969204,-0.113888891307548,0.0569444456537738,0.0574213340878487,0.70218962430954,-0.0161879286170006
0,1.14444448060849,-0.141666668192807,0.0791666671619817,-0.101403631269932,0.374154955148697,-0.00366519158706069
0,1.13750002119222,-0.108333335930496,0.104166672436698,-0.0381790772080422,0.349720358848572,0.0143553335219622
0,1.03194452980806,-0.116666675074056,0.14583334384257,-0.193033412098885,0.0452040284872055,0.0161879286170006
0,1.02916674604155,-0.12916666555545,0.14722222356986,-0.221438646316528,-0.120035022497177,-0.0546724386513233
0,1.02222228662528,-0.12777778582816,0.159722226207217,-0.119424156844616,0.0537561401724815,-0.0516181141138077
0,0.961111141009813,-0.14583334384257,0.15555556271342,-0.0247400421649218,0.150578290224075,0.00702495034784079
0,0.986111194908388,-0.0986111170596459,0.141666668192807,0.0839939713478088,0.0806342139840126,0.0409279726445675
0,1.01527782720901,-0.0902777839940679,0.108333335930496,0.0720821022987366,0.102625362575054,-0.0287106670439243
0,1.06250005399193,-0.131944449321958,0.0736111117849297,0.01191187184304,0.165544480085373,-0.0916297882795334
0,1.06388894587519,-0.144444451959316,0.118055554801345,-0.0232128798961639,0.187535628676414,-0.0510072484612465
0,1.04166667574312,-0.130555557438704,0.130555557438704,-0.0849102661013603,0.296269655227661,0.00671951752156019
0,1.00972225967599,-0.125000002061652,0.156944454596674,-0.12156218290329,0.28008171916008,0.00977384392172098
0,0.991666665193688,-0.105555564319952,0.150000007336368,-0.184175878763199,0.313984721899033,0.0293215326964855
0,1.00000001649321,-0.108333335930496,0.14722222356986,-0.175623759627342,0.307876080274582,0.0186313893646002
0,0.997222232726705,-0.112499999424294,0.14722222356986,-0.128587126731873,0.207999616861343,-0.0781907513737679
0,0.979166735492117,-0.134722233088466,0.152777778946911,-0.090408056974411,-0.00427605677396059,-0.0171042270958424
0,1.0333333244436,-0.13750000469901,0.190277786858986,0.0161879286170006,0.0827722400426865,-0.0390953756868839
0,1.02500007039179,-0.113888891307548,0.161111118090472,0.0448985956609249,0.12156218290329,-0.00977384392172098
0,1.00972225967599,-0.115277783190802,0.159722226207217,0.111482910811901,0.0827722400426865,0.00916297826915979
0,1.03472221632685,-0.123611110178398,0.154166670830166,0.142026171088219,0.185703039169311,-0.0222965814173222
5,1.00694447590948,-0.113888891307548,0.181944447715425,0.00794124789535999,0.234266817569733,-0.0186313893646002
5,0.998611124609959,-0.131944449321958,0.16527778158427,-0.0552833043038845,0.090408056974411,-0.013744467869401
5,1.00000001649321,-0.12777778582816,0.166666673467524,-0.0452040284872055,-0.0519235469400883,0.0284052342176437
5,1.02638896227504,-0.116666675074056,0.194444450352783,0.0262672062963247,-0.153021737933159,-0.0549778714776039
5,1.03888889197661,-0.100000002864918,0.166666673467524,0.220522359013557,-0.0757472887635231,-0.124616511166096
5,1.08194444310977,-0.113888891307548,0.169444445078067,0.397367835044861,0.199447497725487,0.00794124789535999
5,0.99583334084345,-0.118055554801345,0.194444450352783,0.22693644464016,0.029626963660121,0.0775798857212067
5,0.963888924776322,-0.126388893944906,0.175000000455119,-0.0885754600167274,-0.547335267066956,0.0888808965682983
5,1.05277781080915,-0.118055554801345,0.20138889761309,-0.00488692196086049,-0.572686195373535,-0.00763581553474069
5,1.00000001649321,-0.138888896582264,0.111111119697004,-0.0519235469400883,-0.721431851387024,0.167682513594627
5,0.980555627375371,-0.141666668192807,0.118055554801345,-0.0827722400426865,-0.82527893781662,0.171042263507843
5,0.980555627375371,-0.141666668192807,0.118055554801345,-1.09222710132599,1.29564523696899,0.015577063895762
5,1.04583335139288,-0.144444451959316,0.0722222259796579,-0.121256753802299,0.0809396430850029,0.0210748501121998
5,0.975000059842355,-0.112499999424294,0.200000005729836,-0.0705549344420433,-0.064446285367012,0.0415388382971287
5,0.987499989543926,-0.12777778582816,0.17361112072783,-0.0406225398182869,-0.104763388633728,0.0372627787292004
5,0.990277773310434,-0.134722233088466,0.156944454596674,-0.0177150927484035,-0.0620028227567673,0.00305432616733015
5,1.00555558402623,-0.133333341205212,0.154166670830166,-0.10048733651638,-0.0146607663482428,0.01191187184304
5,1.00833336779274,-0.126388893944906,0.152777778946911,-0.0161879286170006,-0.0390953756868839,0.0235183127224445
5,1.02777785415829,-0.123611110178398,0.13750000469901,-0.013744467869401,0.0571159012615681,0.0629191175103188
5,1.00277780025972,-0.125000002061652,0.12777778582816,0.0302378293126821,-0.0684169083833694,0.0445931628346443
5,1.01111115155925,-0.131944449321958,0.12777778582816,-0.00763581553474069,-0.102625362575054,0.0406225398182869
5,1.00138890837647,-0.134722233088466,0.138888896582264,0.257174253463745,0.299018532037735,-0.00305432616733015
5,1.0305556379248,-0.159722226207217,0.12777778582816,0.0678060427308083,0.0696386396884918,0.000916297896765172
5,1.00000001649321,-0.126388893944906,0.151388899219622,0.0290160998702049,0.0250454749912024,0.0106901414692402
5,1.00138890837647,-0.140277788465518,0.13750000469901,-0.0470366254448891,0.0363464802503586,0.0131336031481624
5,1.00555558402623,-0.136111112815755,0.130555557438704,-0.0821613743901253,0.058643065392971,0.00977384392172098
5,1.00833336779274,-0.136111112815755,0.13750000469901,-0.0470366254448891,0.145080491900444,-0.0598647929728031
5,1.00138890837647,-0.131944449321958,0.133333341205212,-0.00610865233466029,0.0613919571042061,-0.00488692196086049
5,1.02222228662528,-0.118055554801345,0.134722233088466,-0.0177150927484035,0.0574213340878487,-0.0522289797663689
5,1.00555558402623,-0.122222230451108,0.150000007336368,0.0146607663482428,-0.0357356183230877,0.00580321997404099
5,1.01944450285877,-0.126388893944906,0.144444451959316,0.098960168659687,0.0980438739061356,-0.00488692196086049
5,1.02222228662528,-0.12777778582816,0.12777778582816,0.120645888149738,0.152716308832169,0.0473420582711697
5,1.02361117850853,-0.120833338567854,0.143055560076062,0.221133217215538,0.288939267396927,0.0772744566202164
5,1.00555558402623,-0.140277788465518,0.162500009973726,-0.0335975885391235,0.12705996632576,-0.0106901414692402
5,1.00555558402623,-0.140277788465518,0.162500009973726,-0.0546724386513233,0.0919352173805237,-0.0204639863222837
5,1.00277780025972,-0.125000002061652,0.138888896582264,-0.169820532202721,0.0824668109416962,0.0378736443817616
5,1.0361111082101,-0.12916666555545,0.163888889701015,-0.139277279376984,0.0824668109416962,-0.000305432622553781
5,1.00972225967599,-0.161111118090472,0.144444451959316,-0.064446285367012,0.170736834406853,-0.113315500319004
5,0.986111194908388,-0.141666668192807,0.17361112072783,0.0125227374956012,0.0907134860754013,-0.112399205565453
5,0.990277773310434,-0.118055554801345,0.169444445078067,0.0897971913218498,-0.106290549039841,-0.0143553335219622
5,0.990277773310434,-0.118055554801345,0.169444445078067,0.141109868884087,-0.0864374339580536,-0.00733038317412138
5,1.00833336779274,-0.12777778582816,0.14722222356986,0.158824965357781,-0.0335975885391235,0.02382374368608
5,0.991666665193688,-0.105555564319952,0.176388892338373,0.204945296049118,-0.326202034950256,0.0803287774324417
5,0.98888888142718,-0.120833338567854,0.197222234119292,0.288633823394775,-0.585208892822266,0.116675265133381
5,0.979166735492117,-0.131944449321958,0.148611115453114,0.187841057777405,-0.689666867256165,0.128587126731873
5,0.990277773310434,-0.126388893944906,0.151388899219622,0.136833816766739,-0.788627028465271,0.172263994812965
5,0.981944519258625,-0.104166672436698,0.134722233088466,0.116675265133381,-0.919657647609711,0.268169850111008
5,1.02916674604155,-0.112499999424294,0.0611111152255539,-0.0103847095742822,-0.525344133377075,0.186924770474434
5,1.00277780025972,-0.12777778582816,0.0666666706026059,-0.0757472887635231,-0.346971452236175,0.0464257597923279
5,1.02916674604155,-0.151388899219622,0.0777777813567098,-0.0510072484612465,-0.384845107793808,0.00885754637420177
5,1.08750001064279,-0.154166670830166,0.0388888906783549,0.0537561401724815,-0.0403171069920063,0.0784961804747581
5,1.03888889197661,-0.166666673467524,0.0361111129898289,0.0717766657471657,0.352774679660797,0.0638354197144508
5,1.05694448645892,-0.13750000469901,0.027777779924251,0.0839939713478088,0.725097060203552,0.0329867228865623
5,1.10138892947533,-0.144444451959316,0.0236111118719664,0.0733038261532784,1.12704634666443,0.00702495034784079
5,1.04166667574312,-0.161111118090472,0.113888891307548,-0.12156218290329,1.13651478290558,0.000916297896765172
5,0.965277816659576,-0.180555567988136,0.169444445078067,-0.19028452038765,0.529925584793091,0.0177150927484035
5,0.945833330294018,-0.133333341205212,0.16527778158427,-0.102930791676045,0.096211276948452,0.0742201283574104
5,0.930555616825939,-0.134722233088466,0.211111128639904,-0.288939267396927,-0.357356160879135,0.240986332297325
5,0.930555616825939,-0.134722233088466,0.211111128639904,-0.248927593231201,-0.62491512298584,0.229379892349243
5,0.99583334084345,-0.176388892338373,0.118055554801345,-0.190895393490791,-0.614530444145203,0.186619326472282
5,1.02500007039179,-0.180555567988136,0.0777777813567098,-0.140193566679955,-0.392175495624542,0.118507854640484
5,1.02500007039179,-0.180555567988136,0.0777777813567098,-0.124616511166096,-0.134084925055504,0.00671951752156019
5,1.04861113515939,-0.19166667874224,0.0819444448505077,-0.0751364231109619,0.0455094613134861,-0.0482583530247212
5,1.03472221632685,-0.180555567988136,0.101388894748172,-0.0442877300083637,0.0571159012615681,-0.0339030213654041
5,1.03472221632685,-0.180555567988136,0.101388894748172,-0.0577267669141293,0.171958565711975,0.0305432621389627
5,1.04166667574312,-0.156944454596674,0.0819444448505077,-0.119729585945606,0.303905457258224,0.0418442711234093
5,1.00000001649321,-0.154166670830166,0.1194444466846,-0.172263994812965,0.264810085296631,0.0400116741657257
5,1.00000001649321,-0.154166670830166,0.1194444466846,-0.138055548071861,0.207694187760353,0.029626963660121
5,1.02500007039179,-0.20972223675665,0.0902777839940679,-0.226325571537018,0.336281329393387,-0.0858265683054924
5,1.02500007039179,-0.20972223675665,0.0902777839940679,-0.226325571537018,0.336281329393387,-0.0858265683054924
5,1.00000001649321,-0.20138889761309,0.134722233088466,-0.206777885556221,0.272751331329346,-0.22693644464016
5,0.986111194908388,-0.176388892338373,0.17361112072783,-0.03176499158144,0.0635299831628799,-0.201585531234741
5,1.01527782720901,-0.140277788465518,0.156944454596674,0.00397062394768,-0.0219911485910416,-0.0369573459029198
5,1.02916674604155,-0.130555557438704,0.13750000469901,-0.0290160998702049,-0.0109955742955208,0.0305432621389627
5,1.01944450285877,-0.163888889701015,0.120833338567854,-0.194560587406159,0.0708603709936142,0.0571159012615681
5,1.01944450285877,-0.163888889701015,0.120833338567854,-0.120035022497177,-0.0027488935738802,-0.0861319974064827
5,1.06805562152495,-0.218055563744246,0.169444445078067,-0.00885754637420177,-0.0632245540618896,-0.128892570734024
5,1.00277780025972,-0.150000007336368,0.120833338567854,0.151189148426056,0.0131336031481624,-0.107206851243973
5,1.02361117850853,-0.13750000469901,0.133333341205212,0.0378736443817616,0.00610865233466029,-0.0699440687894821
5,1.02361117850853,-0.13750000469901,0.133333341205212,-0.0980438739061356,-0.157603234052658,-0.0531452745199203
5,0.983333411141879,-0.166666673467524,0.134722233088466,-0.219300627708435,-0.37079519033432,-0.0485637858510017
5,1.00833336779274,-0.180555567988136,0.130555557438704,-0.361937671899795,-0.411112308502197,-0.0806342139840126
5,1.00833336779274,-0.180555567988136,0.130555557438704,-0.245567828416824,-0.265420943498612,-0.132863193750381
5,1.04027778385987,-0.166666673467524,0.108333335930496,-0.219300627708435,-0.172569438815117,-0.0543670058250427
5,1.02638896227504,-0.16527778158427,0.156944454596674,-0.0027488935738802,-0.362853944301605,-0.0280998013913631
5,1.01944450285877,-0.161111118090472,0.134722233088466,0.242818936705589,-0.327729195356369,-0.0558941699564457
5,1.00277780025972,-0.13750000469901,0.029166668768514,0.0467311926186085,-0.154548913240433,-0.0470366254448891
5,1.05416670269241,-0.150000007336368,0.0680555564078778,0.125838235020638,0.0357356183230877,-0.0448985956609249
5,1.02222228662528,-0.143055560076062,0.0861111144222878,0.147218525409698,0.0852157026529312,-0.0232128798961639
5,1.01111115155925,-0.163888889701015,0.0958333393711199,0.0299323964864016,-0.117286130785942,-0.00122173049021512
5,1.00416669214298,-0.169444445078067,0.104166672436698,-0.0595593601465225,-0.226325571537018,0.00733038317412138
5,0.99583334084345,-0.163888889701015,0.0819444448505077,0.0189368221908808,-0.156381502747536,-0.0418442711234093
5,1.01111115155925,-0.158333334323963,0.102777780553444,-0.00916297826915979,-0.0922406539320946,-0.0387899428606033
5,1.02222228662528,-0.163888889701015,0.0847222225390337,-0.0149661982432008,-0.0201585534960032,-0.0348193198442459
5,1.01944450285877,-0.143055560076062,0.0875000002275597,-0.0229074470698834,-0.0320704244077206,-0.00733038317412138
5,1.01527782720901,-0.138888896582264,0.0916666697993398,-0.0186313893646002,-0.0100792767480016,0.00916297826915979
5,1.01527782720901,-0.144444451959316,0.0930555616825939,-0.0568104684352875,-0.000916297896765172,0.0164933614432812
5,1.01944450285877,-0.151388899219622,0.0861111144222878,-0.0516181141138077,0.00397062394768,0.00794124789535999
5,1.01388893532575,-0.156944454596674,0.0944444474878658,-0.0381790772080422,-0.019547687843442,-0.0164933614432812
5,1.00972225967599,-0.154166670830166,0.0930555616825939,0.00733038317412138,-0.0681114718317986,-0.0109955742955208
5,1.01944450285877,-0.154166670830166,0.0833333367337618,0.0235183127224445,-0.0329867228865623,-0.0109955742955208
5,1.02222228662528,-0.152777778946911,0.0750000036681839,0.0293215326964855,0.017409659922123,0.0152716310694814
5,1.01805561097552,-0.163888889701015,0.0750000036681839,0.0235183127224445,-0.0739146918058395,-0.0616973899304867
5,1.02361117850853,-0.131944449321958,0.0861111144222878,-0.0363464802503586,0.0729983970522881,-0.0940732508897781
5,1.0305556379248,-0.125000002061652,0.0722222259796579,0.0186313893646002,0.0800233483314514,-0.0109955742955208
5,1.02500007039179,-0.150000007336368,0.0944444474878658,0.109344877302647,0.143247902393341,-0.0143553335219622
5,1.00416669214298,-0.159722226207217,0.0986111170596459,0.0589484944939613,0.0339030213654041,-0.0360410511493683
5,1.02222228662528,-0.143055560076062,0.055555559848502,-0.0143553335219622,0.0885754600167274,0.0125227374956012
5,1.02777785415829,-0.13750000469901,0.0638888929140799,-0.0995710343122482,0.0455094613134861,0.00977384392172098
5,1.01944450285877,-0.151388899219622,0.0819444448505077,-0.109955742955208,-0.103847093880177,0.00610865233466029
5,1.02222228662528,-0.151388899219622,0.0750000036681839,-0.0580321997404099,-0.165239050984383,0.0351247526705265
5,0.973611167959101,-0.154166670830166,0.0750000036681839,-0.0607810914516449,-0.120035022497177,0.0244346093386412
5,0.994444448960196,-0.148611115453114,0.0930555616825939,0.0186313893646002,-0.0250454749912024,0.0222965814173222
5,1.01805561097552,-0.152777778946911,0.0916666697993398,0.12705996632576,-0.0180205255746841,-0.0302378293126821
5,1.0333333244436,-0.156944454596674,0.0819444448505077,0.16371189057827,-0.121867619454861,0.0189368221908808
5,1.02500007039179,-0.156944454596674,0.0819444448505077,0.232128798961639,-0.16401731967926,0.0616973899304867
5,1.00277780025972,-0.154166670830166,0.0722222259796579,0.242208063602448,-0.160962998867035,0.0299323964864016
5,1.01805561097552,-0.150000007336368,0.0722222259796579,0.178067222237587,-0.0971275717020035,-0.019547687843442
5,1.01666671909226,-0.150000007336368,0.0694444482911319,0.114842668175697,-0.0241291765123606,-0.0400116741657257
5,1.02916674604155,-0.14583334384257,0.055555559848502,0.0592539273202419,0.0452040284872055,-0.0390953756868839
5,1.01527782720901,-0.144444451959316,0.0583333375370279,-0.00427605677396059,-0.0357356183230877,-0.02382374368608
5,1.01805561097552,-0.14583334384257,0.0652777787193518,0.00855211354792118,0.00580321997404099,-0.0131336031481624
5,1.02083339474202,-0.14722222356986,0.0694444482911319,0.0339030213654041,0.0421497002243996,-0.0445931628346443
5,1.0125000434425,-0.143055560076062,0.0708333340964038,0.0320704244077206,-0.0335975885391235,-0.0259617734700441
5,1.01944450285877,-0.141666668192807,0.0736111117849297,0.0100792767480016,-0.118813291192055,-0.0128281703218818
5,0.99583334084345,-0.14722222356986,0.0680555564078778,-0.123394779860973,-0.153021737933159,-0.0314595587551594
5,1.00833336779274,-0.14583334384257,0.052777782159976,-0.183870434761047,0.0427605658769607,-0.0418442711234093
5,1.02083339474202,-0.141666668192807,0.0569444456537738,-0.143858760595322,0.138971850275993,-0.00855211354792118
5,1.0125000434425,-0.158333334323963,0.0513888902767219,-0.0729983970522881,0.0659734457731247,-0.0329867228865623
5,1.00972225967599,-0.112499999424294,0.0111111115138517,-0.0873537287116051,0.01191187184304,-0.0632245540618896
5,1.00416669214298,-0.13750000469901,0.0708333340964038,-0.0461203269660473,-0.0235183127224445,-0.0522289797663689
5,1.00277780025972,-0.138888896582264,0.0861111144222878,-0.0253509078174829,-0.0363464802503586,0.0177150927484035
5,1.00694447590948,-0.140277788465518,0.0777777813567098,0.0250454749912024,-0.108734011650086,0.0033597587607801
5,1.0361111082101,-0.148611115453114,0.0402777795226179,0.0671951770782471,-0.0842994004487991,-0.0378736443817616
5,1.0361111082101,-0.144444451959316,0.0541666679652478,0.118507854640484,-0.0595593601465225,-0.0699440687894821
5,1.01111115155925,-0.12916666555545,0.0750000036681839,0.136833816766739,-0.0543670058250427,-0.03176499158144
5,1.00277780025972,-0.130555557438704,0.0763888894734557,0.135001212358475,-0.109039448201656,0.0125227374956012
5,1.02222228662528,-0.13750000469901,0.0750000036681839,0.172874867916107,-0.184786736965179,0.013744467869401
5,1.04166667574312,-0.141666668192807,0.0458333348996699,0.19028452038765,-0.125227376818657,-0.0726929605007172
5,1.02222228662528,-0.144444451959316,0.055555559848502,0.240680903196335,-0.0901026204228401,-0.0540615729987621
5,1.00416669214298,-0.12777778582816,0.0569444456537738,0.193949714303017,-0.0723875313997269,-0.00977384392172098
5,1.02222228662528,-0.13750000469901,0.03194444645704,0.0510072484612465,-0.0256563406437635,0.0149661982432008
5,1.03750000009336,-0.14583334384257,0.0180555564949145,-0.00549778714776039,-0.0109955742955208,-0.0222965814173222
5,1.04444445950963,-0.140277788465518,0.0361111129898289,-0.0320704244077206,0.0561996027827263,-0.0143553335219622
5,1.00833336779274,-0.13750000469901,0.0652777787193518,0.00580321997404099,0.00580321997404099,-0.00916297826915979
5,1.01527782720901,-0.141666668192807,0.0513888902767219,0.037568211555481,0.0561996027827263,-0.000916297896765172
5,1.02916674604155,-0.144444451959316,0.0486111125881959,0.0574213340878487,0.0638354197144508,-0.0140499006956816
5,1.01944450285877,-0.136111112815755,0.0597222233422998,0.070249505341053,0.00366519158706069,-0.0171042270958424
5,1.01111115155925,-0.136111112815755,0.0416666683668809,0.0265726372599602,-0.112704634666443,-0.000610865245107561
5,1.00833336779274,-0.143055560076062,0.0416666683668809,0.0226020142436027,-0.0595593601465225,-0.0149661982432008
5,1.01944450285877,-0.144444451959316,0.0402777795226179,0.0323758572340012,0.0742201283574104,-0.00152716308366507
5,1.02638896227504,-0.143055560076062,0.0388888906783549,-0.0485637858510017,0.181732416152954,0.0250454749912024
5,1.03750000009336,-0.140277788465518,0.0638888929140799,-0.0949895456433296,0.265420943498612,0.0180205255746841
5,1.04166667574312,-0.134722233088466,0.0652777787193518,-0.114537231624126,0.300545692443848,0.0565050356090069
5,1.04166667574312,-0.150000007336368,0.0680555564078778,-0.128587126731873,0.332005262374878,0.106290549039841
5,1.03194452980806,-0.14722222356986,0.0750000036681839,-0.144775062799454,0.362548530101776,0.0867428630590439
5,1.02500007039179,-0.148611115453114,0.0916666697993398,-0.0809396430850029,0.376903861761093,0.0540615729987621
5,1.00000001649321,-0.14722222356986,0.115277783190802,0.0122173046693206,0.365602850914002,0.00183259579353034
5,0.98888888142718,-0.148611115453114,0.0986111170596459,0.128587126731873,0.203418120741844,-0.03176499158144
5,0.990277773310434,-0.13750000469901,0.104166672436698,0.02382374368608,0.127365410327911,-0.0436768643558025
5,0.976388951725609,-0.134722233088466,0.144444451959316,0.0812450796365738,-0.0244346093386412,-0.0558941699564457
5,1.05277781080915,-0.133333341205212,0.113888891307548,0.129197999835014,0.180510684847832,0.0745255574584007
5,1.01666671909226,-0.136111112815755,0.111111119697004,-0.0021380283869803,0.141720741987228,0.0232128798961639
5,1.01666671909226,-0.136111112815755,0.111111119697004,-0.0299323964864016,-0.0161879286170006,-0.0284052342176437
5,1.02222228662528,-0.15555556271342,0.0944444474878658,-0.135612085461616,0.101403631269932,-0.0406225398182869
5,1.00277780025972,-0.14722222356986,0.120833338567854,-0.0189368221908808,0.123700208961964,-0.0354301854968071
5,1.00277780025972,-0.14722222356986,0.120833338567854,0.0103847095742822,0.0397062413394451,-0.0183259565383196
5,1.00277780025972,-0.13750000469901,0.123611110178398,-0.000610865245107561,0.0357356183230877,-0.0189368221908808
5,1.01388893532575,-0.140277788465518,0.116666675074056,0.00488692196086049,0.0342084541916847,-0.0100792767480016
5,1.01388893532575,-0.140277788465518,0.116666675074056,0.00488692196086049,0.0354301854968071,-0.0186313893646002
5,1.01527782720901,-0.140277788465518,0.118055554801345,0.00702495034784079,0.0491746515035629,-0.017409659922123
5,1.01388893532575,-0.143055560076062,0.120833338567854,0.0134390350431204,0.0455094613134861,-0.027488935738802
5,1.01388893532575,-0.143055560076062,0.120833338567854,0.00183259579353034,0.0143553335219622,-0.0180205255746841
5,1.0125000434425,-0.138888896582264,0.118055554801345,0.0152716310694814,0.0164933614432812,-0.0131336031481624
5,1.01805561097552,-0.138888896582264,0.108333335930496,0.00916297826915979,0.013744467869401,-0.0134390350431204
5,1.01805561097552,-0.13750000469901,0.112499999424294,0.00824668072164059,0.0103847095742822,-0.0134390350431204
5,1.01388893532575,-0.13750000469901,0.116666675074056,0.00702495034784079,0.00183259579353034,-0.0033597587607801
5,1.00972225967599,-0.136111112815755,0.123611110178398,0.0122173046693206,-0.00733038317412138,-0.00397062394768
5,1.01111115155925,-0.134722233088466,0.1194444466846,0.0180205255746841,-0.00641408516094089,0.0033597587607801
5,1.01111115155925,-0.130555557438704,0.116666675074056,0.00580321997404099,-0.00671951752156019,0.00916297826915979
5,1.01527782720901,-0.134722233088466,0.112499999424294,0.00427605677396059,-0.0045814891345799,0.00824668072164059
5,1.01666671909226,-0.140277788465518,0.120833338567854,0.0125227374956012,-0.0109955742955208,-0.000916297896765172
5,1.01805561097552,-0.13750000469901,0.113888891307548,0.0109955742955208,-0.00244346098043024,-0.0045814891345799
5,1.01527782720901,-0.134722233088466,0.126388893944906,0.00885754637420177,-0.000305432622553781,-0.00580321997404099
5,1.01527782720901,-0.13750000469901,0.120833338567854,0.00885754637420177,-0.000305432622553781,-0.0152716310694814
5,1.02222228662528,-0.12916666555545,0.120833338567854,0.00397062394768,0.0103847095742822,-0.0183259565383196
5,1.02222228662528,-0.12916666555545,0.120833338567854,0.000916297896765172,0.0109955742955208,-0.0241291765123606
5,1.0125000434425,-0.134722233088466,0.113888891307548,-0.00702495034784079,-0.00366519158706069,-0.00549778714776039
5,1.01388893532575,-0.13750000469901,0.113888891307548,-0.00427605677396059,-0.00855211354792118,-0.00549778714776039
5,1.01666671909226,-0.138888896582264,0.111111119697004,-0.00305432616733015,-0.0021380283869803,0.000916297896765172
5,1.01805561097552,-0.140277788465518,0.111111119697004,0.00397062394768,0.00824668072164059,-0.0033597587607801
5,1.02222228662528,-0.140277788465518,0.115277783190802,0.0045814891345799,0.0045814891345799,-0.00671951752156019
5,1.01666671909226,-0.144444451959316,0.108333335930496,0.0198531206697226,-0.00916297826915979,0.00183259579353034
5,1.01388893532575,-0.138888896582264,0.12777778582816,0.0180205255746841,-0.0143553335219622,0.0106901414692402
5,1.0125000434425,-0.134722233088466,0.116666675074056,0.0277943685650826,-0.0140499006956816,0.0189368221908808
5,1.01527782720901,-0.136111112815755,0.115277783190802,0.0381790772080422,-0.0284052342176437,0.0250454749912024
5,1.01527782720901,-0.134722233088466,0.108333335930496,0.0525344125926495,-0.0241291765123606,0.0250454749912024
5,1.01805561097552,-0.120833338567854,0.111111119697004,0.0427605658769607,-0.00397062394768,0.0198531206697226
5,1.01527782720901,-0.106944444047242,0.118055554801345,0.0351247526705265,-0.0106901414692402,0.0189368221908808
5,1.01944450285877,-0.105555564319952,0.102777780553444,0.0027488935738802,-0.0146607663482428,0.0167987942695618
5,1.01527782720901,-0.0986111170596459,0.112499999424294,-0.0219911485910416,-0.00763581553474069,0.0198531206697226
5,1.0125000434425,-0.0833333367337618,0.122222230451108,-0.0662788823246956,-0.0226020142436027,0.0198531206697226
5,1.0125000434425,-0.0722222259796579,0.113888891307548,-0.122783914208412,-0.03176499158144,0.00855211354792118
5,1.02222228662528,-0.0722222259796579,0.111111119697004,-0.1750128865242,-0.0253509078174829,0.011606439948082
5,1.01388893532575,-0.0819444448505077,0.115277783190802,-0.235183119773865,-0.0302378293126821,-0.00671951752156019
5,1.01111115155925,-0.0902777839940679,0.113888891307548,-0.290771842002869,-0.0314595587551594,-0.0210748501121998
5,1.01527782720901,-0.100000002864918,0.115277783190802,-0.328034639358521,-0.0027488935738802,-0.0339030213654041
5,1.01944450285877,-0.112499999424294,0.104166672436698,-0.34391713142395,0.00580321997404099,-0.0339030213654041
5,1.01944450285877,-0.120833338567854,0.111111119697004,-0.346666038036346,-0.000610865245107561,-0.0452040284872055
5,1.01527782720901,-0.130555557438704,0.111111119697004,-0.350636661052704,-0.01191187184304,-0.0653625801205635
5,1.01944450285877,-0.13750000469901,0.100000002864918,-0.352469235658646,-0.00885754637420177,-0.0839939713478088
5,1.01666671909226,-0.150000007336368,0.100000002864918,-0.353080123662949,0.000610865245107561,-0.0800233483314514
5,1.01666671909226,-0.150000007336368,0.0986111170596459,-0.341168224811554,0.00733038317412138,-0.0736092627048492
5,1.01111115155925,-0.154166670830166,0.101388894748172,-0.324369430541992,-0.00977384392172098,-0.0546724386513233
5,1.0125000434425,-0.150000007336368,0.0972222251763917,-0.306043475866318,-0.0161879286170006,-0.0412334054708481
5,1.00972225967599,-0.15555556271342,0.0986111170596459,-0.284357786178589,-0.0256563406437635,-0.0326812900602817
5,1.00972225967599,-0.161111118090472,0.0916666697993398,-0.26419922709465,-0.021685715764761,-0.0372627787292004
5,1.0125000434425,-0.15555556271342,0.0958333393711199,-0.251065611839294,-0.0284052342176437,-0.037568211555481
5,1.01527782720901,-0.156944454596674,0.0875000002275597,-0.235793977975845,-0.0305432621389627,-0.0171042270958424
5,1.01944450285877,-0.158333334323963,0.0847222225390337,-0.221438646316528,-0.0348193198442459,-0.0128281703218818
5,1.01944450285877,-0.16527778158427,0.0847222225390337,-0.193033412098885,-0.0280998013913631,0.00488692196086049
5,1.02222228662528,-0.176388892338373,0.0777777813567098,-0.161268427968025,-0.0345138870179653,0.0106901414692402
5,1.01944450285877,-0.17361112072783,0.0805555590452358,-0.120645888149738,-0.0332921557128429,0.00152716308366507
5,1.02083339474202,-0.176388892338373,0.0805555590452358,-0.0815505087375641,-0.0302378293126821,0.0033597587607801
5,1.01111115155925,-0.179166676104882,0.0916666697993398,-0.0620028227567673,-0.0106901414692402,-0.0128281703218818
5,1.01527782720901,-0.176388892338373,0.0861111144222878,-0.0421497002243996,-0.00855211354792118,-0.0232128798961639
5,1.01944450285877,-0.166666673467524,0.0819444448505077,-0.0177150927484035,-0.0106901414692402,-0.0351247526705265
5,1.02500007039179,-0.156944454596674,0.0805555590452358,0.0161879286170006,-0.01191187184304,-0.0235183127224445
5,1.02916674604155,-0.151388899219622,0.0763888894734557,0.0232128798961639,-0.00152716308366507,-0.0161879286170006
5,1.02916674604155,-0.134722233088466,0.0722222259796579,0.0360410511493683,0.00366519158706069,0.0021380283869803
5,1.02500007039179,-0.130555557438704,0.0750000036681839,0.0256563406437635,0.000916297896765172,0.0109955742955208
5,1.01805561097552,-0.12777778582816,0.0805555590452358,0.0128281703218818,-0.00183259579353034,0.015577063895762
5,1.01944450285877,-0.138888896582264,0.0944444474878658,0.0103847095742822,-0.00305432616733015,0.019547687843442
5,1.01527782720901,-0.14722222356986,0.0916666697993398,0.0305432621389627,-0.00183259579353034,0.0109955742955208
5,1.01666671909226,-0.13750000469901,0.0986111170596459,0.0329867228865623,-0.00641408516094089,0.0186313893646002
5,1.01944450285877,-0.130555557438704,0.0944444474878658,0.0186313893646002,-0.0226020142436027,0.0164933614432812
5,1.02083339474202,-0.123611110178398,0.0694444482911319,0.00122173049021512,-0.0210748501121998,0.0219911485910416
5,1.02083339474202,-0.12777778582816,0.0777777813567098,-0.0204639863222837,-0.017409659922123,0.0149661982432008
5,1.01666671909226,-0.12777778582816,0.0777777813567098,-0.02382374368608,-0.00824668072164059,0.00549778714776039
5,1.01944450285877,-0.12777778582816,0.0750000036681839,-0.0452040284872055,-0.00397062394768,-0.00244346098043024
5,1.02222228662528,-0.134722233088466,0.0805555590452358,-0.0598647929728031,-0.01588249579072,-0.0027488935738802
5,1.01944450285877,-0.14722222356986,0.0736111117849297,-0.0534507073462009,-0.027488935738802,0.0167987942695618
5,1.01666671909226,-0.138888896582264,0.0819444448505077,-0.0381790772080422,-0.0219911485910416,0.015577063895762
5,1.01666671909226,-0.138888896582264,0.0819444448505077,-0.021685715764761,-0.00702495034784079,0.029626963660121
5,1.01944450285877,-0.15555556271342,0.0777777813567098,-0.0103847095742822,-0.00855211354792118,0.0222965814173222
5,1.01944450285877,-0.161111118090472,0.0819444448505077,0.00366519158706069,0.0021380283869803,0.0134390350431204
5,1.01944450285877,-0.166666673467524,0.0666666706026059,0.0109955742955208,0.00519235478714108,-0.0033597587607801
5,1.02083339474202,-0.166666673467524,0.0861111144222878,0.0235183127224445,0.027488935738802,-0.0143553335219622
5,1.01666671909226,-0.166666673467524,0.0847222225390337,0.0445931628346443,0.021685715764761,-0.0293215326964855
5,1.01944450285877,-0.154166670830166,0.0930555616825939,0.058643065392971,0.019547687843442,-0.0183259565383196
5,1.00972225967599,-0.143055560076062,0.0875000002275597,0.0705549344420433,0.0027488935738802,0.0027488935738802
5,1.01666671909226,-0.13750000469901,0.0847222225390337,0.0662788823246956,-0.0021380283869803,0.00671951752156019
5,1.01944450285877,-0.136111112815755,0.0916666697993398,0.0729983970522881,-0.00702495034784079,0.0100792767480016
5,1.0125000434425,-0.13750000469901,0.0916666697993398,0.0717766657471657,-0.00580321997404099,0.0207694191485643
5,1.01944450285877,-0.140277788465518,0.0833333367337618,0.0525344125926495,-0.00305432616733015,0.0265726372599602
5,1.01805561097552,-0.140277788465518,0.0819444448505077,0.0534507073462009,-0.0177150927484035,0.0287106670439243
5,1.02083339474202,-0.13750000469901,0.0833333367337618,0.0568104684352875,-0.0222965814173222,0.0219911485910416
5,1.01944450285877,-0.13750000469901,0.0847222225390337,0.0552833043038845,0.00763581553474069,0.01588249579072
5,1.01527782720901,-0.13750000469901,0.0847222225390337,0.0464257597923279,0.00733038317412138,0.0207694191485643
5,1.01388893532575,-0.144444451959316,0.0875000002275597,0.0366519130766392,0.00183259579353034,-0.00122173049021512
5,1.01388893532575,-0.136111112815755,0.0916666697993398,0.021685715764761,-0.011606439948082,0.0027488935738802
5,1.01944450285877,-0.12777778582816,0.0902777839940679,0.00916297826915979,-0.00885754637420177,-0.00610865233466029
5,1.01111115155925,-0.12777778582816,0.0777777813567098,-0.0146607663482428,-0.0100792767480016,-0.00824668072164059
5,1.01944450285877,-0.130555557438704,0.0722222259796579,-0.0229074470698834,-0.013744467869401,0.0027488935738802
5,1.0305556379248,-0.13750000469901,0.0694444482911319,-0.0305432621389627,-0.00427605677396059,0.0186313893646002
5,1.02777785415829,-0.143055560076062,0.0847222225390337,-0.0262672062963247,0.0183259565383196,0.0131336031481624
5,1.02500007039179,-0.151388899219622,0.0833333367337618,-0.0143553335219622,0.0161879286170006,0.015577063895762
5,1.01388893532575,-0.150000007336368,0.0708333340964038,-0.00702495034784079,0.0134390350431204,0.00702495034784079
5,1.01527782720901,-0.150000007336368,0.0722222259796579,0.00366519158706069,0.00855211354792118,0.01588249579072
5,1.01527782720901,-0.150000007336368,0.0722222259796579,0.011606439948082,0.00702495034784079,0.00977384392172098
5,1.01944450285877,-0.154166670830166,0.0763888894734557,0.0180205255746841,0.00152716308366507,0.00885754637420177
5,1.01944450285877,-0.150000007336368,0.0791666671619817,0.0253509078174829,0.0045814891345799,0.00671951752156019
5,1.02222228662528,-0.14722222356986,0.0791666671619817,0.021685715764761,-0.000305432622553781,0.00977384392172098
5,1.01805561097552,-0.144444451959316,0.0944444474878658,0.0293215326964855,-0.0045814891345799,0.00610865233466029
5,1.01944450285877,-0.150000007336368,0.0875000002275597,0.02382374368608,-0.00549778714776039,0.0106901414692402
5,1.02083339474202,-0.14722222356986,0.0819444448505077,0.0222965814173222,-0.00183259579353034,0.00977384392172098
5,1.01805561097552,-0.14583334384257,0.0847222225390337,0.01588249579072,0.00977384392172098,0.0122173046693206
5,1.02222228662528,-0.144444451959316,0.0750000036681839,0.0198531206697226,0.0125227374956012,0.00366519158706069
5,1.01944450285877,-0.14583334384257,0.0819444448505077,0.00977384392172098,0.00977384392172098,0.00580321997404099
5,1.01666671909226,-0.151388899219622,0.0819444448505077,0.00549778714776039,-0.0045814891345799,0.00366519158706069
5,1.01805561097552,-0.14583334384257,0.0875000002275597,0.00794124789535999,0.00488692196086049,-0.000305432622553781
5,1.01666671909226,-0.14722222356986,0.0750000036681839,-0.000916297896765172,-0.0045814891345799,-0.00122173049021512
5,1.01388893532575,-0.14583334384257,0.0777777813567098,0.000916297896765172,-0.0128281703218818,0.0033597587607801
5,1.01527782720901,-0.143055560076062,0.0805555590452358,0.00183259579353034,-0.0143553335219622,-0.000305432622553781
5,1.01527782720901,-0.150000007336368,0.0791666671619817,0.0106901414692402,-0.0125227374956012,-0.000610865245107561
5,1.01666671909226,-0.154166670830166,0.0819444448505077,0.0131336031481624,-0.0021380283869803,-0.0045814891345799
5,1.01666671909226,-0.156944454596674,0.0777777813567098,0.015577063895762,0.0021380283869803,-0.00427605677396059
5,1.01527782720901,-0.154166670830166,0.0875000002275597,0.0146607663482428,0.0140499006956816,-0.00488692196086049
5,1.01527782720901,-0.150000007336368,0.0722222259796579,0.017409659922123,0.0183259565383196,-0.0189368221908808
5,1.01944450285877,-0.148611115453114,0.0777777813567098,0.00977384392172098,0.00763581553474069,-0.0204639863222837
5,1.02222228662528,-0.141666668192807,0.0875000002275597,0.0189368221908808,0.000916297896765172,-0.0113010071218014
5,1.02222228662528,-0.148611115453114,0.0805555590452358,0.0201585534960032,-0.00610865233466029,-0.00794124789535999
5,1.01527782720901,-0.152777778946911,0.0819444448505077,0.0207694191485643,-0.00519235478714108,-0.0027488935738802
5,1.01527782720901,-0.144444451959316,0.0819444448505077,0.03176499158144,0.00427605677396059,-0.00824668072164059
5,1.01527782720901,-0.144444451959316,0.0875000002275597,0.0268780700862408,0.0109955742955208,0.0033597587607801
5,1.01944450285877,-0.152777778946911,0.0805555590452358,0.0250454749912024,0.0192422550171614,0.00977384392172098
5,1.01944450285877,-0.14722222356986,0.0875000002275597,0.0198531206697226,0.0128281703218818,0.00427605677396059
5,1.01527782720901,-0.152777778946911,0.0902777839940679,0.0229074470698834,0.0201585534960032,0.00580321997404099
5,1.01527782720901,-0.152777778946911,0.0847222225390337,0.0250454749912024,0.0128281703218818,0.00152716308366507
5,1.0125000434425,-0.14722222356986,0.0819444448505077,0.0326812900602817,0.00152716308366507,0.00305432616733015
5,1.0125000434425,-0.144444451959316,0.0861111144222878,0.0256563406437635,0.000610865245107561,-0.00549778714776039
5,1.0125000434425,-0.144444451959316,0.0861111144222878,0.0210748501121998,0.00152716308366507,0.000916297896765172
5,1.01527782720901,-0.143055560076062,0.0861111144222878,0.0213802829384804,0.013744467869401,-0.00977384392172098
5,1.01527782720901,-0.13750000469901,0.0888888921108138,0.00977384392172098,0.0100792767480016,-0.00977384392172098
5,1.01527782720901,-0.13750000469901,0.0888888921108138,-0.0128281703218818,0.0100792767480016,0.000916297896765172
5,1.01944450285877,-0.143055560076062,0.0861111144222878,-0.00244346098043024,0.00152716308366507,-0.00580321997404099
5,1.02222228662528,-0.144444451959316,0.0875000002275597,0.000305432622553781,0.00733038317412138,-0.00152716308366507
5,1.02222228662528,-0.144444451959316,0.0875000002275597,0.00519235478714108,0.00427605677396059,-0.00183259579353034
5,1.01666671909226,-0.140277788465518,0.0888888921108138,-0.00305432616733015,0.00122173049021512,0.0021380283869803
5,1.01527782720901,-0.140277788465518,0.0888888921108138,0.00488692196086049,-0.0109955742955208,0.0113010071218014
5,1.01527782720901,-0.140277788465518,0.0888888921108138,-0.000916297896765172,-0.0149661982432008,0.0140499006956816
5,1.01666671909226,-0.143055560076062,0.0944444474878658,0.0027488935738802,-0.01191187184304,0.0122173046693206
5,1.01666671909226,-0.14583334384257,0.0875000002275597,0.011606439948082,-0.0189368221908808,0.0109955742955208
5,1.01666671909226,-0.14583334384257,0.0875000002275597,0.011606439948082,-0.0250454749912024,0.00977384392172098
5,1.01527782720901,-0.14722222356986,0.0861111144222878,0.017409659922123,-0.0259617734700441,0.00488692196086049
5,1.01527782720901,-0.150000007336368,0.0916666697993398,0.019547687843442,-0.0131336031481624,-0.00397062394768
5,1.02083339474202,-0.148611115453114,0.0944444474878658,0.0268780700862408,-0.00397062394768,0.000916297896765172
5,1.01666671909226,-0.138888896582264,0.0958333393711199,0.0146607663482428,-0.013744467869401,-0.000610865245107561
5,1.01527782720901,-0.134722233088466,0.0902777839940679,0.0146607663482428,0.00122173049021512,-0.00641408516094089
5,1.01805561097552,-0.140277788465518,0.0986111170596459,0.00794124789535999,0.0103847095742822,-0.00519235478714108
5,1.01527782720901,-0.140277788465518,0.0875000002275597,0.00794124789535999,-0.000610865245107561,-0.00183259579353034
5,1.01944450285877,-0.14722222356986,0.0847222225390337,0.0125227374956012,0.00152716308366507,-0.0106901414692402
5,1.02500007039179,-0.150000007336368,0.0986111170596459,0.0167987942695618,0.00397062394768,-0.019547687843442
5,1.02222228662528,-0.14722222356986,0.101388894748172,0.0180205255746841,0.0125227374956012,-0.0345138870179653
5,1.01805561097552,-0.151388899219622,0.0819444448505077,0.0241291765123606,0.0204639863222837,-0.0387899428606033
5,1.01805561097552,-0.14583334384257,0.0722222259796579,0.0180205255746841,0.03176499158144,-0.0540615729987621
5,1.01527782720901,-0.150000007336368,0.0763888894734557,0.0339030213654041,0.0513126812875271,-0.0540615729987621
5,1.02222228662528,-0.151388899219622,0.0722222259796579,0.0381790772080422,0.0507018156349659,-0.0571159012615681
5,1.02222228662528,-0.154166670830166,0.0763888894734557,0.0433714315295219,0.0503963828086853,-0.0577267669141293
5,1.01944450285877,-0.156944454596674,0.0847222225390337,0.0558941699564457,0.0522289797663689,-0.0626136884093285
5,1.01805561097552,-0.148611115453114,0.0902777839940679,0.0507018156349659,0.0580321997404099,-0.0601702257990837
5,1.01388893532575,-0.156944454596674,0.0916666697993398,0.0543670058250427,0.0387899428606033,-0.0525344125926495
5,1.0125000434425,-0.161111118090472,0.0916666697993398,0.0754418596625328,0.0345138870179653,-0.0595593601465225
5,1.01527782720901,-0.162500009973726,0.0847222225390337,0.0919352173805237,0.0403171069920063,-0.0613919571042061
5,1.01944450285877,-0.151388899219622,0.0847222225390337,0.0928515195846558,0.0494800843298435,-0.0595593601465225
5,1.01527782720901,-0.140277788465518,0.0986111170596459,0.0839939713478088,0.0397062413394451,-0.058643065392971
5,1.01527782720901,-0.13750000469901,0.0916666697993398,0.0565050356090069,0.0262672062963247,-0.0458148941397667
5,1.01527782720901,-0.123611110178398,0.102777780553444,0.0485637858510017,0.00702495034784079,-0.0299323964864016
5,1.01527782720901,-0.125000002061652,0.0916666697993398,0.0461203269660473,0.0033597587607801,-0.0189368221908808
5,1.01527782720901,-0.122222230451108,0.100000002864918,0.0439822971820831,0.00397062394768,-0.00885754637420177
5,1.01944450285877,-0.12777778582816,0.105555564319952,0.0299323964864016,-0.00122173049021512,-0.0027488935738802
5,1.02222228662528,-0.130555557438704,0.108333335930496,0.0140499006956816,-0.00366519158706069,-0.00488692196086049
5,1.01527782720901,-0.12777778582816,0.0972222251763917,0.00794124789535999,-0.0100792767480016,-0.0033597587607801
5,1.01527782720901,-0.12777778582816,0.0944444474878658,0.00397062394768,-0.000916297896765172,-0.0045814891345799
5,1.01388893532575,-0.125000002061652,0.100000002864918,0.00580321997404099,0.0109955742955208,-0.00549778714776039
5,1.01388893532575,-0.120833338567854,0.0986111170596459,-0.00152716308366507,-0.00824668072164059,0.00549778714776039
5,1.01527782720901,-0.125000002061652,0.100000002864918,-0.00366519158706069,-0.0140499006956816,0.011606439948082
5,1.01666671909226,-0.123611110178398,0.100000002864918,-0.0106901414692402,-0.011606439948082,0.0192422550171614
5,1.01666671909226,-0.126388893944906,0.101388894748172,-0.00763581553474069,-0.0146607663482428,0.0164933614432812
5,1.01944450285877,-0.12777778582816,0.102777780553444,-0.00183259579353034,-0.0256563406437635,0.0222965814173222
5,1.0125000434425,-0.125000002061652,0.0944444474878658,0.00977384392172098,-0.0287106670439243,0.0277943685650826
5,1.01527782720901,-0.125000002061652,0.0972222251763917,0.00977384392172098,-0.0201585534960032,0.021685715764761
5,1.01527782720901,-0.12916666555545,0.0944444474878658,0.0122173046693206,-0.0198531206697226,0.00763581553474069
5,1.01666671909226,-0.130555557438704,0.0958333393711199,0.0161879286170006,-0.0180205255746841,0.00519235478714108
5,1.02083339474202,-0.123611110178398,0.0944444474878658,0.00733038317412138,-0.00427605677396059,0.00916297826915979
5,1.02083339474202,-0.120833338567854,0.0916666697993398,-0.00305432616733015,-0.00427605677396059,0.0106901414692402
5,1.01527782720901,-0.120833338567854,0.0916666697993398,-0.0241291765123606,0.000916297896765172,0.00427605677396059
5,1.01805561097552,-0.130555557438704,0.0944444474878658,-0.013744467869401,-0.00366519158706069,-0.00244346098043024
5,1.01944450285877,-0.125000002061652,0.0875000002275597,-0.0232128798961639,-0.00855211354792118,0.00641408516094089
5,1.01944450285877,-0.125000002061652,0.0944444474878658,-0.0106901414692402,0.00152716308366507,-0.000305432622553781
5,1.01666671909226,-0.130555557438704,0.0875000002275597,-0.00824668072164059,-0.0027488935738802,0.00916297826915979
5,1.01944450285877,-0.138888896582264,0.0986111170596459,-0.00916297826915979,0.000305432622553781,-0.0021380283869803
5,1.01805561097552,-0.130555557438704,0.0875000002275597,-0.00122173049021512,0.00183259579353034,-0.00427605677396059
5,1.01527782720901,-0.133333341205212,0.0972222251763917,0.00824668072164059,-0.00549778714776039,0.000305432622553781
5,1.01527782720901,-0.126388893944906,0.0930555616825939,0.00610865233466029,-0.017409659922123,0.00549778714776039
5,1.01944450285877,-0.125000002061652,0.0819444448505077,-0.000916297896765172,-0.00152716308366507,0.00641408516094089
5,1.02083339474202,-0.130555557438704,0.0875000002275597,-0.0033597587607801,0.00183259579353034,-0.00427605677396059
5,1.02222228662528,-0.131944449321958,0.0875000002275597,-0.00549778714776039,0.00519235478714108,-0.00763581553474069
5,1.02222228662528,-0.140277788465518,0.0875000002275597,0.00305432616733015,-0.00824668072164059,-0.000305432622553781
5,1.02083339474202,-0.140277788465518,0.0916666697993398,-0.000305432622553781,-0.000916297896765172,-0.0021380283869803
5,1.02222228662528,-0.144444451959316,0.0875000002275597,0.00733038317412138,0.0033597587607801,-0.00702495034784079
5,1.02222228662528,-0.143055560076062,0.0847222225390337,0.017409659922123,0.0125227374956012,-0.00183259579353034
5,1.01805561097552,-0.140277788465518,0.0972222251763917,0.0198531206697226,0.0302378293126821,-0.0143553335219622
5,1.0125000434425,-0.140277788465518,0.0986111170596459,0.0146607663482428,0.0161879286170006,-0.015577063895762
5,1.01388893532575,-0.134722233088466,0.0958333393711199,0.0201585534960032,0.0103847095742822,-0.0027488935738802
5,1.01944450285877,-0.138888896582264,0.0875000002275597,0.0198531206697226,-0.00549778714776039,0.00183259579353034
5,1.02083339474202,-0.13750000469901,0.0861111144222878,0.0265726372599602,-0.00763581553474069,0.00183259579353034
5,1.01805561097552,-0.140277788465518,0.101388894748172,0.027488935738802,-0.0122173046693206,0.00916297826915979
5,1.01527782720901,-0.140277788465518,0.0888888921108138,0.019547687843442,-0.00763581553474069,0.0149661982432008
5,1.02361117850853,-0.140277788465518,0.0833333367337618,0.019547687843442,-0.0122173046693206,0.00366519158706069
5,1.02361117850853,-0.136111112815755,0.0916666697993398,0.0219911485910416,0.00946841109544039,-0.00244346098043024
5,1.01944450285877,-0.13750000469901,0.0875000002275597,0.0354301854968071,0.00580321997404099,-0.00610865233466029
5,1.0125000434425,-0.141666668192807,0.101388894748172,0.0342084541916847,0.00916297826915979,-0.0100792767480016
5,1.01805561097552,-0.13750000469901,0.0888888921108138,0.0342084541916847,0.00549778714776039,-0.013744467869401
5,1.01666671909226,-0.130555557438704,0.0986111170596459,0.0342084541916847,0.0143553335219622,-0.0113010071218014
5,1.01666671909226,-0.131944449321958,0.0986111170596459,0.0293215326964855,0.0247400421649218,-0.0122173046693206
5,1.01805561097552,-0.12916666555545,0.0902777839940679,0.0222965814173222,0.0247400421649218,-0.0140499006956816
5,1.01944450285877,-0.12916666555545,0.105555564319952,0.02382374368608,0.0183259565383196,-0.00855211354792118
5,1.01527782720901,-0.130555557438704,0.0875000002275597,0.021685715764761,0.00946841109544039,-0.0113010071218014
5,1.01527782720901,-0.12916666555545,0.0916666697993398,0.0186313893646002,0.0152716310694814,-0.00824668072164059
5,1.02083339474202,-0.12916666555545,0.0930555616825939,0.0161879286170006,0.0045814891345799,-0.0128281703218818
5,1.01805561097552,-0.130555557438704,0.0944444474878658,0.0131336031481624,0.0122173046693206,-0.017409659922123
5,1.01666671909226,-0.12777778582816,0.0833333367337618,0.0125227374956012,0.013744467869401,-0.0149661982432008
5,1.01666671909226,-0.125000002061652,0.0944444474878658,0.0113010071218014,0.00733038317412138,-0.0134390350431204
5,1.01527782720901,-0.125000002061652,0.0986111170596459,0.0033597587607801,0.0125227374956012,-0.0183259565383196
5,1.01944450285877,-0.125000002061652,0.0944444474878658,-0.00427605677396059,0.0134390350431204,-0.0122173046693206
5,1.01527782720901,-0.123611110178398,0.0972222251763917,-0.00855211354792118,0.0152716310694814,-0.00366519158706069
5,1.0125000434425,-0.12916666555545,0.0916666697993398,-0.0125227374956012,0.00427605677396059,-0.00885754637420177
5,1.0125000434425,-0.131944449321958,0.0888888921108138,-0.0109955742955208,-0.0149661982432008,-0.0027488935738802
5,1.0125000434425,-0.131944449321958,0.0888888921108138,-0.00580321997404099,0.0045814891345799,0.00549778714776039
5,1.01666671909226,-0.130555557438704,0.0944444474878658,-0.000305432622553781,-0.00580321997404099,-0.00152716308366507
5,1.01944450285877,-0.130555557438704,0.0888888921108138,0.00366519158706069,0.0033597587607801,-0.00122173049021512
5,1.01944450285877,-0.130555557438704,0.0888888921108138,-0.00122173049021512,0.011606439948082,-0.0113010071218014
5,1.01527782720901,-0.130555557438704,0.0986111170596459,-0.0045814891345799,-0.000610865245107561,-0.0106901414692402
5,1.01666671909226,-0.12777778582816,0.0972222251763917,0.00397062394768,0.00366519158706069,-0.0167987942695618
5,1.01666671909226,-0.12777778582816,0.0972222251763917,-0.0033597587607801,0.0106901414692402,-0.00946841109544039
5,1.0125000434425,-0.122222230451108,0.0972222251763917,-0.00152716308366507,0.00519235478714108,-0.0109955742955208
5,1.0125000434425,-0.126388893944906,0.0958333393711199,-0.00885754637420177,0.000610865245107561,-0.00855211354792118
5,1.0125000434425,-0.126388893944906,0.0958333393711199,-0.00885754637420177,0.000305432622553781,-0.00946841109544039
5,1.01805561097552,-0.12777778582816,0.111111119697004,-0.0027488935738802,0.0161879286170006,-0.00519235478714108
5,1.02083339474202,-0.133333341205212,0.0930555616825939,0.0027488935738802,0.0204639863222837,-0.0183259565383196
5,1.01944450285877,-0.13750000469901,0.0916666697993398,0.00152716308366507,0.0232128798961639,-0.0171042270958424
5,1.01944450285877,-0.133333341205212,0.0916666697993398,0.01191187184304,0.00916297826915979,-0.0222965814173222
5,1.01805561097552,-0.134722233088466,0.101388894748172,0.00427605677396059,0.0146607663482428,-0.0213802829384804
5,1.01805561097552,-0.122222230451108,0.0986111170596459,0.000610865245107561,0.0106901414692402,-0.0198531206697226
5,1.01666671909226,-0.123611110178398,0.100000002864918,-0.00671951752156019,0.0161879286170006,-0.0134390350431204
5,1.01666671909226,-0.1194444466846,0.0944444474878658,-0.00610865233466029,0.00610865233466029,-0.00702495034784079
5,1.01666671909226,-0.12777778582816,0.0888888921108138,0.0113010071218014,-0.00183259579353034,-0.00122173049021512
5,1.01805561097552,-0.134722233088466,0.104166672436698,0.0189368221908808,0.000610865245107561,0.00122173049021512
5,1.01944450285877,-0.130555557438704,0.104166672436698,0.017409659922123,-0.0045814891345799,-0.00183259579353034
5,1.01805561097552,-0.12777778582816,0.0972222251763917,-0.0045814891345799,0.00549778714776039,0.0021380283869803
5,1.01666671909226,-0.12916666555545,0.0847222225390337,0.00855211354792118,-0.0033597587607801,-0.0033597587607801
5,1.01805561097552,-0.12777778582816,0.0958333393711199,0.00397062394768,0.00824668072164059,-0.00794124789535999
5,1.01944450285877,-0.125000002061652,0.0986111170596459,0.00733038317412138,0.00794124789535999,-0.0140499006956816
5,1.01666671909226,-0.126388893944906,0.0986111170596459,0.0161879286170006,-0.0027488935738802,-0.00794124789535999
5,1.01805561097552,-0.125000002061652,0.0972222251763917,0.019547687843442,0.00427605677396059,-0.00610865233466029
5,1.01527782720901,-0.125000002061652,0.104166672436698,0.0143553335219622,0.00916297826915979,-0.00733038317412138
5,1.01666671909226,-0.122222230451108,0.0944444474878658,0.0241291765123606,0.0027488935738802,-0.00488692196086049
5,1.01527782720901,-0.120833338567854,0.102777780553444,0.0213802829384804,0.00397062394768,-0.00733038317412138
5,1.01805561097552,-0.118055554801345,0.0944444474878658,0.0152716310694814,0.0109955742955208,0.00824668072164059
5,1.01944450285877,-0.125000002061652,0.0986111170596459,0.0113010071218014,-0.00366519158706069,-0.00244346098043024
5,1.01666671909226,-0.120833338567854,0.0958333393711199,0.013744467869401,-0.00855211354792118,0.00916297826915979
5,1.01805561097552,-0.120833338567854,0.0972222251763917,0.00152716308366507,-0.00855211354792118,0.00366519158706069
5,1.01805561097552,-0.123611110178398,0.0916666697993398,0.0027488935738802,0.000610865245107561,0.00488692196086049
5,1.01666671909226,-0.120833338567854,0.0944444474878658,0.000610865245107561,0.00641408516094089,-0.000916297896765172
5,1.0125000434425,-0.122222230451108,0.0972222251763917,0.0033597587607801,-0.000305432622553781,-0.00122173049021512
5,1.01388893532575,-0.1194444466846,0.0972222251763917,0.00977384392172098,-0.00733038317412138,0.00366519158706069
5,1.01527782720901,-0.125000002061652,0.0944444474878658,0.00641408516094089,-0.0045814891345799,-0.00427605677396059
5,1.01527782720901,-0.12777778582816,0.106944444047242,0.0113010071218014,-0.00152716308366507,0.0164933614432812
5,0.998611124609959,-0.122222230451108,0.104166672436698,0.00794124789535999,-0.0021380283869803,0.0143553335219622
5,1.01388893532575,-0.125000002061652,0.0986111170596459,0.00397062394768,-0.00549778714776039,0.00763581553474069
5,1.00972225967599,-0.1194444466846,0.0916666697993398,0.00366519158706069,-0.0134390350431204,0.00427605677396059
5,1.01666671909226,-0.122222230451108,0.100000002864918,0.00305432616733015,-0.00580321997404099,0.0152716310694814
5,1.01944450285877,-0.123611110178398,0.102777780553444,0.00305432616733015,-0.00702495034784079,0.0122173046693206
5,1.01527782720901,-0.12777778582816,0.108333335930496,0.0045814891345799,-0.0210748501121998,0.00580321997404099
5,1.01527782720901,-0.12916666555545,0.0944444474878658,0.000916297896765172,-0.00549778714776039,0.0027488935738802
5,1.01805561097552,-0.130555557438704,0.0916666697993398,0.00733038317412138,-0.00244346098043024,0.000916297896765172
5,1.01944450285877,-0.134722233088466,0.0930555616825939,0.00519235478714108,0.00305432616733015,0.00946841109544039
5,1.01666671909226,-0.134722233088466,0.0944444474878658,0.0134390350431204,-0.00366519158706069,0.000305432622553781
5,1.01527782720901,-0.12777778582816,0.0875000002275597,0.00733038317412138,-0.0103847095742822,0.00549778714776039
5,1.01805561097552,-0.126388893944906,0.0916666697993398,0.00610865233466029,-0.00366519158706069,0.00305432616733015
5,1.01388893532575,-0.125000002061652,0.0875000002275597,-0.000305432622553781,-0.0021380283869803,-0.0033597587607801
5,1.01944450285877,-0.118055554801345,0.0847222225390337,-0.00366519158706069,0.00549778714776039,0.0103847095742822
5,1.02500007039179,-0.111111119697004,0.101388894748172,-0.0125227374956012,0.0109955742955208,0.0210748501121998
5,1.02500007039179,-0.105555564319952,0.0875000002275597,-0.0287106670439243,0.00244346098043024,0.0198531206697226
5,1.01944450285877,-0.104166672436698,0.0944444474878658,-0.0546724386513233,-0.00641408516094089,0.0378736443817616
5,1.01527782720901,-0.0916666697993398,0.101388894748172,-0.0665843114256859,-0.0125227374956012,0.0424551330506802
5,1.00555558402623,-0.0847222225390337,0.0986111170596459,-0.0956004112958908,-0.0259617734700441,0.0488692186772823
5,1.00972225967599,-0.0888888921108138,0.0986111170596459,-0.138360977172852,-0.0675006061792374,0.0662788823246956
5,1.01388893532575,-0.0916666697993398,0.0916666697993398,-0.172874867916107,-0.0784961804747581,0.0662788823246956
5,1.01944450285877,-0.100000002864918,0.0847222225390337,-0.208915919065475,-0.0791070461273193,0.0714712366461754
5,1.02083339474202,-0.113888891307548,0.0930555616825939,-0.217773467302322,-0.0705549344420433,0.0714712366461754
5,1.01944450285877,-0.125000002061652,0.0875000002275597,-0.198225766420364,-0.0671951770782471,0.0775798857212067
5,1.02222228662528,-0.150000007336368,0.0944444474878658,-0.184175878763199,-0.0687223374843597,0.0653625801205635
5,1.02361117850853,-0.161111118090472,0.0847222225390337,-0.166766211390495,-0.0626136884093285,0.0485637858510017
5,1.02083339474202,-0.158333334323963,0.0861111144222878,-0.155770644545555,-0.0592539273202419,0.0424551330506802
5,1.01944450285877,-0.163888889701015,0.0819444448505077,-0.138360977172852,-0.0653625801205635,0.0409279726445675
5,1.02500007039179,-0.169444445078067,0.0791666671619817,-0.115758962929249,-0.0699440687894821,0.0390953756868839
5,1.02500007039179,-0.18333333959868,0.0791666671619817,-0.0592539273202419,-0.0366519130766392,0.0293215326964855
5,1.02222228662528,-0.190277786858986,0.0722222259796579,-0.0140499006956816,-0.0207694191485643,0.0247400421649218
5,1.01944450285877,-0.190277786858986,0.0722222259796579,0.017409659922123,-0.0146607663482428,0.0106901414692402
5,1.02222228662528,-0.188888894975731,0.0791666671619817,0.0412334054708481,0.0149661982432008,-0.00183259579353034
5,1.02361117850853,-0.18333333959868,0.0736111117849297,0.0726929605007172,0.0339030213654041,-0.0259617734700441
5,1.01944450285877,-0.176388892338373,0.0763888894734557,0.0873537287116051,0.0351247526705265,-0.0284052342176437
5,1.01805561097552,-0.17361112072783,0.0833333367337618,0.108123145997524,0.0229074470698834,-0.0406225398182869
5,1.01944450285877,-0.170833336961321,0.0750000036681839,0.12675453722477,0.0378736443817616,-0.0458148941397667
5,1.01527782720901,-0.166666673467524,0.0722222259796579,0.128892570734024,0.05283984541893,-0.0488692186772823
5,1.01527782720901,-0.152777778946911,0.0819444448505077,0.13225232064724,0.0623082555830479,-0.0436768643558025
5,1.01527782720901,-0.148611115453114,0.0791666671619817,0.138666406273842,0.0546724386513233,-0.0497855171561241
5,1.01527782720901,-0.14583334384257,0.0805555590452358,0.131641462445259,0.0439822971820831,-0.0479529201984406
5,1.01805561097552,-0.143055560076062,0.0888888921108138,0.118813291192055,0.0445931628346443,-0.0442877300083637
5,1.01944450285877,-0.136111112815755,0.0736111117849297,0.108123145997524,0.0427605658769607,-0.0390953756868839
5,1.01527782720901,-0.140277788465518,0.0791666671619817,0.109344877302647,0.0482583530247212,-0.0268780700862408
5,1.00972225967599,-0.141666668192807,0.0861111144222878,0.11636982858181,0.0305432621389627,-0.0280998013913631
5,1.01527782720901,-0.136111112815755,0.0805555590452358,0.103847093880177,0.0149661982432008,-0.0189368221908808
5,1.01111115155925,-0.134722233088466,0.0861111144222878,0.0968221426010132,0.0213802829384804,-0.0210748501121998
5,1.01111115155925,-0.140277788465518,0.0902777839940679,0.11087204515934,-0.0045814891345799,-0.0213802829384804
5,1.01111115155925,-0.140277788465518,0.0902777839940679,0.119118720293045,-0.0430659987032413,-0.0180205255746841
5,1.03194452980806,-0.12777778582816,0.0652777787193518,0.108734011650086,-0.0357356183230877,-0.00977384392172098
5,1.0333333244436,-0.125000002061652,0.0750000036681839,0.0879645943641663,0.017409659922123,-0.0033597587607801
5,1.0333333244436,-0.125000002061652,0.0750000036681839,0.0754418596625328,0.0311541277915239,0.01191187184304
5,1.01805561097552,-0.130555557438704,0.0888888921108138,0.0748309940099716,0.0323758572340012,0.0241291765123606
5,1.0125000434425,-0.130555557438704,0.104166672436698,0.0830776765942574,0.0339030213654041,0.0113010071218014
5,1.0125000434425,-0.130555557438704,0.104166672436698,0.0800233483314514,0.0342084541916847,0.00702495034784079
5,1.00555558402623,-0.141666668192807,0.104166672436698,0.0891863256692886,0.01588249579072,0.00946841109544039
5,1.01388893532575,-0.134722233088466,0.113888891307548,0.0836885422468185,-0.00610865233466029,0.00977384392172098
5,1.01388893532575,-0.134722233088466,0.113888891307548,0.0537561401724815,0.00580321997404099,0.00122173049021512
5,1.01944450285877,-0.120833338567854,0.0986111170596459,0.0384845100343227,0.00641408516094089,-0.00610865233466029
5,1.01944450285877,-0.120833338567854,0.102777780553444,0.0171042270958424,0.0033597587607801,0.000305432622553781
5,1.01944450285877,-0.120833338567854,0.102777780553444,0.0106901414692402,0.00610865233466029,0.00794124789535999
5,1.01944450285877,-0.118055554801345,0.106944444047242,-0.00397062394768,0.00610865233466029,0.0125227374956012
5,1.01527782720901,-0.1194444466846,0.0986111170596459,-0.0201585534960032,0.00763581553474069,0.00916297826915979
5,1.01111115155925,-0.116666675074056,0.104166672436698,-0.0384845100343227,0.00488692196086049,-0.0021380283869803
5,1.01388893532575,-0.126388893944906,0.102777780553444,-0.0439822971820831,-0.00366519158706069,0.00641408516094089
5,1.01944450285877,-0.130555557438704,0.101388894748172,-0.0500909499824047,0.00549778714776039,0.00183259579353034
5,1.02500007039179,-0.144444451959316,0.0930555616825939,-0.037568211555481,0.0033597587607801,0.00855211354792118
5,1.02083339474202,-0.144444451959316,0.0819444448505077,-0.02382374368608,0.000305432622553781,0.01191187184304
5,1.02222228662528,-0.14583334384257,0.0819444448505077,-0.0113010071218014,0.000305432622553781,0.00733038317412138
5,1.01666671909226,-0.14583334384257,0.0833333367337618,-0.0045814891345799,-0.00244346098043024,0.000610865245107561
5,1.01527782720901,-0.141666668192807,0.0916666697993398,0.00183259579353034,0.00519235478714108,0.00366519158706069
5,1.01527782720901,-0.140277788465518,0.0916666697993398,0.0027488935738802,0.00519235478714108,-0.00397062394768
5,1.01666671909226,-0.136111112815755,0.0930555616825939,0.00244346098043024,-0.0027488935738802,0.00977384392172098
5,1.01527782720901,-0.130555557438704,0.102777780553444,-0.00855211354792118,-0.0103847095742822,-0.00183259579353034
5,1.01527782720901,-0.12916666555545,0.0902777839940679,-0.0106901414692402,-0.00397062394768,0.000916297896765172
5,1.0125000434425,-0.133333341205212,0.0902777839940679,-0.021685715764761,-0.0128281703218818,-0.00427605677396059
5,1.0125000434425,-0.12916666555545,0.0847222225390337,-0.0277943685650826,-0.0198531206697226,-0.00855211354792118
5,1.02222228662528,-0.125000002061652,0.0861111144222878,-0.0348193198442459,-0.00122173049021512,-0.0033597587607801
5,1.02500007039179,-0.126388893944906,0.0750000036681839,-0.0464257597923279,0.00855211354792118,-0.00427605677396059
5,1.02500007039179,-0.126388893944906,0.0819444448505077,-0.0540615729987621,0.00794124789535999,0.00397062394768
5,1.02083339474202,-0.134722233088466,0.0819444448505077,-0.0464257597923279,0.00152716308366507,0.00519235478714108
5,1.01944450285877,-0.136111112815755,0.0888888921108138,-0.037568211555481,0.00733038317412138,0.0210748501121998
5,1.01666671909226,-0.141666668192807,0.0916666697993398,-0.0229074470698834,0.00549778714776039,0.0177150927484035
5,1.01527782720901,-0.14583334384257,0.0944444474878658,-0.00366519158706069,-0.00244346098043024,0.0146607663482428
5,1.0125000434425,-0.14722222356986,0.0958333393711199,-0.00183259579353034,-0.00885754637420177,0.0113010071218014
5,1.01944450285877,-0.14722222356986,0.0819444448505077,-0.000916297896765172,-0.0122173046693206,0.00855211354792118
5,1.0125000434425,-0.143055560076062,0.0819444448505077,0.0100792767480016,-0.0100792767480016,0.00305432616733015
5,1.01944450285877,-0.138888896582264,0.0972222251763917,0.0149661982432008,-0.011606439948082,0.00488692196086049
5,1.02222228662528,-0.134722233088466,0.0847222225390337,0.00610865233466029,-0.00397062394768,0.00366519158706069
5,1.01944450285877,-0.133333341205212,0.0833333367337618,0.0021380283869803,-0.0125227374956012,0.000305432622553781
5,1.01666671909226,-0.13750000469901,0.0875000002275597,-0.000916297896765172,-0.00855211354792118,-0.00305432616733015
5,1.01805561097552,-0.140277788465518,0.0972222251763917,0.00488692196086049,0.00305432616733015,-0.000305432622553781
5,1.02222228662528,-0.141666668192807,0.0833333367337618,0.00580321997404099,0.00916297826915979,0.000610865245107561
5,1.02083339474202,-0.14583334384257,0.0847222225390337,0.000610865245107561,0.01588249579072,-0.0027488935738802
5,1.01527782720901,-0.141666668192807,0.0930555616825939,0.00366519158706069,-0.00641408516094089,-0.00794124789535999
5,1.02083339474202,-0.140277788465518,0.0875000002275597,-0.00763581553474069,-0.0103847095742822,-0.0177150927484035
5,1.01944450285877,-0.141666668192807,0.0819444448505077,-0.00152716308366507,0.00397062394768,-0.0164933614432812
5,1.01944450285877,-0.144444451959316,0.0750000036681839,0.00824668072164059,0.00946841109544039,-0.0183259565383196
5,1.01666671909226,-0.143055560076062,0.0777777813567098,0.0134390350431204,0.0128281703218818,-0.013744467869401
5,1.01527782720901,-0.144444451959316,0.101388894748172,0.0186313893646002,0.00427605677396059,-0.00794124789535999
5,1.01527782720901,-0.13750000469901,0.0777777813567098,0.01588249579072,-0.00488692196086049,-0.00397062394768
5,1.02222228662528,-0.12777778582816,0.0777777813567098,0.00733038317412138,-0.0106901414692402,0.00641408516094089
5,1.01805561097552,-0.130555557438704,0.0819444448505077,0.00763581553474069,-0.00488692196086049,0.00580321997404099
5,1.01666671909226,-0.136111112815755,0.0847222225390337,0.00946841109544039,-0.0125227374956012,0.00824668072164059
5,1.01944450285877,-0.138888896582264,0.0958333393711199,0.0167987942695618,-0.0106901414692402,0.0134390350431204
5,1.02222228662528,-0.143055560076062,0.0944444474878658,0.0109955742955208,-0.00580321997404099,0.00488692196086049
5,1.01666671909226,-0.14583334384257,0.0861111144222878,0.0192422550171614,-0.00885754637420177,0.00122173049021512
5,1.01527782720901,-0.14722222356986,0.0916666697993398,0.0210748501121998,-0.00580321997404099,-0.013744467869401
5,1.01944450285877,-0.144444451959316,0.0930555616825939,0.0164933614432812,0.000305432622553781,-0.0192422550171614
5,1.01805561097552,-0.136111112815755,0.0777777813567098,0.0219911485910416,0.00397062394768,-0.00733038317412138
5,1.01944450285877,-0.13750000469901,0.0875000002275597,0.0241291765123606,0.00855211354792118,-0.00763581553474069
5,1.01805561097552,-0.13750000469901,0.0875000002275597,0.00855211354792118,-0.0045814891345799,-0.00671951752156019
5,1.01388893532575,-0.133333341205212,0.0819444448505077,0.00733038317412138,-0.00244346098043024,-0.00366519158706069
5,1.01388893532575,-0.133333341205212,0.0819444448505077,-0.0045814891345799,-0.00183259579353034,0.00671951752156019
5,1.01944450285877,-0.141666668192807,0.0888888921108138,-0.0033597587607801,0.01191187184304,-0.0103847095742822
5,1.01944450285877,-0.140277788465518,0.0819444448505077,0.00183259579353034,0.00488692196086049,-0.00946841109544039
5,1.01666671909226,-0.140277788465518,0.0833333367337618,0.0021380283869803,0.00397062394768,-0.00733038317412138
5,1.01944450285877,-0.13750000469901,0.0736111117849297,0.00183259579353034,-0.00580321997404099,-0.00610865233466029
5,1.01944450285877,-0.134722233088466,0.0791666671619817,-0.000916297896765172,0.00610865233466029,-0.00794124789535999
5,1.01805561097552,-0.144444451959316,0.0791666671619817,-0.000916297896765172,-0.0033597587607801,-0.00397062394768
5,1.01805561097552,-0.144444451959316,0.0819444448505077,0.0033597587607801,0.00977384392172098,-0.0128281703218818
5,1.01666671909226,-0.144444451959316,0.0763888894734557,0.00641408516094089,0.00885754637420177,-0.00824668072164059
5,1.01388893532575,-0.14583334384257,0.0861111144222878,0.00427605677396059,0.00885754637420177,-0.00763581553474069
5,1.01805561097552,-0.14583334384257,0.0875000002275597,-0.000916297896765172,0.00641408516094089,-0.00519235478714108
5,1.0125000434425,-0.14583334384257,0.0888888921108138,-0.00244346098043024,0.000916297896765172,-0.00152716308366507
5,1.01944450285877,-0.141666668192807,0.0916666697993398,0.00305432616733015,0.00610865233466029,0.0027488935738802
5,1.01388893532575,-0.14722222356986,0.0875000002275597,0.0027488935738802,-0.00671951752156019,0.00244346098043024
5,1.0125000434425,-0.144444451959316,0.0972222251763917,0.0100792767480016,-0.0180205255746841,0.00946841109544039
5,1.0125000434425,-0.140277788465518,0.0833333367337618,0.00763581553474069,-0.00885754637420177,0.0113010071218014
5,1.02083339474202,-0.138888896582264,0.0805555590452358,0.0103847095742822,-0.0134390350431204,0.0164933614432812
5,1.02222228662528,-0.143055560076062,0.0916666697993398,0.0100792767480016,-0.0149661982432008,0.015577063895762
5,1.01944450285877,-0.13750000469901,0.0916666697993398,0.00183259579353034,0.000305432622553781,-0.0027488935738802
5,1.01944450285877,-0.136111112815755,0.0916666697993398,0.00794124789535999,-0.00152716308366507,0.00763581553474069
5,1.01805561097552,-0.140277788465518,0.0916666697993398,0.00794124789535999,-0.00733038317412138,0.00366519158706069
5,1.02222228662528,-0.138888896582264,0.0861111144222878,-0.000305432622553781,0.0033597587607801,0.00397062394768
5,1.01944450285877,-0.13750000469901,0.0805555590452358,0.00152716308366507,0.0100792767480016,-0.00610865233466029
5,1.01944450285877,-0.131944449321958,0.0916666697993398,0.00519235478714108,0.00397062394768,-0.000305432622553781
5,1.01666671909226,-0.12777778582816,0.0944444474878658,0.00733038317412138,-0.00152716308366507,-0.000916297896765172
5,1.02083339474202,-0.130555557438704,0.0847222225390337,-0.00152716308366507,0.0152716310694814,0.0113010071218014
5,1.02222228662528,-0.144444451959316,0.0847222225390337,0.00122173049021512,0.00916297826915979,0.00366519158706069
5,1.01527782720901,-0.144444451959316,0.0875000002275597,0.00305432616733015,0.00702495034784079,-0.00152716308366507
5,1.01527782720901,-0.143055560076062,0.0833333367337618,0.0128281703218818,0.0161879286170006,-0.0152716310694814
5,1.01944450285877,-0.143055560076062,0.0736111117849297,0.0140499006956816,0.013744467869401,-0.01588249579072
5,1.01944450285877,-0.140277788465518,0.0777777813567098,0.0100792767480016,0.011606439948082,-0.0167987942695618
5,1.01944450285877,-0.13750000469901,0.0944444474878658,0.0152716310694814,0.00885754637420177,-0.0106901414692402
5,1.01944450285877,-0.134722233088466,0.0930555616825939,0.0146607663482428,0.00855211354792118,-0.00946841109544039
5,1.01944450285877,-0.134722233088466,0.0888888921108138,0.0113010071218014,0.00946841109544039,0.00183259579353034
5,1.01805561097552,-0.13750000469901,0.0944444474878658,0.0134390350431204,0.0027488935738802,0.000305432622553781
5,1.01944450285877,-0.140277788465518,0.0888888921108138,0.0152716310694814,-0.0021380283869803,0.00366519158706069
5,1.01805561097552,-0.151388899219622,0.0986111170596459,0.0198531206697226,0.00152716308366507,0.000610865245107561
5,1.01805561097552,-0.140277788465518,0.0986111170596459,0.0106901414692402,-0.00183259579353034,-0.00366519158706069
5,1.01805561097552,-0.141666668192807,0.0875000002275597,0.0152716310694814,0.00366519158706069,-0.00794124789535999
5,1.0125000434425,-0.134722233088466,0.0819444448505077,0.00916297826915979,0.00702495034784079,-0.00305432616733015
5,1.01666671909226,-0.144444451959316,0.0916666697993398,0.0045814891345799,-0.0021380283869803,-0.00366519158706069
5,1.01527782720901,-0.140277788465518,0.0944444474878658,0.00488692196086049,0.00183259579353034,-0.00122173049021512
5,1.01388893532575,-0.141666668192807,0.100000002864918,0.0122173046693206,0.00549778714776039,-0.0045814891345799
5,1.01527782720901,-0.140277788465518,0.0847222225390337,0.0204639863222837,0.00671951752156019,-0.00183259579353034
5,1.01527782720901,-0.136111112815755,0.0750000036681839,0.0180205255746841,0.00305432616733015,-0.00244346098043024
5,1.01388893532575,-0.140277788465518,0.0972222251763917,0.0213802829384804,-0.00244346098043024,0.00152716308366507
5,1.01527782720901,-0.13750000469901,0.0944444474878658,0.0113010071218014,0.00763581553474069,-0.0045814891345799
5,1.01527782720901,-0.13750000469901,0.0986111170596459,0.0128281703218818,0.000305432622553781,0.000610865245107561
5,1.01805561097552,-0.136111112815755,0.0861111144222878,0.011606439948082,0.0027488935738802,-0.00122173049021512
5,1.02083339474202,-0.136111112815755,0.0944444474878658,0.00794124789535999,0.00641408516094089,0.00397062394768
5,1.01944450285877,-0.13750000469901,0.0847222225390337,0.00244346098043024,0.00763581553474069,-0.00610865233466029
5,1.01944450285877,-0.13750000469901,0.0847222225390337,0.00244346098043024,0.0103847095742822,-0.00855211354792118
5,1.01666671909226,-0.133333341205212,0.0875000002275597,-0.00794124789535999,0.00916297826915979,-0.0122173046693206
5,1.02083339474202,-0.13750000469901,0.0958333393711199,-0.015577063895762,-0.0021380283869803,0.00122173049021512
5,1.02083339474202,-0.13750000469901,0.0958333393711199,-0.0146607663482428,-0.00244346098043024,-0.0045814891345799
5,1.01944450285877,-0.13750000469901,0.0916666697993398,-0.0109955742955208,-0.00122173049021512,-0.00671951752156019
5,1.01944450285877,-0.13750000469901,0.0888888921108138,-0.00183259579353034,-0.00183259579353034,0.000610865245107561
5,1.01944450285877,-0.13750000469901,0.0888888921108138,-0.0113010071218014,0.00152716308366507,0.00152716308366507
5,1.02500007039179,-0.140277788465518,0.0875000002275597,-0.0128281703218818,0.00824668072164059,-0.00885754637420177
5,1.01805561097552,-0.143055560076062,0.0944444474878658,-0.0109955742955208,0.00641408516094089,-0.00641408516094089
5,1.01805561097552,-0.143055560076062,0.0944444474878658,0.00549778714776039,0.00427605677396059,-0.0134390350431204
5,1.01666671909226,-0.14583334384257,0.0944444474878658,-0.00733038317412138,0.0152716310694814,-0.0125227374956012
5,1.01944450285877,-0.136111112815755,0.0847222225390337,-0.00519235478714108,0.0143553335219622,-0.0045814891345799
5,1.01944450285877,-0.13750000469901,0.0916666697993398,0.00244346098043024,0.00427605677396059,-0.0131336031481624
5,1.01944450285877,-0.138888896582264,0.0861111144222878,-0.00244346098043024,0.00580321997404099,-0.000916297896765172
5,1.01944450285877,-0.141666668192807,0.0736111117849297,-0.00152716308366507,0.000916297896765172,0.00427605677396059
5,1.01527782720901,-0.14583334384257,0.0875000002275597,0.00366519158706069,-0.00152716308366507,0.00366519158706069
5,1.00972225967599,-0.144444451959316,0.0847222225390337,0.00305432616733015,0.0033597587607801,0.000305432622553781
5,1.00972225967599,-0.140277788465518,0.0986111170596459,0.0125227374956012,-0.00610865233466029,-0.00122173049021512
5,1.01944450285877,-0.140277788465518,0.0916666697993398,0.013744467869401,-0.00549778714776039,-0.00519235478714108
5,1.02361117850853,-0.13750000469901,0.0916666697993398,0.01191187184304,0.000610865245107561,-0.00580321997404099
5,1.01944450285877,-0.141666668192807,0.0847222225390337,0.0045814891345799,0.0122173046693206,-0.00610865233466029
5,1.01944450285877,-0.140277788465518,0.0861111144222878,0.00855211354792118,0.00916297826915979,-0.0045814891345799
5,1.01944450285877,-0.14722222356986,0.0902777839940679,0.0164933614432812,0.00794124789535999,-0.00763581553474069
5,1.01527782720901,-0.140277788465518,0.0861111144222878,0.0131336031481624,-0.00122173049021512,0.00641408516094089
5,1.0125000434425,-0.136111112815755,0.0930555616825939,0.0113010071218014,-0.0021380283869803,-0.0033597587607801
5,1.01527782720901,-0.138888896582264,0.0833333367337618,0.00916297826915979,-0.0109955742955208,0.00366519158706069
5,1.01666671909226,-0.138888896582264,0.0916666697993398,0.00824668072164059,-0.00702495034784079,0.00824668072164059
5,1.01944450285877,-0.140277788465518,0.0972222251763917,0.0152716310694814,-0.0161879286170006,0.00519235478714108
5,1.02222228662528,-0.13750000469901,0.0875000002275597,0.0131336031481624,-0.00152716308366507,0.00763581553474069
5,1.02083339474202,-0.143055560076062,0.0777777813567098,0.0100792767480016,0.0103847095742822,-0.00641408516094089
5,1.02083339474202,-0.14722222356986,0.0875000002275597,0.0125227374956012,-0.00427605677396059,-0.00702495034784079
5,1.01944450285877,-0.13750000469901,0.0875000002275597,0.0149661982432008,0.00305432616733015,-0.0164933614432812
5,1.01944450285877,-0.133333341205212,0.101388894748172,0.0268780700862408,-0.0033597587607801,-0.00488692196086049
5,1.01666671909226,-0.134722233088466,0.0944444474878658,0.0287106670439243,0.000305432622553781,-0.00610865233466029
5,1.01388893532575,-0.134722233088466,0.0972222251763917,0.0183259565383196,0.000610865245107561,0.00946841109544039
5,1.01805561097552,-0.130555557438704,0.0944444474878658,0.00549778714776039,-0.0033597587607801,0.0152716310694814
5,1.01666671909226,-0.133333341205212,0.0916666697993398,0.000305432622553781,-0.00580321997404099,0.0259617734700441
5,1.02222228662528,-0.143055560076062,0.0944444474878658,0.00824668072164059,-0.00702495034784079,0.0262672062963247
5,1.01805561097552,-0.143055560076062,0.0972222251763917,0.00641408516094089,-0.00519235478714108,0.015577063895762
5,1.01666671909226,-0.140277788465518,0.0902777839940679,0.0143553335219622,-0.000610865245107561,0.00610865233466029
5,1.01666671909226,-0.140277788465518,0.0902777839940679,0.01588249579072,-0.00641408516094089,-0.0045814891345799
5,1.01388893532575,-0.131944449321958,0.0916666697993398,0.0152716310694814,-0.0152716310694814,-0.00305432616733015
5,1.01944450285877,-0.134722233088466,0.0986111170596459,0.015577063895762,-0.0180205255746841,0.0146607663482428
5,1.01527782720901,-0.12916666555545,0.0930555616825939,0.00580321997404099,-0.0277943685650826,0.0253509078174829
5,1.02083339474202,-0.134722233088466,0.0875000002275597,-0.00549778714776039,-0.029626963660121,0.0250454749912024
5,1.01944450285877,-0.134722233088466,0.0847222225390337,-0.00794124789535999,-0.0125227374956012,0.0164933614432812
5,1.02222228662528,-0.141666668192807,0.0847222225390337,0.00610865233466029,-0.0045814891345799,0.0106901414692402
5,1.01666671909226,-0.138888896582264,0.0847222225390337,0.00641408516094089,0.0109955742955208,0.00183259579353034
5,1.0125000434425,-0.13750000469901,0.0902777839940679,0.00305432616733015,0.00977384392172098,-0.00733038317412138
5,1.01527782720901,-0.141666668192807,0.0916666697993398,-0.00641408516094089,0.011606439948082,-0.00305432616733015
5,1.02222228662528,-0.138888896582264,0.0819444448505077,-0.0106901414692402,0.0103847095742822,-0.00122173049021512
5,1.01944450285877,-0.136111112815755,0.0777777813567098,-0.0106901414692402,0.0027488935738802,-0.0103847095742822
5,1.01944450285877,-0.140277788465518,0.0847222225390337,-0.0045814891345799,0.00855211354792118,-0.00610865233466029
5,1.01944450285877,-0.141666668192807,0.0777777813567098,-0.00244346098043024,0.00733038317412138,-0.000610865245107561
5,1.01666671909226,-0.140277788465518,0.0819444448505077,0.000610865245107561,0.00549778714776039,0.00794124789535999
5,1.01527782720901,-0.138888896582264,0.0875000002275597,-0.00183259579353034,0.00152716308366507,-0.0045814891345799
5,1.02083339474202,-0.144444451959316,0.0777777813567098,-0.0103847095742822,0.000305432622553781,0.0045814891345799
5,1.01666671909226,-0.143055560076062,0.0750000036681839,-0.0033597587607801,-0.00671951752156019,-0.00152716308366507
5,1.01527782720901,-0.14583334384257,0.0805555590452358,-0.00549778714776039,0.0021380283869803,-0.0027488935738802
5,1.01527782720901,-0.14583334384257,0.0833333367337618,-0.0033597587607801,-0.00794124789535999,0.00244346098043024
5,1.01944450285877,-0.144444451959316,0.0861111144222878,-0.00824668072164059,0.0027488935738802,0.000305432622553781
5,1.01805561097552,-0.140277788465518,0.0819444448505077,-0.00397062394768,0.00885754637420177,0.000610865245107561
5,1.01527782720901,-0.14722222356986,0.0847222225390337,0.0103847095742822,0.00549778714776039,-0.00549778714776039
5,1.01805561097552,-0.148611115453114,0.0916666697993398,0.017409659922123,0.00305432616733015,-0.00305432616733015
5,1.01666671909226,-0.14583334384257,0.0833333367337618,0.017409659922123,0.0100792767480016,-0.0143553335219622
5,1.01388893532575,-0.148611115453114,0.0875000002275597,0.0164933614432812,0.0100792767480016,-0.0045814891345799
5,1.0125000434425,-0.14722222356986,0.0916666697993398,0.015577063895762,-0.00244346098043024,0.0027488935738802
5,1.01805561097552,-0.141666668192807,0.0875000002275597,0.0113010071218014,-0.00183259579353034,-0.00122173049021512
5,1.01805561097552,-0.138888896582264,0.0930555616825939,0.00885754637420177,-0.00366519158706069,0.00183259579353034
5,1.01666671909226,-0.140277788465518,0.0875000002275597,0.00671951752156019,0.00244346098043024,-0.0027488935738802
5,1.01111115155925,-0.138888896582264,0.0875000002275597,0.00702495034784079,0.00763581553474069,-0.00183259579353034
5,1.01944450285877,-0.144444451959316,0.0833333367337618,0.00549778714776039,-0.0125227374956012,0.000916297896765172
5,1.02222228662528,-0.148611115453114,0.0777777813567098,0.0106901414692402,0.00122173049021512,-0.0167987942695618
5,1.02500007039179,-0.14722222356986,0.0777777813567098,0.015577063895762,0.0219911485910416,-0.0180205255746841
5,1.02222228662528,-0.144444451959316,0.0847222225390337,0.0277943685650826,0.0128281703218818,-0.0213802829384804
5,1.01527782720901,-0.138888896582264,0.0875000002275597,0.0305432621389627,0.00305432616733015,-0.0125227374956012
5,1.01805561097552,-0.13750000469901,0.0916666697993398,0.017409659922123,-0.00244346098043024,-0.00122173049021512
5,1.01805561097552,-0.134722233088466,0.0875000002275597,0.0109955742955208,0.0027488935738802,-0.0027488935738802
5,1.01666671909226,-0.13750000469901,0.0875000002275597,0.00946841109544039,0.00427605677396059,0.00397062394768
5,1.01666671909226,-0.140277788465518,0.0847222225390337,0.00763581553474069,0.00152716308366507,-0.00733038317412138
5,1.01388893532575,-0.140277788465518,0.0875000002275597,0.0103847095742822,0.00244346098043024,0.00152716308366507
5,1.01666671909226,-0.143055560076062,0.0888888921108138,-0.0021380283869803,0.0027488935738802,-0.0027488935738802
5,1.01944450285877,-0.141666668192807,0.0888888921108138,0.00794124789535999,0.00580321997404099,0.000305432622553781
5,1.01666671909226,-0.148611115453114,0.0805555590452358,0.0100792767480016,0.000916297896765172,-0.00549778714776039
5,1.01388893532575,-0.144444451959316,0.0875000002275597,0.00549778714776039,-0.00397062394768,-0.00824668072164059
5,1.01805561097552,-0.143055560076062,0.0819444448505077,-0.00580321997404099,-0.00244346098043024,-0.000610865245107561
5,1.01527782720901,-0.140277788465518,0.0875000002275597,-0.00702495034784079,-0.00244346098043024,-0.0109955742955208
5,1.01666671909226,-0.138888896582264,0.0902777839940679,-0.013744467869401,0.00641408516094089,-0.00733038317412138
5,1.02083339474202,-0.140277788465518,0.0777777813567098,-0.00794124789535999,-0.00183259579353034,-0.00641408516094089
5,1.01944450285877,-0.144444451959316,0.0875000002275597,-0.00427605677396059,0.0109955742955208,-0.01191187184304
5,1.02083339474202,-0.140277788465518,0.0875000002275597,-0.00152716308366507,0.011606439948082,-0.0125227374956012
5,1.01527782720901,-0.143055560076062,0.0888888921108138,-0.00671951752156019,0.00152716308366507,-0.00122173049021512
5,1.01666671909226,-0.140277788465518,0.0833333367337618,-0.0140499006956816,0.00122173049021512,0.00244346098043024
5,1.01527782720901,-0.136111112815755,0.0916666697993398,-0.0189368221908808,-0.00305432616733015,-0.00305432616733015
5,1.01527782720901,-0.143055560076062,0.0861111144222878,0.00152716308366507,-0.00733038317412138,0.00702495034784079
5,1.02083339474202,-0.150000007336368,0.0861111144222878,0.0122173046693206,-0.00183259579353034,-0.000305432622553781
5,1.01527782720901,-0.144444451959316,0.0819444448505077,0.0213802829384804,-0.00610865233466029,0.00977384392172098
5,1.01388893532575,-0.144444451959316,0.0861111144222878,0.021685715764761,-0.011606439948082,0.000610865245107561
5,1.01805561097552,-0.14722222356986,0.0805555590452358,0.0140499006956816,-0.00549778714776039,-0.00397062394768
5,1.02222228662528,-0.140277788465518,0.0777777813567098,-0.00152716308366507,0.00519235478714108,-0.00580321997404099
5,1.01944450285877,-0.13750000469901,0.0819444448505077,-0.00488692196086049,-0.0021380283869803,-0.0045814891345799
5,1.01944450285877,-0.141666668192807,0.0861111144222878,-0.0021380283869803,0.00152716308366507,0.00244346098043024
5,1.01666671909226,-0.143055560076062,0.0875000002275597,0.00152716308366507,-0.00305432616733015,-0.000610865245107561
5,1.01944450285877,-0.151388899219622,0.0861111144222878,0.00122173049021512,-0.000305432622553781,-0.00427605677396059
5,1.02222228662528,-0.143055560076062,0.0819444448505077,0.00733038317412138,0.0109955742955208,-0.00305432616733015
5,1.01527782720901,-0.140277788465518,0.0819444448505077,0.00397062394768,0.00549778714776039,-0.0045814891345799
5,1.01805561097552,-0.14583334384257,0.0861111144222878,-0.00122173049021512,0.00397062394768,-0.00977384392172098
5,1.01944450285877,-0.144444451959316,0.0847222225390337,0.00580321997404099,0.00183259579353034,-0.00610865233466029
5,1.01944450285877,-0.14722222356986,0.0930555616825939,0.0143553335219622,0.0106901414692402,-0.00977384392172098
5,1.01944450285877,-0.14722222356986,0.0930555616825939,0.0103847095742822,0.0134390350431204,-0.017409659922123
5,1.01527782720901,-0.140277788465518,0.0930555616825939,0.00641408516094089,0.00885754637420177,-0.0143553335219622
5,1.01527782720901,-0.136111112815755,0.0819444448505077,0.0100792767480016,0.00122173049021512,0.0027488935738802
5,1.01527782720901,-0.136111112815755,0.0819444448505077,0.00946841109544039,0.0033597587607801,0.00183259579353034
5,1.01527782720901,-0.140277788465518,0.0861111144222878,0.0140499006956816,0.00152716308366507,0.000305432622553781
5,1.01944450285877,-0.143055560076062,0.0986111170596459,0.0113010071218014,-0.0106901414692402,-0.00366519158706069
5,1.01944450285877,-0.143055560076062,0.0986111170596459,0.0113010071218014,-0.0152716310694814,0.00641408516094089
5,1.01527782720901,-0.136111112815755,0.0944444474878658,0.00916297826915979,-0.00702495034784079,-0.00397062394768
5,1.02222228662528,-0.141666668192807,0.0875000002275597,0.0161879286170006,0.000305432622553781,0.00824668072164059
5,1.02222228662528,-0.141666668192807,0.0875000002275597,0.00885754637420177,-0.00885754637420177,-0.00519235478714108
5,1.02083339474202,-0.13750000469901,0.0875000002275597,-0.000610865245107561,-0.00977384392172098,-0.00122173049021512
5,1.01666671909226,-0.138888896582264,0.0888888921108138,-0.000916297896765172,-0.00885754637420177,-0.0033597587607801
5,1.01666671909226,-0.138888896582264,0.0888888921108138,-0.011606439948082,0.00244346098043024,-0.00733038317412138
5,1.01805561097552,-0.144444451959316,0.101388894748172,-0.00885754637420177,0.00610865233466029,-0.00946841109544039
5,1.02083339474202,-0.141666668192807,0.0958333393711199,0.00397062394768,0.0183259565383196,-0.00366519158706069
5,1.02222228662528,-0.140277788465518,0.0819444448505077,-0.00641408516094089,0.0152716310694814,-0.00946841109544039
5,1.01805561097552,-0.143055560076062,0.0875000002275597,-0.00427605677396059,0.00824668072164059,-0.01191187184304
5,1.02083339474202,-0.144444451959316,0.0708333340964038,-0.00488692196086049,0.0113010071218014,-0.0161879286170006
5,1.02083339474202,-0.144444451959316,0.0708333340964038,0.00549778714776039,0.0128281703218818,-0.0222965814173222
5,1.02222228662528,-0.138888896582264,0.0763888894734557,0.00519235478714108,0.00916297826915979,-0.02382374368608
5,1.01805561097552,-0.143055560076062,0.0777777813567098,0.00397062394768,0.00244346098043024,-0.0131336031481624
5,1.01388893532575,-0.140277788465518,0.0875000002275597,-0.0100792767480016,-0.00519235478714108,-0.00122173049021512
5,1.01666671909226,-0.141666668192807,0.0875000002275597,-0.00641408516094089,-0.0045814891345799,-0.00183259579353034
5,1.02222228662528,-0.13750000469901,0.0944444474878658,-0.00366519158706069,0.00152716308366507,0.000916297896765172
5,1.02222228662528,-0.143055560076062,0.0875000002275597,0.00733038317412138,-0.000305432622553781,-0.000610865245107561
5,1.02083339474202,-0.14583334384257,0.0888888921108138,0.0128281703218818,0.000916297896765172,0.00366519158706069
5,1.01388893532575,-0.151388899219622,0.0875000002275597,0.029626963660121,-0.0027488935738802,0.000305432622553781
5,1.01527782720901,-0.14722222356986,0.0944444474878658,0.0290160998702049,-0.00244346098043024,-0.00671951752156019
5,1.01527782720901,-0.144444451959316,0.0875000002275597,0.0308486949652433,0.00488692196086049,-0.0177150927484035
5,1.01805561097552,-0.136111112815755,0.0916666697993398,0.0342084541916847,0.00122173049021512,-0.0128281703218818
5,1.01388893532575,-0.140277788465518,0.0916666697993398,0.0314595587551594,0.0113010071218014,-0.013744467869401
5,1.02083339474202,-0.12916666555545,0.0736111117849297,0.0250454749912024,0.0189368221908808,-0.0207694191485643
5,1.01527782720901,-0.130555557438704,0.0777777813567098,0.0201585534960032,0.017409659922123,-0.017409659922123
5,1.01666671909226,-0.12777778582816,0.0902777839940679,0.0189368221908808,0.0146607663482428,-0.0198531206697226
5,1.01666671909226,-0.130555557438704,0.0819444448505077,0.0161879286170006,0.011606439948082,-0.021685715764761
5,1.02083339474202,-0.12777778582816,0.0902777839940679,0.01191187184304,0.0201585534960032,-0.0256563406437635
5,1.01527782720901,-0.125000002061652,0.0944444474878658,0.00671951752156019,0.0183259565383196,-0.0244346093386412
5,1.0125000434425,-0.12916666555545,0.0930555616825939,-0.0100792767480016,0.00152716308366507,-0.00733038317412138
5,1.01527782720901,-0.144444451959316,0.0833333367337618,-0.0122173046693206,-0.00305432616733015,-0.00763581553474069
5,1.01944450285877,-0.140277788465518,0.0777777813567098,0.00152716308366507,0.0045814891345799,-0.00519235478714108
5,1.02083339474202,-0.13750000469901,0.0875000002275597,0.0226020142436027,0.00610865233466029,-0.00580321997404099
5,1.01388893532575,-0.130555557438704,0.0902777839940679,0.0134390350431204,-0.0106901414692402,0.0171042270958424
5,1.01111115155925,-0.134722233088466,0.0916666697993398,0.00824668072164059,-0.0146607663482428,0.0152716310694814
5,1.01944450285877,-0.14722222356986,0.0986111170596459,0.00549778714776039,-0.0103847095742822,0.00916297826915979
5,1.02361117850853,-0.143055560076062,0.0944444474878658,0.0152716310694814,0.00794124789535999,-0.00427605677396059
5,1.02222228662528,-0.136111112815755,0.0847222225390337,0.0241291765123606,0.0122173046693206,-0.0222965814173222
5,1.02083339474202,-0.13750000469901,0.104166672436698,0.0259617734700441,0.00488692196086049,-0.00977384392172098
5,1.01527782720901,-0.130555557438704,0.0916666697993398,0.0149661982432008,0.0027488935738802,-0.0100792767480016
5,1.0125000434425,-0.12916666555545,0.0930555616825939,0.0164933614432812,0.00519235478714108,0.0045814891345799
5,1.01666671909226,-0.12777778582816,0.0888888921108138,0.00244346098043024,-0.00855211354792118,0.00183259579353034
5,1.01666671909226,-0.12916666555545,0.100000002864918,0.00305432616733015,-0.00366519158706069,0.0045814891345799
5,1.01666671909226,-0.136111112815755,0.0972222251763917,0.0045814891345799,0.00122173049021512,0.00122173049021512
5,1.01944450285877,-0.138888896582264,0.0861111144222878,0.00244346098043024,0.00763581553474069,-0.00671951752156019
5,1.01666671909226,-0.134722233088466,0.0930555616825939,0.00794124789535999,0.00641408516094089,-0.00763581553474069
5,1.01527782720901,-0.133333341205212,0.0944444474878658,0.0021380283869803,0.00977384392172098,0.000916297896765172
5,1.0125000434425,-0.130555557438704,0.0944444474878658,0.00397062394768,0.0027488935738802,0.00488692196086049
5,1.02222228662528,-0.134722233088466,0.0861111144222878,-0.00183259579353034,0.00733038317412138,0.000916297896765172
5,1.02222228662528,-0.134722233088466,0.0833333367337618,-0.00610865233466029,0.00733038317412138,-0.0027488935738802
5,1.02083339474202,-0.143055560076062,0.0819444448505077,-0.00122173049021512,0.00610865233466029,0.00397062394768
5,1.01805561097552,-0.13750000469901,0.0958333393711199,0.00366519158706069,0.00488692196086049,-0.00305432616733015
5,1.01666671909226,-0.123611110178398,0.0819444448505077,-0.00244346098043024,0.000916297896765172,0.00122173049021512
5,1.01388893532575,-0.12916666555545,0.0902777839940679,0.000305432622553781,0.00733038317412138,0.00702495034784079
5,1.0125000434425,-0.136111112815755,0.0972222251763917,0.00244346098043024,-0.00763581553474069,0.00641408516094089
5,1.02222228662528,-0.138888896582264,0.0847222225390337,0.0113010071218014,-0.00366519158706069,0.0152716310694814
5,1.02083339474202,-0.14722222356986,0.0819444448505077,0.0253509078174829,0.0033597587607801,0.00916297826915979
5,1.02361117850853,-0.144444451959316,0.0861111144222878,0.0436768643558025,0.0021380283869803,0.00519235478714108
5,1.0125000434425,-0.12777778582816,0.102777780553444,0.0219911485910416,-0.00733038317412138,0.000610865245107561
5,1.01527782720901,-0.125000002061652,0.0930555616825939,0.00671951752156019,-0.00549778714776039,-0.00244346098043024
5,1.02083339474202,-0.122222230451108,0.0944444474878658,-0.0100792767480016,-0.00488692196086049,0.00855211354792118
5,1.02500007039179,-0.130555557438704,0.0875000002275597,-0.0167987942695618,0.000916297896765172,0.00580321997404099
5,1.02222228662528,-0.140277788465518,0.0888888921108138,-0.019547687843442,-0.00183259579353034,0.0131336031481624
5,1.02222228662528,-0.138888896582264,0.0916666697993398,-0.0122173046693206,0.00427605677396059,0.0122173046693206
5,1.01666671909226,-0.136111112815755,0.0847222225390337,-0.013744467869401,0.0125227374956012,0.000610865245107561
5,1.01944450285877,-0.131944449321958,0.0763888894734557,-0.0335975885391235,0.013744467869401,-0.00519235478714108
5,1.01944450285877,-0.131944449321958,0.0763888894734557,-0.0280998013913631,0.0171042270958424,-0.013744467869401
5,1.01944450285877,-0.131944449321958,0.0805555590452358,-0.019547687843442,0.00641408516094089,-0.0021380283869803
5,1.01805561097552,-0.144444451959316,0.0944444474878658,-0.0161879286170006,0.00244346098043024,0.000610865245107561
5,1.0125000434425,-0.140277788465518,0.0888888921108138,0.00794124789535999,-0.00244346098043024,-0.00519235478714108
5,1.01527782720901,-0.143055560076062,0.0944444474878658,0.00916297826915979,-0.00824668072164059,-0.000610865245107561
5,1.01944450285877,-0.144444451959316,0.0875000002275597,0.0219911485910416,0.00122173049021512,-0.000305432622553781
5,1.01805561097552,-0.13750000469901,0.0875000002275597,0.0189368221908808,-0.00488692196086049,0.00824668072164059
5,1.02638896227504,-0.140277788465518,0.0833333367337618,0.0192422550171614,-0.00183259579353034,0.00824668072164059
5,1.02500007039179,-0.134722233088466,0.0833333367337618,0.0280998013913631,-0.00488692196086049,0.00549778714776039
5,1.02222228662528,-0.134722233088466,0.0861111144222878,0.03176499158144,-0.00183259579353034,0.00916297826915979
5,1.02222228662528,-0.134722233088466,0.0861111144222878,0.0262672062963247,0.00427605677396059,0.00916297826915979
5,1.01527782720901,-0.133333341205212,0.0847222225390337,0.0262672062963247,-0.00152716308366507,0.0113010071218014
5,1.01527782720901,-0.126388893944906,0.0986111170596459,0.0134390350431204,-0.0100792767480016,0.00671951752156019
