Activity,acc_x,acc_y,acc_z,gyro_x,gyro_y,gyro_z
0,0.361111135976272,0.0569444456537738,0.92083337364316,0.0314595587551594,0.0265726372599602,0.0244346093386412
0,0.365277787314105,0.0625000010308258,0.930555616825939,0.0516181141138077,0.04764748737216,0.0210748501121998
0,0.369444462963867,0.0652777787193518,0.925000049292922,0.112399205565453,0.297796815633774,0.0418442711234093
0,0.369444462963867,0.0652777787193518,0.925000049292922,0.112399205565453,0.297796815633774,0.0418442711234093
0,0.348611133338914,0.0722222259796579,0.931944508709193,0.134390354156494,0.451123982667923,0.0290160998702049
0,0.368055571080613,0.0611111152255539,0.94305554652751,0.143247902393341,0.442266434431076,0.0372627787292004
0,0.361111135976272,0.0458333348996699,0.940277860008718,0.0772744566202164,0.162184715270996,0.0494800843298435
0,0.354166676560001,0.0583333375370279,0.927777833059431,-0.019547687843442,-0.0647517144680023,0.0711658000946045
0,0.344444457689151,0.0625000010308258,0.933333400592447,-0.0131336031481624,-0.113010071218014,0.058643065392971
0,0.33750002258481,0.0611111152255539,0.940277860008718,0.0540615729987621,-0.0650571510195732,0.0427605658769607
0,0.340277782039389,0.055555559848502,0.933333400592447,0.0861319974064827,0.0171042270958424,0.0424551330506802
0,0.338888890156135,0.0597222233422998,0.925000049292922,0.0653625801205635,0.0342084541916847,0.0192422550171614
0,0.351388892793493,0.0583333375370279,0.923611157409668,0.0592539273202419,-0.00427605677396059,0.00244346098043024
0,0.351388892793493,0.0583333375370279,0.923611157409668,-0.0183259565383196,-0.0543670058250427,0.0543670058250427
0,0.351388892793493,0.0652777787193518,0.927777833059431,-0.037568211555481,-0.021685715764761,0.0439822971820831
0,0.347222241455659,0.0680555564078778,0.930555616825939,-0.0149661982432008,-0.0607810914516449,-0.000916297896765172
0,0.352777784676747,0.0569444456537738,0.945833330294018,-0.0589484944939613,-0.0931569486856461,0.000916297896765172
0,0.352777784676747,0.0569444456537738,0.945833330294018,-0.12156218290329,-0.136528387665749,-0.00946841109544039
0,0.345833349572405,0.052777782159976,0.962500032893068,-0.118813291192055,-0.186619326472282,-0.0033597587607801
0,0.343055565805897,0.0486111125881959,0.955555573476797,-0.0852157026529312,-0.22235494852066,-0.00580321997404099
0,0.351388892793493,0.055555559848502,0.945833330294018,-0.0452040284872055,-0.178678080439568,-0.01191187184304
0,0.345833349572405,0.0569444456537738,0.934722292475701,0.0125227374956012,-0.118507854640484,-0.00733038317412138
0,0.348611133338914,0.0541666679652478,0.915277806110144,0.0421497002243996,-0.113315500319004,-0.00855211354792118
0,0.348611133338914,0.0541666679652478,0.915277806110144,0.0256563406437635,-0.0589484944939613,-0.00244346098043024
0,0.348611133338914,0.0541666679652478,0.915277806110144,-0.0464257597923279,-0.0299323964864016,0.013744467869401
0,0.354166676560001,0.0652777787193518,0.926388941176177,-0.0858265683054924,-0.0665843114256859,0.0164933614432812
0,0.348611133338914,0.0625000010308258,0.92083337364316,-0.0464257597923279,-0.0207694191485643,0.0207694191485643
0,0.348611133338914,0.0625000010308258,0.92083337364316,-0.0561996027827263,-0.00183259579353034,0.0167987942695618
0,0.354166676560001,0.0652777787193518,0.909722238577127,-0.0836885422468185,0.0161879286170006,0.0210748501121998
0,0.354166676560001,0.0652777787193518,0.913888914226889,-0.0717766657471657,-0.0552833043038845,0.0357356183230877
0,0.352777784676747,0.0569444456537738,0.93750007624221,0.000610865245107561,-0.0882700309157372,0.0329867228865623
0,0.358333352209763,0.0513888902767219,0.923611157409668,0.087659165263176,-0.0723875313997269,0.019547687843442
0,0.362500003547597,0.0513888902767219,0.926388941176177,0.135001212358475,-0.0464257597923279,0.00610865233466029
0,0.377777789951463,0.0583333375370279,0.930555616825939,0.112399205565453,-0.00610865233466029,-0.0280998013913631
0,0.383333357484479,0.0638888929140799,0.926388941176177,0.0558941699564457,-0.087659165263176,-0.015577063895762
0,0.375000006184955,0.0541666679652478,0.918055589876652,0.0500909499824047,-0.0937678143382072,0.0161879286170006
0,0.373611114301701,0.0541666679652478,0.926388941176177,0.0974330082535744,0.027488935738802,0.0207694191485643
0,0.377777789951463,0.0625000010308258,0.906944454810619,0.0531452745199203,0.0574213340878487,0.017409659922123
0,0.384722225055805,0.0597222233422998,0.913888914226889,0.0033597587607801,0.0265726372599602,0.0152716310694814
0,0.384722225055805,0.055555559848502,0.906944454810619,-0.00488692196086049,-0.00488692196086049,0.0222965814173222
0,0.368055571080613,0.0513888902767219,0.905555562927365,0.0314595587551594,-0.01588249579072,0.04764748737216
0,0.361111135976272,0.0583333375370279,0.922222265526414,0.0491746515035629,0.02382374368608,0.0479529201984406
0,0.368055571080613,0.0666666706026059,0.929166724942685,-0.00702495034784079,0.0552833043038845,0.0424551330506802
0,0.375000006184955,0.0583333375370279,0.929166724942685,-0.0482583530247212,0.0613919571042061,0.0381790772080422
0,0.375000006184955,0.0541666679652478,0.92083337364316,-0.0626136884093285,0.0271835029125214,0.0445931628346443
0,0.368055571080613,0.0486111125881959,0.918055589876652,-0.0574213340878487,-0.0265726372599602,0.0613919571042061
0,0.358333352209763,0.0486111125881959,0.92083337364316,-0.01191187184304,-0.000610865245107561,0.0510072484612465
0,0.358333352209763,0.0486111125881959,0.92083337364316,-0.0021380283869803,0.0595593601465225,0.0531452745199203
0,0.372222246730376,0.0541666679652478,0.925000049292922,-0.01588249579072,0.17409659922123,0.0335975885391235
0,0.363888895430851,0.052777782159976,0.940277860008718,-0.0589484944939613,0.0204639863222837,0.0287106670439243
0,0.370833354847121,0.0513888902767219,0.93750007624221,-0.0394008085131645,-0.0705549344420433,0.0302378293126821
0,0.369444462963867,0.0458333348996699,0.94305554652751,-0.0125227374956012,-0.0855211317539215,0.0390953756868839
0,0.368055571080613,0.0486111125881959,0.930555616825939,0.0959058403968811,-0.0925460830330849,0.01588249579072
0,0.368055571080613,0.0486111125881959,0.930555616825939,0.107512280344963,-0.106290549039841,0.0045814891345799
0,0.373611114301701,0.0500000014324589,0.913888914226889,0.0870482996106148,-0.166766211390495,-0.00549778714776039
0,0.384722225055805,0.0500000014324589,0.89722221162784,0.0348193198442459,-0.235793977975845,-0.00519235478714108
0,0.370833354847121,0.0486111125881959,0.925000049292922,0.0250454749912024,-0.325285732746124,0.01191187184304
0,0.370833354847121,0.0486111125881959,0.925000049292922,0.0601702257990837,-0.655458390712738,0.0293215326964855
0,0.363888895430851,0.0583333375370279,0.993055557076942,0.145385921001434,-0.696080923080444,0.0696386396884918
0,0.377777789951463,0.0666666706026059,0.952777789710289,0.142637029290199,-0.509461641311646,0.0452040284872055
0,0.377777789951463,0.0666666706026059,0.952777789710289,0.0262672062963247,-0.521373510360718,-0.0491746515035629
0,0.476388894855144,0.104166672436698,0.87500003874349,-0.0442877300083637,-0.60903263092041,-0.187230199575424
0,0.522222229754814,0.0972222251763917,0.849999984844916,-0.0452040284872055,-0.436768651008606,-0.335365027189255
0,0.522222229754814,0.0972222251763917,0.849999984844916,0.01588249579072,-0.232128798961639,-0.316122770309448
0,0.49166670557094,0.0652777787193518,0.906944454810619,0.0684169083833694,-0.0409279726445675,-0.258395999670029
0,0.472222219205382,0.052777782159976,0.918055589876652,0.019547687843442,0.10048733651638,-0.128892570734024
0,0.42916666807222,0.029166668768514,0.890277849459286,-0.03176499158144,0.202807262539864,-0.00885754637420177
0,0.420833365396554,0.029166668768514,0.873611146860236,-0.0442877300083637,0.210443079471588,0.0400116741657257
0,0.406944470875941,0.0486111125881959,0.837500055143345,-0.0406225398182869,0.297796815633774,0.0198531206697226
0,0.397222227693163,0.0625000010308258,0.830555595727074,-0.017409659922123,0.350942075252533,0.0277943685650826
0,0.379166681834717,0.0625000010308258,0.841666730793107,0.102319926023483,0.462424993515015,0.0409279726445675
0,0.369444462963867,0.0569444456537738,0.849999984844916,0.157297804951668,0.369268029928207,0.0739146918058395
0,0.363888895430851,0.0569444456537738,0.831944487610329,0.146302223205566,0.200058370828629,0.108428582549095
0,0.372222246730376,0.055555559848502,0.848611190209378,0.162795588374138,0.22754730284214,0.137139245867729
0,0.375000006184955,0.0722222259796579,0.863888903677457,0.17409659922123,0.341168224811554,0.148134827613831
0,0.390277792588821,0.0750000036681839,0.884722281926269,0.087659165263176,0.428827404975891,0.154854342341423
0,0.398611119576417,0.0805555590452358,0.895833319744586,0.0201585534960032,0.41813725233078,0.17440202832222
0,0.405555578992687,0.0750000036681839,0.930555616825939,-0.00671951752156019,0.259006857872009,0.190895393490791
0,0.404166687109433,0.0694444482911319,0.959722249126559,0.0351247526705265,0.379652738571167,0.192117124795914
0,0.402777795226179,0.0847222225390337,0.959722249126559,0.102014496922493,0.499993205070496,0.189062789082527
0,0.424999992422458,0.0708333340964038,0.976388951725609,0.138666406273842,0.371711492538452,0.166460782289505
0,0.430555559955475,0.0583333375370279,0.979166735492117,0.0806342139840126,0.183565005660057,0.231823354959488
0,0.413888905980283,0.0513888902767219,0.973611167959101,0.0891863256692886,0.0546724386513233,0.189062789082527
0,0.415277797863537,0.055555559848502,0.969444492309338,0.128281697630882,0.120035022497177,0.156076073646545
0,0.406944470875941,0.0597222233422998,0.962500032893068,0.121867619454861,0.22724187374115,0.129503428936005
0,0.397222227693163,0.0722222259796579,0.94305554652751,0.0302378293126821,0.106290549039841,0.142637029290199
0,0.362500003547597,0.0722222259796579,0.913888914226889,-0.0207694191485643,0.0983493030071259,0.161268427968025
0,0.333333346935047,0.0944444474878658,0.923611157409668,-0.015577063895762,0.103236228227615,0.171042263507843
0,0.348611133338914,0.0916666697993398,0.941666654644256,0.0418442711234093,-0.0293215326964855,0.136833816766739
0,0.363888895430851,0.0833333367337618,0.931944508709193,0.0598647929728031,0.0284052342176437,0.107512280344963
0,0.365277787314105,0.0777777813567098,0.938888968125464,0.0494800843298435,-0.0415388382971287,0.126449108123779
0,0.354166676560001,0.0652777787193518,0.933333400592447,0.0421497002243996,-0.0784961804747581,0.153632611036301
0,0.341666673922643,0.0694444482911319,0.940277860008718,0.134084925055504,-0.0995710343122482,0.130725160241127
0,0.329166671285285,0.0763888894734557,0.931944508709193,0.179288953542709,-0.123394779860973,0.096211276948452
0,0.348611133338914,0.0944444474878658,0.922222265526414,0.124311074614525,-0.199447497725487,0.0113010071218014
0,0.369444462963867,0.0916666697993398,0.933333400592447,0.090408056974411,-0.356439858675003,-0.0332921557128429
0,0.405555578992687,0.0666666706026059,0.952777789710289,0.0971275717020035,-0.386983126401901,-0.00671951752156019
0,0.383333357484479,0.0694444482911319,0.911111130460381,0.0339030213654041,-0.103541657328606,0.0675006061792374
0,0.343055565805897,0.0583333375370279,0.797222239152834,-0.128587126731873,0.11117747426033,0.144164204597473
0,0.386111116939059,0.0916666697993398,0.834722271376837,-0.282219737768173,-0.017409659922123,0.17470745742321
0,0.391666684472075,0.118055554801345,0.893055633225794,-0.252287358045578,-0.0913243517279625,0.247094988822937
0,0.163888889701015,-0.151388899219622,0.82222224442755,-0.450818538665771,-1.14353978633881,0.899804532527924
0,0.359722244093018,-0.0916666697993398,0.844444514559616,-0.340251952409744,-1.3790283203125,1.07206845283508
0,0.440277803138253,-0.00555555575692586,0.929166724942685,0.0855211317539215,-0.667981147766113,0.906524002552032
0,0.402777795226179,0.0375000018340919,0.899999995394348,0.339641064405441,-0.0775798857212067,0.930042326450348
0,0.320833344297689,0.130555557438704,0.890277849459286,0.29596421122551,-0.306654363870621,1.29931032657623
0,0.295833339022973,0.14722222356986,0.887500065692777,0.245262399315834,-0.47097709774971,1.45508098602295
0,0.318055560531181,0.134722233088466,0.911111130460381,0.399505883455276,-0.457232624292374,1.7012597322464
0,0.424999992422458,0.118055554801345,0.972222276075846,0.65637469291687,-0.500909507274628,1.71408784389496
0,0.476388894855144,0.0750000036681839,0.98888888142718,0.764192402362823,-0.607810914516449,1.74860179424286
0,0.430555559955475,0.0486111125881959,0.916666697993398,0.79351395368576,-0.635605275630951,2.01585531234741
0,0.437500019371745,0.055555559848502,0.834722271376837,0.681420207023621,-0.441655576229096,2.10473608970642
0,0.504166683896369,0.0388888906783549,0.812500049868629,0.587652385234833,0.0977384373545647,1.87657809257507
0,0.531944472937593,-0.00972222266958873,0.80277780668585,0.456010907888412,0.349109500646591,1.81396436691284
0,0.52083333787156,-0.0458333348996699,0.77638890952788,0.098960168659687,0.0253509078174829,2.02043676376343
0,0.508333359546131,-0.0472222237439329,0.801388914802596,-0.257174253463745,-0.36041048169136,2.27730560302734
0,0.544444451263022,-0.0625000010308258,0.831944487610329,-0.44348818063736,-0.546724379062653,2.26814270019531
0,0.625000034620187,-0.10972222781375,0.827777811960566,-0.385455965995789,0.0977384373545647,1.95385253429413
0,0.601388921228725,-0.18333333959868,0.927777833059431,-0.148134827613831,0.937067270278931,1.79075145721436
0,0.562499997121468,-0.279166685047782,1.15694450755778,0.67073005437851,-0.525954961776733,1.64841985702515
0,0.515277818962402,-0.262500006760661,1.05555559457566,1.203404545784,-0.419664412736893,2.0445659160614
0,0.416666689746791,-0.268055574293678,1.05833337834217,1.54243469238281,0.384234249591827,3.03600025177002
0,0.472222219205382,-0.406944470875941,0.866666687443965,1.29472887516022,0.501520395278931,2.17834544181824
0,0.688888915378302,-0.519444445988306,0.793055563503071,0.737314343452454,-0.611476123332977,1.05893492698669
0,0.673611153286365,-0.318055560531181,0.812500049868629,0.247705861926079,-0.176540061831474,1.12918436527252
0,0.544444451263022,-0.251388896006557,0.848611190209378,-0.124921940267086,0.237321153283119,1.74738001823425
0,0.49444444071359,-0.281944444502361,0.84583340644287,-0.239153742790222,-0.0723875313997269,2.42880010604858
0,0.551388910679293,-0.356944460326509,0.848611190209378,-0.375071257352829,-0.831082165241241,2.72293186187744
0,0.620833358970425,-0.358333352209763,0.763888931202451,-0.68325275182724,-2.01035761833191,2.70216250419617
0,0.687500023495048,-0.409722230330521,0.693055591028065,-1.39582705497742,-3.54485106468201,2.48622155189514
0,0.706944461236748,-0.479166678621653,0.643055580478633,-2.17406940460205,-4.69541549682617,2.33411622047424
0,0.769444450111609,-0.516666662221798,0.650000039894903,-2.87137198448181,-5.36736726760864,1.90253984928131
0,0.736111142161226,-0.611111115787646,0.608333332021137,-3.46452212333679,-5.63095569610596,1.60107779502869
0,0.736111142161226,-0.611111115787646,0.608333332021137,-3.92114400863648,-5.52894115447998,1.73821699619293
0,0.712500028769764,-0.623611142736933,0.411111122213775,-4.09493494033813,-6.10223817825317,0.393397212028503
0,0.811111157985375,-0.677777780312269,0.400000011459671,-3.48345899581909,-6.10315465927124,-0.237626582384109
0,0.63888890482887,-0.556944478212309,0.404166687109433,-2.76447057723999,-5.65844488143921,-0.606283783912659
0,0.694444482911319,-0.676388937052873,0.477777786738398,-2.08213424682617,-4.14441537857056,-0.936761856079102
0,0.634722229179108,-0.613888899554154,0.341666673922643,-1.74982345104218,-3.31119513511658,-0.916603326797485
0,0.54027777561326,-0.600000029345471,0.190277786858986,-1.39552164077759,-2.88694906234741,-0.226325571537018
0,0.458333348996699,-0.525000013521323,0.116666675074056,-0.835358202457428,-2.84510493278503,0.585819780826569
0,0.604166704995233,-0.449999997697174,0.0888888921108138,-0.521373510360718,-2.14963483810425,0.398894995450974
0,0.947222222177272,-0.470833327322128,-0.0250000007162294,-0.409890592098236,-1.07084679603577,0.0510072484612465
0,1.02638896227504,-0.519444445988306,-0.18333333959868,-0.322231411933899,-1.23272609710693,0.00488692196086049
0,0.870833363093728,-0.481944462388161,-0.252777787889811,-0.0430659987032413,-1.55617916584015,0.202196389436722
0,0.712500028769764,-0.354166676560001,-0.236111109602691,0.164628177881241,-1.34940135478973,0.0766635909676552
0,0.662500018220332,-0.216666671860991,-0.111111119697004,0.400422155857086,-0.220522359013557,-0.644157409667969
0,0.793055563503071,-0.262500006760661,-0.187500003092477,0.335670441389084,0.422413319349289,-1.40132486820221
0,0.973611167959101,-0.359722244093018,-0.344444457689151,0.132863193750381,-0.19028452038765,-1.40193569660187
0,0.938888968125464,-0.495833332596844,-0.359722244093018,-0.192422553896904,-0.979216992855072,-0.901942551136017
0,0.93750007624221,-0.452777781463682,-0.236111109602691,-0.339335650205612,-0.210748508572578,-0.773660838603973
0,1.02638896227504,-0.386111116939059,-0.331944455051793,-0.507629036903381,0.0729983970522881,-1.35795342922211
0,1.00416669214298,-0.408333338447267,-0.500000008246606,-0.31245756149292,-1.09039449691773,-1.35612082481384
0,0.956944465360051,-0.358333352209763,-0.355555568443255,-0.459676086902618,0.736398041248322,-1.39307820796967
0,1.11250006454136,-0.50138890012986,-0.25555557165632,0.44348818063736,1.54701626300812,-1.93155586719513
0,1.18750003174166,-0.509722251429385,-0.397222227693163,0.30207285284996,1.59038770198822,-1.50944805145264
0,1.24444450170736,-0.538888932353864,-0.413888905980283,-0.1795943826437,0.629191219806671,-1.9034560918808
0,1.19722227492443,-0.469444484062732,-0.316666668647927,-0.168293371796608,0.563523173332214,-1.82160019874573
0,1.15833339944103,-0.352777784676747,-0.308333341660331,-0.100792765617371,0.838107109069824,-2.08763194084167
0,0.983333411141879,-0.287500012035377,-0.244444460902216,-0.0189368221908808,0.912938117980957,-2.63496732711792
0,0.983333411141879,-0.287500012035377,-0.244444460902216,0.0421497002243996,0.599564254283905,-0.158824965357781
0,0.983333411141879,-0.287500012035377,-0.244444460902216,0.0977384373545647,0.864068865776062,0.580321967601776
0,1.03472221632685,-0.298611122789481,-0.205555561106887,0.0739146918058395,-0.019547687843442,0.423329621553421
0,1.0902777944093,-0.312500017310094,-0.212499996211229,0.124921940267086,-0.637132465839386,-0.146913096308708
0,1.05833337834217,-0.227777782615095,-0.115277783190802,1.13559854030609,0.590095818042755,-0.608421802520752
0,1.05833337834217,-0.227777782615095,-0.115277783190802,0.622777104377747,0.685085356235504,-0.178372651338577
0,1.05833337834217,-0.227777782615095,-0.115277783190802,-0.0198531206697226,0.444404453039169,-0.1750128865242
0,1.04722224327614,-0.238888893369199,-0.344444457689151,-0.0693332031369209,0.401338458061218,-0.532674491405487
0,0.984722303025134,-0.244444460902216,-0.243055569018962,0.186313897371292,-0.297491371631622,-0.628885746002197
0,0.95000000594378,-0.237500001485945,-0.202777789496344,0.0769690200686455,-0.385150551795959,-0.586430609226227
0,1.03750000009336,-0.216666671860991,-0.0805555590452358,0.16371189057827,0.0415388382971287,-0.875675320625305
0,1.12083341584089,-0.233333350148112,-0.166666673467524,0.0226020142436027,0.278554558753967,-1.36100780963898
0,1.07361118905796,-0.154166670830166,-0.20972223675665,0.195476874709129,0.475558578968048,-2.31181955337524
0,0.98888888142718,0.0222222230277034,-0.226388890731841,-0.0705549344420433,1.17744278907776,-3.08548045158386
0,0.743055601577497,0.152777778946911,-0.293055555256465,-0.247094988822937,1.62429070472717,-4.10470914840698
0,0.640277796712124,0.226388890731841,-0.397222227693163,0.191506251692772,-0.179288953542709,-5.22961759567261
0,0.693055591028065,0.0972222251763917,-0.148611115453114,0.210137650370598,-0.525038659572601,-3.43611693382263
0,0.620833358970425,-0.115277783190802,0.17361112072783,-0.0497855171561241,0.376598417758942,-1.33840572834015
0,1.29027783660703,0.0194444453391775,0.266666682410424,-0.0598647929728031,0.0781907513737679,-1.05068826675415
0,1.48333341938849,0.100000002864918,-0.226388890731841,0.200974673032761,-0.499993205070496,0.458759784698486
0,1.59444447830567,0.205555561106887,-0.250000004123303,0.347582310438156,-0.583681762218475,1.29656147956848
0,1.44861112230713,0.0805555590452358,-0.275000009398019,0.474642306566238,-0.315511912107468,2.89183616638184
0,1.30416675543957,0.0625000010308258,-0.198611113846581,0.0662788823246956,0.500909507274628,3.04882836341858
0,1.0902777944093,0.0666666706026059,-0.251388896006557,0.0507018156349659,-0.147218525409698,2.74614477157593
0,0.92083337364316,-0.00833333382532574,-0.166666673467524,-0.0769690200686455,-0.969443142414093,2.14352607727051
0,0.831944487610329,-0.0444444460554069,-0.0652777787193518,-0.137750118970871,-1.34543073177338,1.84267497062683
0,0.765277823085705,0.0861111144222878,-0.0166666676506515,-0.0152716310694814,-0.678976714611053,0.74647730588913
0,0.741666709694243,0.0458333348996699,-0.13750000469901,-0.0736092627048492,-0.427300244569778,-0.0992656052112579
0,0.825000028194058,-0.055555559848502,-0.238888893369199,-0.0891863256692886,0.245873257517815,0.242818936705589
0,0.879166714393253,-0.102777780553444,-0.262500006760661,-0.103236228227615,-0.0458148941397667,0.974635481834412
0,0.941666654644256,-0.0750000036681839,-0.2194444556275,0.0253509078174829,-0.161268427968025,1.47982108592987
0,0.933333400592447,-0.0486111125881959,-0.14583334384257,0.137139245867729,0.36987891793251,1.47035264968872
0,0.906944454810619,0.0569444456537738,-0.18333333959868,0.30207285284996,0.7889324426651,1.06595981121063
0,0.94305554652751,-0.0722222259796579,-0.133333341205212,0.38117989897728,0.979827880859375,1.12277030944824
0,0.993055557076942,-0.112499999424294,-0.197222234119292,0.328034639358521,0.945008516311646,1.02319931983948
0,1.27361113400798,-0.0833333367337618,-0.190277786858986,0.0983493030071259,0.301156580448151,-0.187535628676414
0,1.12777777800944,-0.233333350148112,-0.120833338567854,0.00183259579353034,-0.0549778714776039,-0.131641462445259
0,1.12777777800944,-0.233333350148112,-0.120833338567854,0.0995710343122482,0.17440202832222,-0.32284227013588
0,1.03888889197661,-0.256944463539574,-0.14583334384257,0.0873537287116051,0.223882108926773,-0.330478101968765
0,1.05833337834217,-0.266666682410424,-0.12777778582816,0.0491746515035629,0.17989981174469,-0.0806342139840126
0,1.04305556762637,-0.211111128639904,-0.106944444047242,0.0684169083833694,0.12705996632576,-0.0452040284872055
0,1.03194452980806,-0.18333333959868,-0.134722233088466,0.0507018156349659,0.17470745742321,-0.019547687843442
0,0.933333400592447,-0.0833333367337618,-0.144444451959316,-0.0705549344420433,0.277638256549835,-0.223882108926773
0,0.979166735492117,-0.161111118090472,-0.113888891307548,-0.125838235020638,-0.0491746515035629,-0.155770644545555
0,0.962500032893068,-0.16527778158427,-0.13750000469901,-0.167071640491486,-0.318871647119522,-0.260228604078293
0,0.929166724942685,-0.166666673467524,-0.161111118090472,-0.195171445608139,-0.445015341043472,-0.436768651008606
0,0.958333357243305,-0.193055558469529,-0.195833342236038,-0.0901026204228401,-0.139582708477974,-0.557719945907593
0,0.991666665193688,-0.226388890731841,-0.144444451959316,-0.212581098079681,-0.109344877302647,-0.744339287281036
0,1.02222228662528,-0.168055565350778,-0.0666666706026059,-0.142026171088219,0.0519235469400883,-0.746782779693604
0,1.06111116210868,-0.150000007336368,-0.118055554801345,-0.00794124789535999,-0.0598647929728031,-0.62491512298584
0,0.977777843608863,-0.125000002061652,-0.161111118090472,-0.0262672062963247,-0.0397062413394451,-0.466090172529221
0,1.0513889189259,-0.0222222230277034,-0.12777778582816,-0.419969856739044,0.646906316280365,-0.997848391532898
0,1.14166669684199,-0.0250000007162294,-0.187500003092477,-0.262672066688538,0.0717766657471657,-0.292604446411133
0,1.12083341584089,-0.0597222233422998,-0.120833338567854,-0.214108273386955,-0.135917514562607,-0.0943786799907684
0,1.06527783775844,-0.118055554801345,-0.215277779977737,-0.0210748501121998,0.360715925693512,-0.0189368221908808
0,1.06805562152495,-0.101388894748172,-0.0902777839940679,-0.01191187184304,0.504880130290985,-0.00824668072164059
0,1.00416669214298,-0.0888888921108138,-0.104166672436698,0.0558941699564457,0.314595609903336,-0.0421497002243996
0,1.02916674604155,-0.0750000036681839,-0.102777780553444,0.167987942695618,0.0125227374956012,0.0522289797663689
0,1.02222228662528,-0.0708333340964038,-0.211111128639904,0.103236228227615,0.572380721569061,0.0717766657471657
0,1.0125000434425,-0.0847222225390337,-0.187500003092477,0.0427605658769607,1.1233811378479,0.0791070461273193
0,1.02916674604155,-0.161111118090472,-0.176388892338373,0.125227376818657,1.77395272254944,-0.111482910811901
0,1.00972225967599,-0.0458333348996699,0.101388894748172,0.237015709280968,1.65483391284943,-0.0259617734700441
0,1.01944450285877,-0.0486111125881959,0.0916666697993398,0.251676470041275,0.488386750221252,0.159130394458771
0,0.986111194908388,-0.0625000010308258,0.00555555575692586,0.149051114916802,0.878729641437531,0.137750118970871
0,0.986111194908388,-0.0625000010308258,0.00555555575692586,0.251065611839294,0.253509074449539,0.673478960990906
0,0.795833347269579,-0.0625000010308258,0.1194444466846,0.0916297882795334,0.135612085461616,1.10352802276611
0,0.906944454810619,-0.134722233088466,-0.0125000003581147,0.0595593601465225,0.406836241483688,1.14323425292969
0,1.24166671794085,-0.187500003092477,-0.0694444482911319,0.0784961804747581,1.28526043891907,0.248927593231201
0,1.14166669684199,-0.156944454596674,0.0513888902767219,-0.0616973899304867,0.904691457748413,0.0326812900602817
0,1.04583335139288,-0.150000007336368,0.130555557438704,-0.0183259565383196,0.430660009384155,-0.0342084541916847
0,0.969444492309338,-0.151388899219622,0.130555557438704,0.0891863256692886,0.0974330082535744,-0.188146501779556
0,0.904166671044111,-0.118055554801345,0.118055554801345,0.0772744566202164,-0.208610475063324,-0.213497400283814
0,0.904166671044111,-0.118055554801345,0.118055554801345,0.0433714315295219,-0.334143280982971,0.0992656052112579
0,0.955555573476797,-0.113888891307548,0.122222230451108,-0.021685715764761,-0.277332812547684,-0.210137650370598
0,0.983333411141879,-0.161111118090472,0.052777782159976,-0.0149661982432008,-0.0723875313997269,-0.129503428936005
0,0.983333411141879,-0.161111118090472,0.052777782159976,-0.0332921557128429,0.0409279726445675,0.0335975885391235
0,1.06388894587519,-0.130555557438704,0.030555557612777,-0.10567969083786,0.0946841165423393,0.11117747426033
0,0.925000049292922,-0.134722233088466,0.12777778582816,0.0390953756868839,0.120035022497177,0.037568211555481
0,0.925000049292922,-0.134722233088466,0.12777778582816,0.175318330526352,0.0748309940099716,0.00794124789535999
0,0.956944465360051,-0.113888891307548,0.0750000036681839,0.160657554864883,0.159435823559761,0.160962998867035
0,1.01666671909226,-0.118055554801345,0.0750000036681839,-0.0394008085131645,0.224798411130905,-0.0198531206697226
0,1.28055559342425,-0.130555557438704,0.0513888902767219,-0.0720821022987366,0.275500237941742,-0.255647093057633
0,1.14861115625826,-0.163888889701015,0.0986111170596459,0.00305432616733015,0.350025773048401,-0.427300244569778
0,1.14861115625826,-0.163888889701015,0.0986111170596459,-0.0152716310694814,0.16401731967926,-0.362853944301605
0,1.04861113515939,-0.101388894748172,0.122222230451108,0.0650571510195732,0.0265726372599602,-0.246484130620956
0,1.02500007039179,-0.0916666697993398,0.12916666555545,0.0659734457731247,-0.0369573459029198,-0.223271250724793
0,1.03194452980806,-0.0916666697993398,0.12777778582816,0.02382374368608,0.0247400421649218,-0.183565005660057
0,1.0305556379248,-0.0847222225390337,0.113888891307548,0.0103847095742822,0.0467311926186085,-0.145996794104576
0,1.04305556762637,-0.0819444448505077,0.118055554801345,0.0445931628346443,0.0320704244077206,-0.114231802523136
0,1.04583335139288,-0.0736111117849297,0.126388893944906,0.138360977172852,-0.0922406539320946,-0.0219911485910416
0,1.03888889197661,-0.0763888894734557,0.163888889701015,0.0354301854968071,-0.498771458864212,0.138055548071861
0,1.02361117850853,-0.100000002864918,0.140277788465518,0.141109868884087,-0.780991196632385,0.182343274354935
0,1.0513889189259,-0.0986111170596459,0.0500000014324589,0.00397062394768,-0.24862214922905,0.0565050356090069
0,1.09166668629255,-0.125000002061652,-0.238888893369199,-0.128587126731873,0.175929188728332,0.0436768643558025
0,1.02500007039179,-0.0986111170596459,0.030555557612777,-0.00580321997404099,0.0574213340878487,0.0717766657471657
0,1.06250005399193,-0.12777778582816,-0.0222222230277034,0.00671951752156019,2.36618661880493,0.0253509078174829
0,1.09583336194232,-0.150000007336368,0.101388894748172,-0.00671951752156019,2.06502985954285,0.111482910811901
0,0.948611114060526,-0.148611115453114,0.375000006184955,0.145080491900444,0.0571159012615681,0.145080491900444
0,0.904166671044111,-0.204166669223633,0.241666677135707,0.221133217215538,-0.0491746515035629,-0.0183259565383196
0,0.99583334084345,-0.166666673467524,0.154166670830166,0.231212496757507,0.0299323964864016,0.0210748501121998
0,1.0125000434425,-0.161111118090472,0.14583334384257,0.221133217215538,0.0522289797663689,-0.0229074470698834
0,1.0513889189259,-0.111111119697004,0.113888891307548,0.130725160241127,0.23273965716362,0.0161879286170006
0,1.02916674604155,-0.105555564319952,0.14583334384257,0.11636982858181,0.0956004112958908,0.0387899428606033
0,1.01388893532575,-0.111111119697004,0.126388893944906,0.160962998867035,0.167071640491486,-0.0198531206697226
0,0.977777843608863,-0.113888891307548,0.184722231481934,0.171347707509995,-0.110261179506779,0.000305432622553781
0,0.984722303025134,-0.0930555616825939,0.168055565350778,0.117286130785942,-0.123089343309402,0.0348193198442459
0,1.00694447590948,-0.0666666706026059,0.156944454596674,0.0977384373545647,-0.136833816766739,0.0384845100343227
0,1.08888890252604,-0.0611111152255539,0.120833338567854,-0.0583376325666905,0.469755381345749,0.0629191175103188
0,1.05694448645892,-0.0861111144222878,0.190277786858986,-0.0351247526705265,-0.215940862894058,0.0394008085131645
0,0.95000000594378,-0.113888891307548,0.20972223675665,0.03176499158144,-0.307265222072601,0.0531452745199203
0,0.993055557076942,-0.140277788465518,0.154166670830166,0.145385921001434,0.0748309940099716,-0.0329867228865623
0,0.993055557076942,-0.12916666555545,0.197222234119292,0.283746898174286,0.234877690672875,0.0360410511493683
0,1.00694447590948,-0.0916666697993398,0.252777787889811,0.159435823559761,-0.0497855171561241,-0.0122173046693206
0,0.923611157409668,-0.106944444047242,0.25555557165632,0.271224170923233,-0.57574051618576,0.00702495034784079
0,0.733333358394718,-0.13750000469901,0.409722230330521,1.14384520053864,-1.69881629943848,0.345138877630234
0,0.826388920077312,-0.143055560076062,0.134722233088466,0.968221426010132,-1.27395951747894,0.497549742460251
0,0.983333411141879,-0.17361112072783,0.125000002061652,0.770911931991577,-1.34909594058991,0.478002041578293
0,1.19027781550816,-0.136111112815755,-0.00555555575692586,0.394008070230484,-0.470366239547729,0.161879286170006
0,1.21388897752348,-0.0958333393711199,0.00972222266958873,0.266642689704895,0.0797179117798805,0.0021380283869803
0,1.27916670154099,-0.158333334323963,0.0250000007162294,0.413861215114594,1.10291719436646,-0.149967417120934
0,1.15416672379127,-0.0861111144222878,-0.03194444645704,-0.565355777740479,0.818253993988037,-0.541837453842163
0,0.930555616825939,-0.104166672436698,0.345833349572405,0.435546934604645,-0.77793687582016,0.127670839428902
0,1.147222264375,-0.125000002061652,-0.0125000003581147,0.0369573459029198,1.00914943218231,-0.0870482996106148
0,1.00972225967599,-0.0583333375370279,0.13750000469901,-0.081855945289135,0.339030206203461,-0.0812450796365738
0,1.00555558402623,-0.104166672436698,0.162500009973726,-0.100792765617371,0.321620553731918,-0.0470366254448891
0,0.969444492309338,-0.166666673467524,0.177777784221628,-0.0305432621389627,0.11087204515934,-0.0519235469400883
0,1.02500007039179,-0.20138889761309,0.0916666697993398,-0.171653136610985,0.0629191175103188,-0.151800006628036
0,0.915277806110144,-0.306944449777077,0.238888893369199,-0.115758962929249,0.0757472887635231,-0.203418120741844
0,0.916666697993398,-0.202777789496344,0.229166674498349,0.200363799929619,-0.339030206203461,-0.194866016507149
0,1.07500008094122,-0.141666668192807,0.194444450352783,0.359188765287399,-0.191200822591782,-0.139888137578964
0,1.02638896227504,-0.108333335930496,0.168055565350778,0.538783133029938,0.520762622356415,0.0305432621389627
0,1.03888889197661,-0.179166676104882,0.180555567988136,0.812450766563416,0.425467640161514,0.24862214922905
0,0.766666714968959,-0.0611111152255539,-0.397222227693163,0.609338104724884,0.736398041248322,0.172874867916107
0,0.766666714968959,-0.0611111152255539,-0.397222227693163,0.289550125598908,-0.0503963828086853,0.0183259565383196
0,1.10555560512509,-0.0777777813567098,0.118055554801345,0.599869668483734,0.123394779860973,0.0864374339580536
0,1.08333333499303,-0.0986111170596459,0.140277788465518,0.671340882778168,0.279470860958099,0.0833831056952477
0,0.78333336894415,0.00416666691266287,0.055555559848502,0.697608113288879,-1.09528136253357,0.0952949747443199
0,0.78333336894415,0.00416666691266287,0.055555559848502,0.439517557621002,-1.3445143699646,0.162490159273148
0,1.07638897282447,-0.0833333367337618,-0.0722222259796579,0.149967417120934,-0.121867619454861,-0.0662788823246956
0,1.08055555122652,-0.0458333348996699,0.113888891307548,0.598342478275299,0.605672895908356,0.205250725150108
0,1.07361118905796,-0.0708333340964038,0.134722233088466,0.272445887327194,-0.0723875313997269,0.194560587406159
0,1.06527783775844,-0.106944444047242,0.0958333393711199,0.166460782289505,-0.485943287611008,0.18509216606617
0,1.06527783775844,-0.106944444047242,0.0958333393711199,0.10567969083786,-0.333226978778839,0.0940732508897781
0,1.08194444310977,-0.161111118090472,0.0152777788063885,0.347582310438156,0.503963828086853,0.141415297985077
0,1.06250005399193,-0.20972223675665,0.0833333367337618,0.542753756046295,0.807258427143097,0.189673662185669
0,1.06250005399193,-0.20972223675665,0.0833333367337618,0.540615737438202,0.0693332031369209,0.164933621883392
0,0.965277816659576,-0.169444445078067,0.0777777813567098,0.635605275630951,-0.0849102661013603,0.158824965357781
0,1.01944450285877,-0.0875000002275597,0.0513888902767219,0.626747727394104,-0.0390953756868839,0.142331600189209
0,1.01944450285877,-0.0875000002275597,0.0513888902767219,-1.18416225910187,0.181732416152954,-0.0177150927484035
0,1.10416671324184,0.194444450352783,0.104166672436698,-0.162490159273148,-0.0681114718317986,0.210748508572578
0,1.06666672964169,-0.0250000007162294,0.234722242031366,0.132557764649391,-0.248927593231201,0.236404851078987
0,1.04027778385987,-0.12916666555545,0.156944454596674,0.301156580448151,-0.152716308832169,0.291688144207001
0,0.981944519258625,-0.126388893944906,0.0847222225390337,0.467311918735504,-0.0931569486856461,0.22235494852066
0,0.95000000594378,-0.133333341205212,0.122222230451108,0.635910749435425,0.168293371796608,0.217468023300171
0,1.0513889189259,-0.187500003092477,0.116666675074056,0.799011766910553,0.359494209289551,0.176234617829323
0,1.05555559457566,-0.176388892338373,0.111111119697004,0.469449937343597,0.0540615729987621,0.134695783257484
0,1.05833337834217,-0.12777778582816,0.0819444448505077,0.426383942365646,0.149967417120934,0.151189148426056
0,1.05277781080915,-0.1194444466846,0.0986111170596459,0.404392778873444,0.207083314657211,0.200669229030609
0,1.03194452980806,-0.0986111170596459,0.0875000002275597,0.346055150032044,0.303294599056244,0.234877690672875
0,1.05416670269241,-0.0652777787193518,0.0944444474878658,0.260534018278122,0.427911102771759,0.302378296852112
0,1.08194444310977,-0.0486111125881959,0.111111119697004,0.131336033344269,0.506712734699249,0.325285732746124
0,1.07777786470773,-0.0638888929140799,0.126388893944906,-0.0128281703218818,0.500909507274628,0.342084527015686
0,1.04861113515939,-0.102777780553444,0.144444451959316,-0.120645888149738,0.418442696332932,0.310319542884827
0,0.998611124609959,-0.141666668192807,0.16527778158427,-0.203723564743996,0.252898216247559,0.186313897371292
0,0.922222265526414,-0.156944454596674,0.187500003092477,-0.208610475063324,0.0739146918058395,0.0977384373545647
0,0.916666697993398,-0.179166676104882,0.17361112072783,-0.149051114916802,-0.00580321997404099,0.0647517144680023
0,0.93750007624221,-0.19166667874224,0.156944454596674,-0.0500909499824047,0.0714712366461754,0.0525344125926495
0,0.993055557076942,-0.212499996211229,0.14583334384257,0.0482583530247212,0.144775062799454,0.0488692186772823
0,1.00555558402623,-0.222222239394008,0.16527778158427,0.120035022497177,0.166155353188515,0.0494800843298435
0,1.00000001649321,-0.20972223675665,0.193055558469529,0.181732416152954,0.155465200543404,0.0415388382971287
0,1.00000001649321,-0.202777789496344,0.20972223675665,0.208610475063324,0.120340451598167,0.0369573459029198
0,0.994444448960196,-0.187500003092477,0.227777782615095,0.210443079471588,0.0907134860754013,0.0180205255746841
0,0.987499989543926,-0.176388892338373,0.258333331110899,0.186924770474434,0.0751364231109619,0.0033597587607801
0,0.98888888142718,-0.172222228844576,0.265277790527169,0.139277279376984,0.0769690200686455,0.0198531206697226
0,0.98888888142718,-0.166666673467524,0.262500006760661,0.134084925055504,0.11087204515934,0.0259617734700441
0,0.979166735492117,-0.166666673467524,0.262500006760661,0.135917514562607,0.145080491900444,0.0235183127224445
0,0.96666670854283,-0.163888889701015,0.254166679773066,0.105068825185299,0.164322748780251,0.0131336031481624
0,0.984722303025134,-0.14583334384257,0.266666682410424,0.00794124789535999,0.186008468270302,-0.0149661982432008
0,0.986111194908388,-0.130555557438704,0.268055574293678,-0.0739146918058395,0.218689754605293,0.00152716308366507
0,0.994444448960196,-0.130555557438704,0.275000009398019,-0.164628177881241,0.231823354959488,0.037568211555481
0,1.00138890837647,-0.151388899219622,0.312500017310094,-0.203418120741844,0.24862214922905,0.0668897479772568
0,1.00277780025972,-0.169444445078067,0.318055560531181,-0.175929188728332,0.247094988822937,0.0293215326964855
0,0.99583334084345,-0.204166669223633,0.333333346935047,-0.0995710343122482,0.249538451433182,-0.027488935738802
0,0.96666670854283,-0.230555566381603,0.322222236180943,-0.00855211354792118,0.211053937673569,-0.0708603709936142
0,0.955555573476797,-0.230555566381603,0.323611128064198,0.0943786799907684,0.155465200543404,-0.0977384373545647
0,0.938888968125464,-0.213888888094483,0.319444452414435,0.171958565711975,0.118813291192055,-0.0934623852372169
0,0.930555616825939,-0.193055558469529,0.305555557893823,0.18020524084568,0.102014496922493,-0.0668897479772568
0,0.930555616825939,-0.179166676104882,0.302777798439244,0.158824965357781,0.0574213340878487,-0.0277943685650826
0,0.940277860008718,-0.170833336961321,0.298611122789481,0.131641462445259,0.0320704244077206,-0.00733038317412138
0,0.94305554652751,-0.176388892338373,0.295833339022973,0.118507854640484,0.0106901414692402,0.0103847095742822
0,0.948611114060526,-0.197222234119292,0.298611122789481,0.109344877302647,-0.00916297826915979,0.0140499006956816
0,0.941666654644256,-0.205555561106887,0.295833339022973,0.12705996632576,-0.0366519130766392,0.00885754637420177
0,0.930555616825939,-0.222222239394008,0.301388906555989,0.161268427968025,-0.0552833043038845,-0.00488692196086049
0,0.919444481759906,-0.231944458264858,0.298611122789481,0.191506251692772,-0.0861319974064827,-0.0284052342176437
0,0.925000049292922,-0.226388890731841,0.305555557893823,0.203418120741844,-0.122478485107422,-0.0531452745199203
0,0.916666697993398,-0.216666671860991,0.301388906555989,0.199752941727638,-0.154243469238281,-0.0616973899304867
0,0.895833319744586,-0.187500003092477,0.305555557893823,0.176845490932465,-0.225103840231896,-0.0604756586253643
0,0.890277849459286,-0.148611115453114,0.315277801076602,0.147829383611679,-0.293520748615265,-0.0650571510195732
0,0.923611157409668,-0.138888896582264,0.331944455051793,0.0558941699564457,-0.330478101968765,-0.0507018156349659
0,0.980555627375371,-0.172222228844576,0.327777779402031,-0.03176499158144,-0.285274058580399,-0.0406225398182869
0,0.998611124609959,-0.200000005729836,0.306944449777077,-0.0754418596625328,-0.274278491735458,-0.0247400421649218
0,1.00277780025972,-0.218055563744246,0.309722233543585,-0.0552833043038845,-0.26419922709465,-0.0314595587551594
0,1.0361111082101,-0.220833347510754,0.304166666010569,-0.0247400421649218,-0.221133217215538,-0.0729983970522881
0,1.08472222687628,-0.208333344873396,0.273611117514765,-0.0113010071218014,-0.171958565711975,-0.0775798857212067
0,1.07222229717471,-0.176388892338373,0.258333331110899,-0.027488935738802,-0.0913243517279625,-0.0775798857212067
0,1.01805561097552,-0.161111118090472,0.252777787889811,-0.0360410511493683,-0.0302378293126821,-0.105068825185299
0,1.01805561097552,-0.161111118090472,0.252777787889811,-0.0360410511493683,-0.0302378293126821,-0.105068825185299
0,0.96666670854283,-0.13750000469901,0.265277790527169,-0.102319926023483,0.0830776765942574,-0.145080491900444
0,0.952777789710289,-0.12916666555545,0.268055574293678,-0.151494577527046,0.110566608607769,-0.134084925055504
0,0.938888968125464,-0.13750000469901,0.244444460902216,-0.201585531234741,0.0128281703218818,-0.103236228227615
0,0.952777789710289,-0.144444451959316,0.234722242031366,-0.180510684847832,-0.0638354197144508,-0.120340451598167
0,0.984722303025134,-0.161111118090472,0.227777782615095,-0.132557764649391,-0.0784961804747581,-0.120951317250729
0,0.99583334084345,-0.148611115453114,0.216666671860991,-0.109344877302647,-0.0797179117798805,-0.111482910811901
0,0.991666665193688,-0.133333341205212,0.223611131277262,-0.114842668175697,-0.0516181141138077,-0.104152522981167
0,0.983333411141879,-0.115277783190802,0.19166667874224,-0.152410879731178,-0.0708603709936142,-0.111482910811901
0,0.99583334084345,-0.0972222251763917,0.179166676104882,-0.235793977975845,-0.0919352173805237,-0.125532805919647
0,1.00972225967599,-0.0958333393711199,0.17361112072783,-0.287412106990814,-0.0919352173805237,-0.107512280344963
0,1.0361111082101,-0.0944444474878658,0.154166670830166,-0.321315109729767,-0.0830776765942574,-0.0824668109416962
0,1.05833337834217,-0.0902777839940679,0.144444451959316,-0.307876080274582,-0.0409279726445675,-0.0473420582711697
0,1.05694448645892,-0.111111119697004,0.148611115453114,-0.288328409194946,0.0021380283869803,-0.000916297896765172
0,1.0361111082101,-0.126388893944906,0.158333334323963,-0.223576679825783,-0.0146607663482428,0.0189368221908808
0,1.02638896227504,-0.134722233088466,0.161111118090472,-0.138055548071861,-0.0488692186772823,0.00366519158706069
0,1.02222228662528,-0.125000002061652,0.166666673467524,0.00946841109544039,-0.0733038261532784,-0.00580321997404099
0,1.01527782720901,-0.0722222259796579,0.161111118090472,0.0662788823246956,-0.101403631269932,-0.0305432621389627
0,1.02222228662528,-0.0611111152255539,0.14722222356986,0.0864374339580536,-0.108734011650086,-0.04764748737216
0,1.02916674604155,-0.0458333348996699,0.136111112815755,0.0830776765942574,-0.0977384373545647,-0.0439822971820831
0,1.02222228662528,-0.0375000018340919,0.112499999424294,0.0891863256692886,-0.087659165263176,-0.0284052342176437
0,1.02777785415829,-0.0458333348996699,0.113888891307548,0.140499010682106,-0.0305432621389627,0.00122173049021512
0,1.03888889197661,-0.0625000010308258,0.112499999424294,0.191506251692772,0.0354301854968071,0.0241291765123606
0,1.0361111082101,-0.0722222259796579,0.106944444047242,0.232128798961639,0.081855945289135,0.0326812900602817
0,1.05555559457566,-0.0875000002275597,0.144444451959316,0.221133217215538,0.153938040137291,0.00733038317412138
0,1.03888889197661,-0.0944444474878658,0.186111123365188,0.135306656360626,0.157908663153648,-0.0345138870179653
0,0.976388951725609,-0.0902777839940679,0.208333344873396,0.01191187184304,0.0516181141138077,-0.0864374339580536
0,0.955555573476797,-0.0916666697993398,0.193055558469529,-0.0693332031369209,-0.129503428936005,-0.109039448201656
0,1.00277780025972,-0.131944449321958,0.176388892338373,-0.0815505087375641,-0.148440256714821,-0.0800233483314514
0,1.00277780025972,-0.131944449321958,0.176388892338373,-0.0332921557128429,-0.0739146918058395,-0.0189368221908808
0,1.00555558402623,-0.156944454596674,0.136111112815755,0.0714712366461754,0.0143553335219622,0.00183259579353034
0,1.00972225967599,-0.150000007336368,0.151388899219622,0.120951317250729,0.0891863256692886,-0.0320704244077206
0,0.99583334084345,-0.150000007336368,0.179166676104882,0.120645888149738,0.117591559886932,-0.0568104684352875
0,0.98888888142718,-0.144444451959316,0.195833342236038,0.0543670058250427,0.0473420582711697,-0.0439822971820831
0,0.98888888142718,-0.144444451959316,0.195833342236038,0.0345138870179653,0.0342084541916847,-0.0329867228865623
0,1.00833336779274,-0.186111123365188,0.18333333959868,-0.0647517144680023,-0.037568211555481,0.0742201283574104
0,1.01805561097552,-0.226388890731841,0.17361112072783,-0.0769690200686455,-0.0436768643558025,0.107512280344963
0,1.01527782720901,-0.256944463539574,0.17361112072783,-0.0668897479772568,-0.00397062394768,0.078801617026329
0,1.00555558402623,-0.265277790527169,0.169444445078067,-0.0448985956609249,0.0448985956609249,0.0348193198442459
0,1.00833336779274,-0.250000004123303,0.170833336961321,-0.019547687843442,0.0671951770782471,-0.00733038317412138
0,1.00972225967599,-0.230555566381603,0.194444450352783,-0.0320704244077206,0.0491746515035629,-0.0213802829384804
0,1.00555558402623,-0.226388890731841,0.184722231481934,-0.0485637858510017,-0.0290160998702049,0.0345138870179653
0,1.00555558402623,-0.226388890731841,0.184722231481934,0.317649930715561,-0.110261179506779,0.0821613743901253
0,1.12083341584089,0.0444444460554069,0.236111109602691,0.363464832305908,-0.614530444145203,0.461203247308731
0,1.02083339474202,0.184722231481934,0.224999998848587,-0.456316351890564,0.53328537940979,0.113620936870575
0,1.02083339474202,0.184722231481934,0.224999998848587,-0.309708684682846,0.398589581251144,-0.0241291765123606
0,0.929166724942685,-0.0805555590452358,0.193055558469529,-0.148745685815811,0.148745685815811,-0.0482583530247212
0,0.975000059842355,-0.240277785252453,0.24583335278547,-0.0849102661013603,0.0629191175103188,-0.0626136884093285
5,0.975000059842355,-0.240277785252453,0.24583335278547,0.0329867228865623,-0.0772744566202164,-0.0552833043038845
5,1.00555558402623,-0.272222225631511,0.259722222994153,0.0824668109416962,0.000305432622553781,-0.00702495034784079
5,1.07500008094122,-0.204166669223633,0.194444450352783,0.058643065392971,0.127365410327911,0.021685715764761
5,1.07500008094122,-0.204166669223633,0.194444450352783,0.0415388382971287,0.0473420582711697,0.0400116741657257
5,0.986111194908388,-0.193055558469529,0.241666677135707,0.0406225398182869,-0.0568104684352875,0.0849102661013603
5,0.979166735492117,-0.176388892338373,0.195833342236038,0.0699440687894821,-0.0271835029125214,0.0986547395586967
5,0.979166735492117,-0.176388892338373,0.195833342236038,0.0995710343122482,0.0342084541916847,0.0812450796365738
5,0.965277816659576,-0.177777784221628,0.193055558469529,0.149661988019943,0.0458148941397667,0.0287106670439243
5,0.959722249126559,-0.180555567988136,0.20972223675665,0.167987942695618,0.0177150927484035,0.0192422550171614
5,0.970833384192592,-0.176388892338373,0.2194444556275,0.175623759627342,0.01588249579072,-0.00122173049021512
5,0.997222232726705,-0.163888889701015,0.229166674498349,0.161268427968025,0.021685715764761,-0.00366519158706069
5,1.02361117850853,-0.15555556271342,0.218055563744246,0.115453533828259,0.0378736443817616,0.0277943685650826
5,1.02500007039179,-0.134722233088466,0.220833347510754,0.0693332031369209,0.0186313893646002,0.0543670058250427
5,1.01944450285877,-0.130555557438704,0.231944458264858,0.0409279726445675,0.0021380283869803,0.0687223374843597
5,1.00833336779274,-0.134722233088466,0.224999998848587,0.0366519130766392,-0.0134390350431204,0.0763581544160843
5,0.991666665193688,-0.140277788465518,0.238888893369199,0.0339030213654041,-0.0219911485910416,0.0589484944939613
5,0.986111194908388,-0.154166670830166,0.223611131277262,0.0507018156349659,-0.0109955742955208,0.0561996027827263
5,0.98888888142718,-0.158333334323963,0.224999998848587,0.0592539273202419,0.0122173046693206,0.0424551330506802
5,0.986111194908388,-0.166666673467524,0.220833347510754,0.0659734457731247,0.0143553335219622,0.0394008085131645
5,0.987499989543926,-0.161111118090472,0.222222239394008,0.0705549344420433,0.0210748501121998,0.0378736443817616
5,0.986111194908388,-0.151388899219622,0.227777782615095,0.0650571510195732,0.00244346098043024,0.0470366254448891
5,0.98888888142718,-0.144444451959316,0.226388890731841,0.0500909499824047,-0.0113010071218014,0.0534507073462009
5,1.00000001649321,-0.148611115453114,0.236111109602691,0.0442877300083637,-0.0210748501121998,0.0589484944939613
5,0.998611124609959,-0.14722222356986,0.230555566381603,0.0241291765123606,-0.0253509078174829,0.0659734457731247
5,0.99583334084345,-0.14722222356986,0.233333350148112,0.02382374368608,-0.0204639863222837,0.070249505341053
5,1.00138890837647,-0.154166670830166,0.224999998848587,0.0189368221908808,-0.0192422550171614,0.0742201283574104
5,0.993055557076942,-0.159722226207217,0.2194444556275,0.0100792767480016,-0.02382374368608,0.0775798857212067
5,0.984722303025134,-0.158333334323963,0.226388890731841,0.00763581553474069,-0.0164933614432812,0.0626136884093285
5,0.99583334084345,-0.158333334323963,0.233333350148112,0.0100792767480016,-0.00885754637420177,0.0470366254448891
5,0.99583334084345,-0.156944454596674,0.233333350148112,0.0140499006956816,-0.00152716308366507,0.0439822971820831
5,0.993055557076942,-0.162500009973726,0.218055563744246,0.0171042270958424,-0.0143553335219622,0.0229074470698834
5,0.986111194908388,-0.163888889701015,0.224999998848587,0.00794124789535999,-0.0164933614432812,0.0265726372599602
5,0.993055557076942,-0.166666673467524,0.233333350148112,0.00580321997404099,-0.0131336031481624,0.0164933614432812
5,1.00000001649321,-0.177777784221628,0.230555566381603,0.00519235478714108,-0.0100792767480016,0.0161879286170006
5,0.99583334084345,-0.179166676104882,0.229166674498349,0.0125227374956012,-0.0122173046693206,0.011606439948082
5,0.994444448960196,-0.177777784221628,0.226388890731841,0.0235183127224445,-0.013744467869401,0.00580321997404099
5,0.98888888142718,-0.169444445078067,0.223611131277262,0.0250454749912024,-0.015577063895762,-0.000916297896765172
5,0.99583334084345,-0.161111118090472,0.2194444556275,0.0213802829384804,-0.0140499006956816,-0.00610865233466029
5,1.00000001649321,-0.159722226207217,0.216666671860991,0.00549778714776039,-0.00824668072164059,-0.00397062394768
5,0.99583334084345,-0.150000007336368,0.216666671860991,0.000610865245107561,-0.011606439948082,0.00488692196086049
5,0.994444448960196,-0.156944454596674,0.2194444556275,-0.000305432622553781,-0.0134390350431204,0.00794124789535999
5,0.993055557076942,-0.156944454596674,0.218055563744246,-0.00152716308366507,-0.00519235478714108,0.0122173046693206
5,0.990277773310434,-0.16527778158427,0.2194444556275,-0.00916297826915979,-0.00671951752156019,0.0152716310694814
5,0.99583334084345,-0.168055565350778,0.236111109602691,0.00610865233466029,0.00488692196086049,0.000305432622553781
5,0.998611124609959,-0.176388892338373,0.229166674498349,0.00794124789535999,-0.00244346098043024,-0.0131336031481624
5,0.997222232726705,-0.161111118090472,0.212499996211229,0.00733038317412138,-0.00244346098043024,-0.013744467869401
5,1.00000001649321,-0.154166670830166,0.216666671860991,0.00641408516094089,-0.00488692196086049,-0.0152716310694814
5,0.99583334084345,-0.156944454596674,0.20972223675665,0.00122173049021512,-0.0146607663482428,-0.0100792767480016
5,1.00138890837647,-0.161111118090472,0.206944452990142,0.00580321997404099,-0.0122173046693206,0.00397062394768
5,1.00277780025972,-0.156944454596674,0.212499996211229,-0.00397062394768,-0.0106901414692402,0.00580321997404099
5,0.99583334084345,-0.156944454596674,0.212499996211229,0.00519235478714108,-0.015577063895762,0.0134390350431204
5,0.993055557076942,-0.156944454596674,0.216666671860991,0.0021380283869803,-0.00946841109544039,0.00977384392172098
5,0.998611124609959,-0.154166670830166,0.212499996211229,0.00549778714776039,-0.00305432616733015,-0.00824668072164059
5,0.99583334084345,-0.159722226207217,0.218055563744246,0.00946841109544039,0.000610865245107561,-0.01588249579072
5,0.998611124609959,-0.170833336961321,0.216666671860991,0.0134390350431204,0.0146607663482428,-0.0433714315295219
5,0.99583334084345,-0.170833336961321,0.213888888094483,0.00397062394768,0.00305432616733015,-0.0500909499824047
5,0.99583334084345,-0.163888889701015,0.208333344873396,-0.00946841109544039,-0.00305432616733015,-0.0522289797663689
5,1.00138890837647,-0.16527778158427,0.20972223675665,-0.0146607663482428,-0.00152716308366507,-0.0448985956609249
5,1.00000001649321,-0.161111118090472,0.220833347510754,-0.0149661982432008,-0.00671951752156019,-0.0323758572340012
5,1.00555558402623,-0.156944454596674,0.211111128639904,-0.0103847095742822,-0.00366519158706069,-0.0171042270958424
5,1.00555558402623,-0.161111118090472,0.212499996211229,-0.0180205255746841,-0.00305432616733015,-0.00733038317412138
5,0.998611124609959,-0.158333334323963,0.20972223675665,-0.0247400421649218,-0.00244346098043024,-0.00855211354792118
5,0.990277773310434,-0.156944454596674,0.213888888094483,-0.0335975885391235,-0.0125227374956012,-0.0021380283869803
5,0.99583334084345,-0.158333334323963,0.2194444556275,-0.0259617734700441,0.000305432622553781,-0.0113010071218014
5,0.997222232726705,-0.161111118090472,0.20972223675665,-0.0262672062963247,0.00763581553474069,-0.019547687843442
5,0.998611124609959,-0.163888889701015,0.212499996211229,-0.0229074470698834,0.0161879286170006,-0.021685715764761
5,1.00000001649321,-0.170833336961321,0.208333344873396,-0.0259617734700441,0.0109955742955208,-0.00671951752156019
5,1.00000001649321,-0.166666673467524,0.20972223675665,-0.0241291765123606,0.00152716308366507,-0.0204639863222837
5,1.00138890837647,-0.163888889701015,0.205555561106887,-0.0277943685650826,-0.0109955742955208,-0.0219911485910416
5,0.99583334084345,-0.162500009973726,0.197222234119292,-0.00855211354792118,-0.00366519158706069,-0.03176499158144
5,0.991666665193688,-0.158333334323963,0.215277779977737,-0.00763581553474069,0.00794124789535999,-0.03176499158144
5,0.99583334084345,-0.154166670830166,0.197222234119292,-0.00977384392172098,0.00763581553474069,-0.0387899428606033
5,1.00000001649321,-0.156944454596674,0.20138889761309,-0.00519235478714108,0.0186313893646002,-0.0342084541916847
5,1.00416669214298,-0.162500009973726,0.206944452990142,-0.0180205255746841,0.0186313893646002,-0.027488935738802
5,1.00277780025972,-0.154166670830166,0.204166669223633,-0.0210748501121998,0.01191187184304,-0.0384845100343227
5,1.00277780025972,-0.156944454596674,0.200000005729836,-0.0265726372599602,0.00366519158706069,-0.0268780700862408
5,1.00000001649321,-0.159722226207217,0.20972223675665,-0.0299323964864016,0.0125227374956012,-0.0229074470698834
5,1.00000001649321,-0.163888889701015,0.20972223675665,-0.0204639863222837,0.00794124789535999,-0.0244346093386412
5,0.993055557076942,-0.163888889701015,0.216666671860991,-0.019547687843442,0.00152716308366507,-0.019547687843442
5,0.997222232726705,-0.159722226207217,0.200000005729836,-0.0103847095742822,0.00671951752156019,-0.0232128798961639
5,0.997222232726705,-0.159722226207217,0.200000005729836,-0.00885754637420177,0.0113010071218014,-0.00916297826915979
5,1.00000001649321,-0.15555556271342,0.206944452990142,-0.00610865233466029,0.00519235478714108,-0.00946841109544039
5,1.00000001649321,-0.15555556271342,0.206944452990142,-0.0021380283869803,0.00519235478714108,-0.00733038317412138
5,1.00000001649321,-0.162500009973726,0.206944452990142,0.0033597587607801,0.0021380283869803,-0.0122173046693206
5,0.998611124609959,-0.16527778158427,0.205555561106887,0.00580321997404099,0.0027488935738802,-0.0152716310694814
5,1.00138890837647,-0.161111118090472,0.216666671860991,0.0106901414692402,0.0125227374956012,-0.0189368221908808
5,1.00000001649321,-0.154166670830166,0.218055563744246,0.00397062394768,0.00855211354792118,-0.0146607663482428
5,0.994444448960196,-0.148611115453114,0.215277779977737,-0.00152716308366507,-0.0045814891345799,-0.0113010071218014
5,1.00000001649321,-0.152777778946911,0.20972223675665,0.00488692196086049,-0.00824668072164059,-0.0033597587607801
5,1.00000001649321,-0.151388899219622,0.204166669223633,0.00152716308366507,-0.00733038317412138,-0.0033597587607801
5,1.00277780025972,-0.150000007336368,0.206944452990142,0.00610865233466029,-0.000916297896765172,-0.000305432622553781
5,1.00416669214298,-0.154166670830166,0.216666671860991,0.000610865245107561,0.000305432622553781,-0.00183259579353034
5,1.00000001649321,-0.150000007336368,0.216666671860991,0.00671951752156019,-0.00183259579353034,0.00183259579353034
5,1.00138890837647,-0.14722222356986,0.20972223675665,0.00794124789535999,0.0164933614432812,0.0122173046693206
5,0.99583334084345,-0.156944454596674,0.211111128639904,0.00519235478714108,0.0128281703218818,0.00885754637420177
5,0.998611124609959,-0.154166670830166,0.212499996211229,0.00885754637420177,0.00885754637420177,-0.00122173049021512
5,0.99583334084345,-0.152777778946911,0.206944452990142,0.00733038317412138,0.00549778714776039,-0.00427605677396059
5,0.993055557076942,-0.151388899219622,0.211111128639904,0.01191187184304,-0.000916297896765172,-0.00305432616733015
5,1.00138890837647,-0.14722222356986,0.205555561106887,0.00397062394768,-0.00763581553474069,-0.0027488935738802
5,1.00000001649321,-0.14722222356986,0.206944452990142,0.00427605677396059,-0.00244346098043024,0.00427605677396059
5,0.997222232726705,-0.150000007336368,0.216666671860991,0.00977384392172098,-0.00183259579353034,0.0033597587607801
5,0.993055557076942,-0.144444451959316,0.215277779977737,0.0164933614432812,-0.00549778714776039,0.0033597587607801
5,0.998611124609959,-0.144444451959316,0.198611113846581,0.0106901414692402,-0.00183259579353034,0.00610865233466029
5,1.00000001649321,-0.14722222356986,0.204166669223633,0.0131336031481624,0.00519235478714108,0.00702495034784079
5,1.00000001649321,-0.152777778946911,0.212499996211229,0.0033597587607801,0.00641408516094089,0.0183259565383196
5,1.00555558402623,-0.148611115453114,0.218055563744246,0.00641408516094089,0.00183259579353034,0.00702495034784079
5,1.00000001649321,-0.150000007336368,0.2194444556275,0.0128281703218818,-0.00244346098043024,0.0122173046693206
5,1.00277780025972,-0.14722222356986,0.222222239394008,0.00397062394768,-0.00427605677396059,0.0131336031481624
5,1.00277780025972,-0.14722222356986,0.215277779977737,0.000305432622553781,0.0161879286170006,0.00549778714776039
5,1.00000001649321,-0.151388899219622,0.213888888094483,0.000610865245107561,0.0167987942695618,0.0128281703218818
5,0.998611124609959,-0.154166670830166,0.212499996211229,-0.00580321997404099,0.011606439948082,0.0128281703218818
5,0.99583334084345,-0.15555556271342,0.215277779977737,-0.000305432622553781,0.0103847095742822,0.0109955742955208
5,0.994444448960196,-0.161111118090472,0.20972223675665,-0.00519235478714108,0.00702495034784079,0.0161879286170006
5,0.994444448960196,-0.150000007336368,0.215277779977737,0.00122173049021512,0.0045814891345799,0.00885754637420177
5,0.991666665193688,-0.152777778946911,0.218055563744246,0.000610865245107561,0.00610865233466029,0.0210748501121998
5,0.994444448960196,-0.150000007336368,0.211111128639904,0.0021380283869803,0.00671951752156019,0.00977384392172098
5,0.993055557076942,-0.148611115453114,0.212499996211229,0.00885754637420177,0.00183259579353034,0.0186313893646002
5,0.993055557076942,-0.15555556271342,0.216666671860991,0.0140499006956816,0.0033597587607801,0.0280998013913631
5,0.990277773310434,-0.156944454596674,0.20972223675665,0.011606439948082,-0.00122173049021512,0.0284052342176437
5,0.998611124609959,-0.161111118090472,0.2194444556275,0.0183259565383196,0.00152716308366507,0.0198531206697226
5,1.00000001649321,-0.162500009973726,0.2194444556275,0.0250454749912024,-0.0021380283869803,0.00916297826915979
5,0.99583334084345,-0.159722226207217,0.227777782615095,0.0299323964864016,-0.0027488935738802,0.00366519158706069
5,0.99583334084345,-0.161111118090472,0.20972223675665,0.0222965814173222,-0.00183259579353034,0.00427605677396059
5,0.998611124609959,-0.163888889701015,0.208333344873396,0.0277943685650826,-0.00794124789535999,0.00916297826915979
5,0.994444448960196,-0.161111118090472,0.205555561106887,0.0290160998702049,-0.0027488935738802,0.0045814891345799
5,0.99583334084345,-0.170833336961321,0.224999998848587,0.0186313893646002,-0.00794124789535999,0.00641408516094089
5,1.00000001649321,-0.168055565350778,0.222222239394008,0.0253509078174829,0.00427605677396059,-0.00916297826915979
5,1.00000001649321,-0.170833336961321,0.2194444556275,0.0329867228865623,0.0045814891345799,-0.0219911485910416
5,0.997222232726705,-0.163888889701015,0.216666671860991,0.0418442711234093,0.00122173049021512,-0.0140499006956816
5,0.993055557076942,-0.158333334323963,0.216666671860991,0.0366519130766392,0.00549778714776039,-0.019547687843442
5,0.993055557076942,-0.161111118090472,0.2194444556275,0.0403171069920063,0.00641408516094089,-0.0045814891345799
5,0.99583334084345,-0.154166670830166,0.215277779977737,0.0302378293126821,0.000916297896765172,-0.00366519158706069
5,0.998611124609959,-0.151388899219622,0.216666671860991,0.0268780700862408,0.00610865233466029,-0.00427605677396059
5,0.997222232726705,-0.154166670830166,0.220833347510754,0.0259617734700441,0.00855211354792118,-0.0122173046693206
5,0.991666665193688,-0.152777778946911,0.216666671860991,0.015577063895762,0.00580321997404099,-0.0134390350431204
5,0.991666665193688,-0.150000007336368,0.223611131277262,0.0103847095742822,-0.00549778714776039,-0.011606439948082
5,0.99583334084345,-0.150000007336368,0.216666671860991,-0.000305432622553781,-0.00488692196086049,-0.00610865233466029
5,0.994444448960196,-0.154166670830166,0.211111128639904,-0.00763581553474069,-0.00549778714776039,0.00671951752156019
5,0.998611124609959,-0.154166670830166,0.218055563744246,-0.00916297826915979,0.00244346098043024,0.00610865233466029
5,0.997222232726705,-0.151388899219622,0.226388890731841,-0.013744467869401,0.00763581553474069,0.00305432616733015
5,1.00138890837647,-0.156944454596674,0.220833347510754,-0.00549778714776039,0.0113010071218014,0.00397062394768
5,0.998611124609959,-0.154166670830166,0.2194444556275,-0.00977384392172098,-0.00519235478714108,0.00183259579353034
5,0.993055557076942,-0.14722222356986,0.216666671860991,-0.0113010071218014,-0.00549778714776039,0.0021380283869803
5,0.99583334084345,-0.148611115453114,0.216666671860991,-0.0198531206697226,-0.00702495034784079,0.0140499006956816
5,1.00000001649321,-0.14722222356986,0.212499996211229,-0.0256563406437635,-0.00427605677396059,0.00580321997404099
5,1.00277780025972,-0.151388899219622,0.2194444556275,-0.0241291765123606,0.00763581553474069,0.00580321997404099
5,1.00138890837647,-0.154166670830166,0.215277779977737,-0.029626963660121,0.0103847095742822,0.00794124789535999
5,1.00138890837647,-0.15555556271342,0.2194444556275,-0.0226020142436027,0.00366519158706069,0.00152716308366507
5,0.99583334084345,-0.158333334323963,0.213888888094483,-0.019547687843442,0.00824668072164059,-0.000916297896765172
5,0.99583334084345,-0.156944454596674,0.212499996211229,-0.011606439948082,-0.000610865245107561,-0.00488692196086049
5,0.993055557076942,-0.150000007336368,0.20972223675665,-0.00824668072164059,-0.0021380283869803,-0.00427605677396059
5,0.994444448960196,-0.150000007336368,0.215277779977737,-0.00916297826915979,-0.000610865245107561,0.00305432616733015
5,1.00000001649321,-0.151388899219622,0.20972223675665,-0.0100792767480016,0.0106901414692402,0.0021380283869803
5,0.99583334084345,-0.154166670830166,0.212499996211229,-0.00305432616733015,0.0131336031481624,-0.00794124789535999
5,0.994444448960196,-0.150000007336368,0.213888888094483,-0.00397062394768,0.00885754637420177,-0.0113010071218014
5,1.00000001649321,-0.14722222356986,0.212499996211229,0.00122173049021512,-0.00152716308366507,-0.0140499006956816
5,0.998611124609959,-0.154166670830166,0.212499996211229,0.00427605677396059,0.0033597587607801,-0.00885754637420177
5,1.00138890837647,-0.154166670830166,0.216666671860991,0.0033597587607801,-0.00244346098043024,-0.017409659922123
5,0.99583334084345,-0.152777778946911,0.216666671860991,0.01191187184304,0.00183259579353034,-0.00824668072164059
5,0.99583334084345,-0.152777778946911,0.216666671860991,0.013744467869401,0.00427605677396059,-0.00519235478714108
5,0.99583334084345,-0.154166670830166,0.198611113846581,0.0140499006956816,-0.00152716308366507,-0.01191187184304
5,0.994444448960196,-0.154166670830166,0.206944452990142,0.0232128798961639,0.000305432622553781,-0.0152716310694814
5,0.994444448960196,-0.154166670830166,0.206944452990142,0.0171042270958424,0.00519235478714108,-0.0167987942695618
5,0.99583334084345,-0.144444451959316,0.223611131277262,0.0186313893646002,0.00549778714776039,-0.0207694191485643
5,0.998611124609959,-0.150000007336368,0.215277779977737,0.0198531206697226,-0.00183259579353034,-0.0177150927484035
5,0.998611124609959,-0.150000007336368,0.215277779977737,0.0183259565383196,0.00305432616733015,-0.0250454749912024
5,0.99583334084345,-0.14722222356986,0.215277779977737,0.0131336031481624,-0.00244346098043024,-0.0210748501121998
5,0.99583334084345,-0.15555556271342,0.20972223675665,0.00488692196086049,0.00702495034784079,-0.021685715764761
5,0.99583334084345,-0.15555556271342,0.20972223675665,0.0140499006956816,0.0027488935738802,-0.0250454749912024
5,1.00000001649321,-0.14722222356986,0.213888888094483,0.0109955742955208,-0.00580321997404099,-0.017409659922123
5,0.997222232726705,-0.143055560076062,0.211111128639904,0.00916297826915979,-0.00946841109544039,-0.0241291765123606
5,0.99583334084345,-0.141666668192807,0.205555561106887,-0.00855211354792118,-0.0149661982432008,-0.0167987942695618
5,0.99583334084345,-0.141666668192807,0.205555561106887,-0.0161879286170006,-0.00305432616733015,-0.00671951752156019
5,1.00138890837647,-0.150000007336368,0.208333344873396,-0.0265726372599602,-0.00122173049021512,-0.00519235478714108
5,1.00000001649321,-0.154166670830166,0.212499996211229,-0.0311541277915239,-0.0021380283869803,-0.00702495034784079
5,1.00000001649321,-0.154166670830166,0.212499996211229,-0.0351247526705265,0.00794124789535999,0.000610865245107561
5,0.998611124609959,-0.144444451959316,0.20972223675665,-0.0384845100343227,0.0113010071218014,-0.00122173049021512
5,0.998611124609959,-0.148611115453114,0.215277779977737,-0.0381790772080422,0.00122173049021512,-0.0033597587607801
5,0.99583334084345,-0.14722222356986,0.218055563744246,-0.0424551330506802,0.00610865233466029,-0.00427605677396059
5,0.998611124609959,-0.154166670830166,0.215277779977737,-0.0494800843298435,0.00122173049021512,0.00305432616733015
5,1.00000001649321,-0.154166670830166,0.216666671860991,-0.058643065392971,0.00183259579353034,0.00855211354792118
5,0.997222232726705,-0.152777778946911,0.220833347510754,-0.0452040284872055,0.0021380283869803,0.0106901414692402
5,1.00138890837647,-0.156944454596674,0.215277779977737,-0.0357356183230877,0.00366519158706069,0.0128281703218818
5,0.99583334084345,-0.156944454596674,0.2194444556275,-0.0259617734700441,0.0021380283869803,0.01191187184304
5,0.997222232726705,-0.163888889701015,0.2194444556275,-0.0210748501121998,0.00183259579353034,0.0027488935738802
5,1.00000001649321,-0.163888889701015,0.226388890731841,-0.00794124789535999,-0.0021380283869803,0.01191187184304
5,1.00555558402623,-0.161111118090472,0.222222239394008,0.00794124789535999,-0.00152716308366507,0.0152716310694814
5,0.99583334084345,-0.154166670830166,0.226388890731841,0.0134390350431204,-0.000916297896765172,0.0186313893646002
5,0.998611124609959,-0.152777778946911,0.2194444556275,0.0103847095742822,0.0033597587607801,0.011606439948082
5,1.00000001649321,-0.150000007336368,0.218055563744246,0.00763581553474069,-0.00824668072164059,0.013744467869401
5,0.998611124609959,-0.150000007336368,0.215277779977737,0.00733038317412138,-0.00549778714776039,0.0204639863222837
5,0.997222232726705,-0.152777778946911,0.212499996211229,0.0143553335219622,-0.00641408516094089,0.0122173046693206
5,0.99583334084345,-0.15555556271342,0.233333350148112,0.00885754637420177,0.00366519158706069,0.0033597587607801
5,1.00000001649321,-0.158333334323963,0.215277779977737,0.0100792767480016,-0.00366519158706069,-0.00244346098043024
5,0.998611124609959,-0.156944454596674,0.212499996211229,0.011606439948082,0.0027488935738802,-0.00763581553474069
5,0.997222232726705,-0.15555556271342,0.215277779977737,0.0122173046693206,0.0125227374956012,-0.0109955742955208
5,1.00277780025972,-0.163888889701015,0.206944452990142,0.0192422550171614,0.00916297826915979,-0.00488692196086049
5,1.00277780025972,-0.163888889701015,0.206944452990142,0.0192422550171614,0.00916297826915979,-0.00488692196086049
5,0.993055557076942,-0.14722222356986,0.205555561106887,0.019547687843442,0.000916297896765172,0.00824668072164059
5,1.00000001649321,-0.150000007336368,0.208333344873396,0.017409659922123,0.00122173049021512,0.00794124789535999
5,0.998611124609959,-0.150000007336368,0.20972223675665,0.0045814891345799,0.0027488935738802,0.00855211354792118
5,0.998611124609959,-0.15555556271342,0.213888888094483,0.00152716308366507,0.0045814891345799,0.0122173046693206
5,1.00000001649321,-0.154166670830166,0.216666671860991,-0.00122173049021512,0.011606439948082,0.0113010071218014
5,1.00000001649321,-0.152777778946911,0.215277779977737,0.00366519158706069,0.00519235478714108,0.0134390350431204
5,0.99583334084345,-0.151388899219622,0.223611131277262,-0.00122173049021512,0.00244346098043024,0.00305432616733015
5,0.997222232726705,-0.148611115453114,0.20972223675665,0.00794124789535999,-0.00183259579353034,0.00488692196086049
5,1.00000001649321,-0.150000007336368,0.20972223675665,-0.000305432622553781,-0.00152716308366507,0.00855211354792118
5,1.00138890837647,-0.14722222356986,0.212499996211229,0.00122173049021512,-0.00244346098043024,0.00885754637420177
5,0.997222232726705,-0.150000007336368,0.20972223675665,0.00671951752156019,0.00122173049021512,0.011606439948082
5,0.998611124609959,-0.150000007336368,0.212499996211229,-0.000305432622553781,0.00183259579353034,0.0164933614432812
5,0.998611124609959,-0.154166670830166,0.213888888094483,0.01191187184304,-0.00488692196086049,0.00519235478714108
5,1.00000001649321,-0.15555556271342,0.212499996211229,0.0131336031481624,-0.00305432616733015,0.00824668072164059
5,1.00138890837647,-0.154166670830166,0.2194444556275,0.00885754637420177,0.0027488935738802,0.00183259579353034
5,1.00277780025972,-0.152777778946911,0.216666671860991,0.019547687843442,-0.000305432622553781,-0.00519235478714108
5,0.998611124609959,-0.15555556271342,0.218055563744246,0.0171042270958424,-0.00122173049021512,-0.000916297896765172
5,0.998611124609959,-0.15555556271342,0.218055563744246,0.0113010071218014,0.000305432622553781,-0.000305432622553781
5,1.00000001649321,-0.151388899219622,0.212499996211229,0.0100792767480016,-0.000916297896765172,-0.00824668072164059
5,0.997222232726705,-0.151388899219622,0.212499996211229,0.0149661982432008,-0.000610865245107561,-0.000305432622553781
5,0.997222232726705,-0.151388899219622,0.212499996211229,0.0125227374956012,-0.00549778714776039,0.000916297896765172
5,0.991666665193688,-0.151388899219622,0.2194444556275,0.0146607663482428,-0.00519235478714108,-0.000916297896765172
5,0.994444448960196,-0.158333334323963,0.224999998848587,0.017409659922123,0.00183259579353034,-0.00946841109544039
5,0.994444448960196,-0.158333334323963,0.224999998848587,0.00702495034784079,-0.0021380283869803,0.00427605677396059
5,0.993055557076942,-0.154166670830166,0.223611131277262,0.00855211354792118,-0.00244346098043024,-0.00580321997404099
5,0.998611124609959,-0.156944454596674,0.216666671860991,0.00580321997404099,-0.00366519158706069,0.00763581553474069
5,0.998611124609959,-0.156944454596674,0.216666671860991,-0.000305432622553781,0.00488692196086049,0.0033597587607801
5,0.997222232726705,-0.156944454596674,0.213888888094483,0.00397062394768,0.00183259579353034,0.00244346098043024
5,0.997222232726705,-0.156944454596674,0.223611131277262,0.00733038317412138,-0.00122173049021512,-0.00366519158706069
5,0.997222232726705,-0.156944454596674,0.223611131277262,0.00610865233466029,0.0027488935738802,-0.00855211354792118
5,0.998611124609959,-0.154166670830166,0.2194444556275,0.00794124789535999,-0.0027488935738802,-0.00366519158706069
5,1.00000001649321,-0.150000007336368,0.215277779977737,0.00549778714776039,0.00794124789535999,-0.00610865233466029
5,1.00000001649321,-0.154166670830166,0.20972223675665,0.00122173049021512,0.0021380283869803,-0.00152716308366507
5,0.998611124609959,-0.148611115453114,0.215277779977737,-0.00549778714776039,0.00641408516094089,-0.0106901414692402
5,0.99583334084345,-0.154166670830166,0.213888888094483,-0.00580321997404099,-0.000305432622553781,-0.00305432616733015
5,0.998611124609959,-0.158333334323963,0.216666671860991,-0.00122173049021512,-0.00183259579353034,0.00366519158706069
5,0.997222232726705,-0.154166670830166,0.215277779977737,-0.00488692196086049,0.0021380283869803,-0.0140499006956816
5,0.99583334084345,-0.154166670830166,0.213888888094483,0.00641408516094089,-0.00183259579353034,-0.00641408516094089
5,1.00000001649321,-0.154166670830166,0.215277779977737,-0.00152716308366507,0.0021380283869803,-0.00397062394768
5,1.00000001649321,-0.154166670830166,0.20972223675665,0.00427605677396059,0.00671951752156019,-0.00763581553474069
5,1.00138890837647,-0.152777778946911,0.208333344873396,0.0021380283869803,0.0045814891345799,-0.000916297896765172
5,0.997222232726705,-0.154166670830166,0.212499996211229,0.000610865245107561,-0.000916297896765172,-0.00183259579353034
5,0.997222232726705,-0.15555556271342,0.20972223675665,0.0045814891345799,-0.0021380283869803,-0.00152716308366507
5,1.00000001649321,-0.148611115453114,0.212499996211229,0.00702495034784079,0.00549778714776039,0.000610865245107561
5,1.00138890837647,-0.150000007336368,0.206944452990142,0.00427605677396059,0.0027488935738802,0.00580321997404099
5,1.00138890837647,-0.154166670830166,0.212499996211229,0.0106901414692402,0.00824668072164059,0.0113010071218014
5,0.997222232726705,-0.15555556271342,0.20972223675665,0.01191187184304,0.00733038317412138,0.00763581553474069
5,0.99583334084345,-0.156944454596674,0.20972223675665,0.00610865233466029,0.00305432616733015,0.000916297896765172
5,0.997222232726705,-0.154166670830166,0.216666671860991,0.017409659922123,-0.0021380283869803,0.00702495034784079
5,0.998611124609959,-0.154166670830166,0.229166674498349,0.0284052342176437,-0.00427605677396059,0.00580321997404099
5,0.998611124609959,-0.154166670830166,0.220833347510754,0.0268780700862408,-0.00855211354792118,0.0198531206697226
5,0.99583334084345,-0.161111118090472,0.223611131277262,0.021685715764761,-0.00152716308366507,0.0210748501121998
5,1.01111115155925,-0.15555556271342,0.2194444556275,0.02382374368608,-0.01191187184304,0.0287106670439243
5,1.00277780025972,-0.161111118090472,0.223611131277262,0.0232128798961639,0.00427605677396059,0.0235183127224445
5,0.997222232726705,-0.156944454596674,0.220833347510754,0.0351247526705265,-0.000305432622553781,0.0213802829384804
5,0.99583334084345,-0.154166670830166,0.2194444556275,0.0311541277915239,0.00122173049021512,0.02382374368608
5,1.00138890837647,-0.156944454596674,0.20972223675665,0.0400116741657257,0.00305432616733015,0.021685715764761
5,1.00277780025972,-0.156944454596674,0.212499996211229,0.0387899428606033,-0.00305432616733015,0.011606439948082
5,0.99583334084345,-0.151388899219622,0.223611131277262,0.0409279726445675,-0.0033597587607801,0.00488692196086049
5,0.99583334084345,-0.151388899219622,0.223611131277262,0.0357356183230877,-0.00305432616733015,0.00977384392172098
5,0.99583334084345,-0.14722222356986,0.215277779977737,0.0357356183230877,-0.0021380283869803,0.0146607663482428
5,1.00000001649321,-0.154166670830166,0.20972223675665,0.0363464802503586,0.00549778714776039,0.00824668072164059
5,0.998611124609959,-0.156944454596674,0.216666671860991,0.0335975885391235,0.00427605677396059,0.00580321997404099
5,1.00000001649321,-0.154166670830166,0.216666671860991,0.0335975885391235,0.00305432616733015,0.00733038317412138
5,1.00555558402623,-0.152777778946911,0.223611131277262,0.027488935738802,0.0045814891345799,0.00671951752156019
5,1.00277780025972,-0.150000007336368,0.212499996211229,0.0284052342176437,0.00122173049021512,0.0131336031481624
5,1.00000001649321,-0.151388899219622,0.220833347510754,0.0259617734700441,0.00152716308366507,0.00763581553474069
5,1.00000001649321,-0.152777778946911,0.2194444556275,0.0226020142436027,0.00183259579353034,0.00152716308366507
5,0.99583334084345,-0.154166670830166,0.218055563744246,0.019547687843442,0.00671951752156019,0.00763581553474069
5,0.99583334084345,-0.150000007336368,0.218055563744246,0.0222965814173222,0.00916297826915979,0.0027488935738802
5,0.99583334084345,-0.14722222356986,0.216666671860991,0.0201585534960032,0.00397062394768,-0.000610865245107561
5,0.998611124609959,-0.14583334384257,0.223611131277262,0.00977384392172098,0.0033597587607801,-0.0045814891345799
5,1.00000001649321,-0.144444451959316,0.2194444556275,0.00519235478714108,0.00427605677396059,-0.000916297896765172
5,0.998611124609959,-0.144444451959316,0.2194444556275,0.00977384392172098,0.00885754637420177,-0.000610865245107561
5,1.00138890837647,-0.144444451959316,0.2194444556275,0.00641408516094089,0.0100792767480016,-0.00488692196086049
5,0.997222232726705,-0.15555556271342,0.229166674498349,0.00305432616733015,0.0113010071218014,-0.00641408516094089
5,0.997222232726705,-0.154166670830166,0.223611131277262,0.00305432616733015,0.00580321997404099,-0.00763581553474069
5,0.998611124609959,-0.150000007336368,0.227777782615095,0.00549778714776039,0.00183259579353034,-0.01588249579072
5,0.99583334084345,-0.14722222356986,0.2194444556275,0.0027488935738802,0.00549778714776039,-0.0183259565383196
5,1.00000001649321,-0.14722222356986,0.204166669223633,0.00366519158706069,-0.000305432622553781,-0.00977384392172098
5,1.00000001649321,-0.14722222356986,0.216666671860991,0.00671951752156019,0.00946841109544039,-0.021685715764761
5,0.99583334084345,-0.150000007336368,0.220833347510754,0.00885754637420177,0.0103847095742822,-0.0186313893646002
5,1.00000001649321,-0.151388899219622,0.2194444556275,0.0210748501121998,0.00855211354792118,-0.0192422550171614
5,1.00000001649321,-0.154166670830166,0.223611131277262,0.0290160998702049,0.00671951752156019,-0.0146607663482428
5,0.99583334084345,-0.154166670830166,0.216666671860991,0.0403171069920063,0.00610865233466029,-0.0122173046693206
5,0.99583334084345,-0.154166670830166,0.224999998848587,0.0531452745199203,0.000305432622553781,-0.00733038317412138
5,0.994444448960196,-0.14722222356986,0.223611131277262,0.0699440687894821,0.011606439948082,-0.00122173049021512
5,0.993055557076942,-0.150000007336368,0.2194444556275,0.076052725315094,0.0027488935738802,0.00580321997404099
5,0.99583334084345,-0.154166670830166,0.223611131277262,0.0671951770782471,-0.00519235478714108,0.00427605677396059
5,0.993055557076942,-0.152777778946911,0.218055563744246,0.0739146918058395,-0.0027488935738802,0.00916297826915979
5,0.99583334084345,-0.156944454596674,0.2194444556275,0.0809396430850029,0.00183259579353034,-0.00183259579353034
5,0.998611124609959,-0.15555556271342,0.220833347510754,0.0949895456433296,0.0100792767480016,0.0021380283869803
5,1.00000001649321,-0.148611115453114,0.222222239394008,0.11606439948082,0.00397062394768,-0.0128281703218818
5,0.997222232726705,-0.152777778946911,0.223611131277262,0.125532805919647,-0.00122173049021512,-0.011606439948082
5,0.99583334084345,-0.154166670830166,0.220833347510754,0.138055548071861,0.00366519158706069,-0.00488692196086049
5,0.99583334084345,-0.156944454596674,0.212499996211229,0.153632611036301,0.00671951752156019,-0.000916297896765172
5,0.993055557076942,-0.14722222356986,0.218055563744246,0.156992360949516,0.00824668072164059,-0.00183259579353034
5,0.991666665193688,-0.14722222356986,0.230555566381603,0.149661988019943,0.0033597587607801,-0.00152716308366507
5,0.993055557076942,-0.144444451959316,0.229166674498349,0.145691365003586,0.00183259579353034,0.0021380283869803
5,0.990277773310434,-0.138888896582264,0.224999998848587,0.135001212358475,-0.00610865233466029,-0.000916297896765172
5,0.994444448960196,-0.138888896582264,0.223611131277262,0.12705996632576,-0.01191187184304,0.000610865245107561
5,1.00000001649321,-0.131944449321958,0.216666671860991,0.124311074614525,-0.00824668072164059,0.0161879286170006
5,1.00000001649321,-0.138888896582264,0.222222239394008,0.117286130785942,-0.000916297896765172,0.0164933614432812
5,0.99583334084345,-0.138888896582264,0.222222239394008,0.105068825185299,-0.000305432622553781,0.0177150927484035
5,0.98888888142718,-0.133333341205212,0.216666671860991,0.0901026204228401,-0.00702495034784079,0.00977384392172098
5,0.993055557076942,-0.130555557438704,0.212499996211229,0.0867428630590439,-0.0045814891345799,0.00641408516094089
5,0.99583334084345,-0.125000002061652,0.224999998848587,0.0641408488154411,-0.0109955742955208,0.00397062394768
5,0.997222232726705,-0.125000002061652,0.231944458264858,0.0485637858510017,-0.0109955742955208,0.00946841109544039
5,1.00000001649321,-0.125000002061652,0.230555566381603,0.0241291765123606,-0.0210748501121998,0.00824668072164059
5,1.00833336779274,-0.133333341205212,0.227777782615095,0.011606439948082,-0.00916297826915979,0.00305432616733015
5,1.00416669214298,-0.133333341205212,0.238888893369199,-0.00702495034784079,0.0134390350431204,0.00794124789535999
5,0.99583334084345,-0.12777778582816,0.223611131277262,-0.0226020142436027,0.00580321997404099,0.0305432621389627
5,0.997222232726705,-0.125000002061652,0.218055563744246,-0.0378736443817616,-0.00885754637420177,0.0189368221908808
5,1.00000001649321,-0.118055554801345,0.220833347510754,-0.0455094613134861,0.00855211354792118,0.0134390350431204
5,0.997222232726705,-0.120833338567854,0.230555566381603,-0.0558941699564457,0.00855211354792118,0.00763581553474069
5,0.993055557076942,-0.125000002061652,0.216666671860991,-0.0653625801205635,0.0033597587607801,0.013744467869401
5,0.998611124609959,-0.131944449321958,0.216666671860991,-0.0775798857212067,0.00733038317412138,0.0161879286170006
5,0.99583334084345,-0.131944449321958,0.216666671860991,-0.0809396430850029,0.00855211354792118,0.00641408516094089
5,0.99583334084345,-0.131944449321958,0.216666671860991,-0.0842994004487991,0.00885754637420177,0.0027488935738802
5,1.00000001649321,-0.136111112815755,0.227777782615095,-0.0797179117798805,0.01191187184304,0.00610865233466029
5,1.00277780025972,-0.14722222356986,0.215277779977737,-0.0879645943641663,0.00763581553474069,-0.00946841109544039
5,1.00277780025972,-0.148611115453114,0.218055563744246,-0.0873537287116051,0.00641408516094089,-0.00977384392172098
5,1.00000001649321,-0.148611115453114,0.206944452990142,-0.0766635909676552,0.00946841109544039,-0.0131336031481624
5,0.99583334084345,-0.150000007336368,0.216666671860991,-0.0681114718317986,0.00763581553474069,-0.01588249579072
5,0.993055557076942,-0.148611115453114,0.212499996211229,-0.0568104684352875,0.00427605677396059,-0.0103847095742822
5,0.994444448960196,-0.14722222356986,0.223611131277262,-0.0519235469400883,-0.0033597587607801,-0.00641408516094089
5,0.99583334084345,-0.148611115453114,0.213888888094483,-0.0470366254448891,0.000916297896765172,0.0033597587607801
5,0.997222232726705,-0.148611115453114,0.216666671860991,-0.0415388382971287,-0.0027488935738802,0.00549778714776039
5,0.997222232726705,-0.148611115453114,0.222222239394008,-0.0445931628346443,-0.000916297896765172,0.0128281703218818
5,0.99583334084345,-0.14583334384257,0.2194444556275,-0.0448985956609249,0.0033597587607801,0.013744467869401
5,0.994444448960196,-0.15555556271342,0.2194444556275,-0.0302378293126821,-0.00366519158706069,0.0259617734700441
5,0.998611124609959,-0.156944454596674,0.218055563744246,-0.0271835029125214,-0.0103847095742822,0.0232128798961639
5,0.998611124609959,-0.15555556271342,0.2194444556275,-0.0140499006956816,-0.00641408516094089,0.0277943685650826
5,0.994444448960196,-0.150000007336368,0.2194444556275,-0.0109955742955208,-0.011606439948082,0.0302378293126821
5,1.00138890837647,-0.154166670830166,0.2194444556275,-0.0027488935738802,-0.0164933614432812,0.03176499158144
5,0.997222232726705,-0.148611115453114,0.233333350148112,-0.0045814891345799,0.0021380283869803,0.0265726372599602
5,0.997222232726705,-0.14722222356986,0.226388890731841,-0.00152716308366507,-0.00855211354792118,0.02382374368608
5,1.00138890837647,-0.152777778946911,0.218055563744246,0.00183259579353034,-0.00183259579353034,0.0256563406437635
5,0.997222232726705,-0.15555556271342,0.2194444556275,0.00977384392172098,0.00305432616733015,0.01588249579072
5,0.99583334084345,-0.152777778946911,0.216666671860991,0.00977384392172098,-0.0045814891345799,0.0250454749912024
5,1.00000001649321,-0.14722222356986,0.218055563744246,0.019547687843442,0.00580321997404099,0.0305432621389627
5,1.00000001649321,-0.151388899219622,0.220833347510754,0.013744467869401,-0.00549778714776039,0.029626963660121
5,0.998611124609959,-0.14583334384257,0.223611131277262,0.0177150927484035,-0.00702495034784079,0.0259617734700441
5,1.00277780025972,-0.154166670830166,0.227777782615095,0.0131336031481624,-0.00946841109544039,0.027488935738802
5,0.997222232726705,-0.154166670830166,0.224999998848587,0.00824668072164059,-0.00763581553474069,0.0314595587551594
5,1.00000001649321,-0.154166670830166,0.229166674498349,0.00794124789535999,-0.00488692196086049,0.0348193198442459
5,1.00000001649321,-0.144444451959316,0.223611131277262,0.019547687843442,-0.0103847095742822,0.0332921557128429
5,1.00000001649321,-0.144444451959316,0.230555566381603,0.0140499006956816,-0.0033597587607801,0.0342084541916847
5,1.00000001649321,-0.151388899219622,0.231944458264858,0.0134390350431204,-0.00977384392172098,0.0143553335219622
5,1.00138890837647,-0.152777778946911,0.229166674498349,0.0106901414692402,0.00152716308366507,0.0192422550171614
5,1.00416669214298,-0.14583334384257,0.233333350148112,0.0045814891345799,0.000305432622553781,0.0210748501121998
5,0.997222232726705,-0.144444451959316,0.231944458264858,0.011606439948082,0.00488692196086049,0.0177150927484035
5,0.997222232726705,-0.144444451959316,0.231944458264858,0.00183259579353034,-0.000305432622553781,0.0167987942695618
5,1.00000001649321,-0.140277788465518,0.215277779977737,0.0027488935738802,-0.0106901414692402,0.0250454749912024
5,0.990277773310434,-0.144444451959316,0.223611131277262,0.00549778714776039,-0.00397062394768,0.02382374368608
5,1.00000001649321,-0.14583334384257,0.229166674498349,0.00885754637420177,-0.00427605677396059,0.0204639863222837
5,1.00000001649321,-0.14583334384257,0.229166674498349,0.00794124789535999,-0.01191187184304,0.0177150927484035
5,0.99583334084345,-0.150000007336368,0.220833347510754,0.00855211354792118,-0.00641408516094089,0.015577063895762
5,0.997222232726705,-0.144444451959316,0.223611131277262,0.0027488935738802,-0.00488692196086049,0.01191187184304
5,0.997222232726705,-0.144444451959316,0.223611131277262,-0.00397062394768,0.000305432622553781,0.0103847095742822
5,0.993055557076942,-0.144444451959316,0.222222239394008,-0.00183259579353034,-0.00855211354792118,0.00855211354792118
5,1.00138890837647,-0.14722222356986,0.230555566381603,-0.00519235478714108,-0.00152716308366507,0.000305432622553781
5,0.99583334084345,-0.154166670830166,0.233333350148112,0.0027488935738802,-0.00244346098043024,0.0033597587607801
5,0.993055557076942,-0.14722222356986,0.226388890731841,-0.00427605677396059,-0.00549778714776039,-0.00183259579353034
5,0.993055557076942,-0.150000007336368,0.226388890731841,-0.00641408516094089,0.000305432622553781,0.000305432622553781
5,0.99583334084345,-0.156944454596674,0.226388890731841,-0.0033597587607801,0.00397062394768,-0.0027488935738802
5,1.00138890837647,-0.156944454596674,0.212499996211229,-0.00641408516094089,0.0033597587607801,0.00794124789535999
5,0.99583334084345,-0.15555556271342,0.2194444556275,-0.00183259579353034,0.0033597587607801,-0.0045814891345799
5,0.991666665193688,-0.15555556271342,0.2194444556275,-0.0045814891345799,0.0021380283869803,-0.0134390350431204
5,0.993055557076942,-0.158333334323963,0.220833347510754,0.000916297896765172,-0.00397062394768,-0.0113010071218014
5,0.99583334084345,-0.161111118090472,0.216666671860991,-0.00397062394768,0.000610865245107561,-0.00610865233466029
5,0.99583334084345,-0.156944454596674,0.222222239394008,-0.00916297826915979,-0.00244346098043024,-0.0027488935738802
5,1.00277780025972,-0.163888889701015,0.216666671860991,-0.0033597587607801,0.00824668072164059,0.00122173049021512
5,1.00000001649321,-0.166666673467524,0.229166674498349,0.0186313893646002,0.0189368221908808,-0.00610865233466029
5,0.993055557076942,-0.162500009973726,0.2194444556275,0.0045814891345799,0.0146607663482428,-0.00519235478714108
5,0.990277773310434,-0.156944454596674,0.206944452990142,-0.00366519158706069,-0.000610865245107561,-0.00855211354792118
5,1.00000001649321,-0.154166670830166,0.211111128639904,-0.00855211354792118,-0.0045814891345799,0.000305432622553781
5,0.99583334084345,-0.161111118090472,0.222222239394008,-0.027488935738802,-0.00763581553474069,0.00671951752156019
5,0.99583334084345,-0.152777778946911,0.220833347510754,-0.0323758572340012,-0.000305432622553781,0.000610865245107561
5,1.00277780025972,-0.156944454596674,0.224999998848587,-0.021685715764761,0.00152716308366507,-0.00427605677396059
5,1.00000001649321,-0.163888889701015,0.216666671860991,-0.0277943685650826,0.0109955742955208,0.0189368221908808
5,0.994444448960196,-0.168055565350778,0.208333344873396,-0.0229074470698834,0.00702495034784079,0.0183259565383196
5,0.990277773310434,-0.161111118090472,0.200000005729836,-0.0210748501121998,0.000610865245107561,0.0247400421649218
5,0.994444448960196,-0.154166670830166,0.198611113846581,-0.0192422550171614,0.00183259579353034,0.0198531206697226
5,1.00000001649321,-0.15555556271342,0.20972223675665,-0.0180205255746841,0.0201585534960032,0.0045814891345799
5,1.00555558402623,-0.161111118090472,0.206944452990142,-0.0207694191485643,0.0210748501121998,0.00794124789535999
5,1.00694447590948,-0.16527778158427,0.198611113846581,-0.0177150927484035,0.0167987942695618,0.0100792767480016
5,1.00000001649321,-0.168055565350778,0.200000005729836,-0.0222965814173222,0.00610865233466029,0.0125227374956012
5,0.99583334084345,-0.16527778158427,0.208333344873396,0.0045814891345799,0.00152716308366507,0.015577063895762
5,0.993055557076942,-0.156944454596674,0.20972223675665,0.00305432616733015,0.000305432622553781,0.0106901414692402
5,1.00138890837647,-0.154166670830166,0.202777789496344,0.00580321997404099,0.0100792767480016,-0.000916297896765172
5,1.00555558402623,-0.156944454596674,0.200000005729836,-0.000916297896765172,0.0222965814173222,0.00641408516094089
5,1.00138890837647,-0.16527778158427,0.202777789496344,0.00702495034784079,0.0149661982432008,0.00824668072164059
5,1.00000001649321,-0.170833336961321,0.216666671860991,0.0189368221908808,0.0235183127224445,0.02382374368608
5,0.997222232726705,-0.170833336961321,0.205555561106887,0.029626963660121,0.011606439948082,0.02382374368608
5,0.997222232726705,-0.156944454596674,0.212499996211229,0.0390953756868839,0.0146607663482428,0.0201585534960032
5,0.993055557076942,-0.161111118090472,0.211111128639904,0.0390953756868839,0.0140499006956816,0.0134390350431204
5,0.997222232726705,-0.162500009973726,0.218055563744246,0.0433714315295219,0.00946841109544039,0.0149661982432008
5,0.993055557076942,-0.169444445078067,0.213888888094483,0.0403171069920063,0.0131336031481624,0.0128281703218818
5,0.997222232726705,-0.163888889701015,0.212499996211229,0.0479529201984406,0.00519235478714108,0.0280998013913631
5,0.99583334084345,-0.159722226207217,0.20972223675665,0.0363464802503586,0.0021380283869803,0.0397062413394451
5,0.998611124609959,-0.15555556271342,0.220833347510754,0.0241291765123606,0.0109955742955208,0.0403171069920063
5,0.98888888142718,-0.148611115453114,0.206944452990142,0.0332921557128429,0.00122173049021512,0.0284052342176437
5,0.99583334084345,-0.15555556271342,0.227777782615095,0.0229074470698834,-0.00183259579353034,0.00733038317412138
5,0.993055557076942,-0.166666673467524,0.223611131277262,0.0222965814173222,-0.0106901414692402,0.00549778714776039
5,0.98888888142718,-0.163888889701015,0.226388890731841,0.0161879286170006,-0.0100792767480016,-0.00183259579353034
5,0.994444448960196,-0.156944454596674,0.238888893369199,0.00794124789535999,-0.0171042270958424,-0.00488692196086049
5,0.99583334084345,-0.15555556271342,0.240277785252453,0.00427605677396059,-0.0131336031481624,-0.00488692196086049
5,0.993055557076942,-0.154166670830166,0.241666677135707,0.00610865233466029,-0.0103847095742822,-0.00488692196086049
5,0.993055557076942,-0.158333334323963,0.234722242031366,0.00122173049021512,-0.00488692196086049,-0.00549778714776039
5,1.00000001649321,-0.158333334323963,0.233333350148112,0.00244346098043024,0.00824668072164059,-0.0125227374956012
5,0.994444448960196,-0.166666673467524,0.226388890731841,0.000916297896765172,0.0134390350431204,-0.00916297826915979
5,0.99583334084345,-0.161111118090472,0.231944458264858,-0.00885754637420177,0.0146607663482428,-0.00946841109544039
5,0.993055557076942,-0.159722226207217,0.233333350148112,-0.00855211354792118,0.0143553335219622,-0.00763581553474069
5,0.993055557076942,-0.161111118090472,0.233333350148112,-0.0164933614432812,0.0113010071218014,-0.0164933614432812
5,0.990277773310434,-0.159722226207217,0.234722242031366,-0.0186313893646002,0.00397062394768,-0.0152716310694814
5,0.986111194908388,-0.156944454596674,0.226388890731841,-0.02382374368608,-0.00152716308366507,-0.00824668072164059
5,0.98888888142718,-0.162500009973726,0.237500001485945,-0.0335975885391235,0.00183259579353034,0.00305432616733015
5,0.983333411141879,-0.168055565350778,0.234722242031366,-0.0363464802503586,-0.000916297896765172,0.0033597587607801
5,0.990277773310434,-0.172222228844576,0.220833347510754,-0.0177150927484035,0.000305432622553781,0.00855211354792118
5,0.993055557076942,-0.176388892338373,0.233333350148112,-0.00977384392172098,-0.00244346098043024,0.0021380283869803
5,0.993055557076942,-0.170833336961321,0.229166674498349,-0.000305432622553781,0.000916297896765172,-0.00244346098043024
5,0.98888888142718,-0.169444445078067,0.229166674498349,0.000610865245107561,0.00152716308366507,-0.00183259579353034
5,0.98888888142718,-0.170833336961321,0.229166674498349,-0.000916297896765172,-0.00519235478714108,0.00305432616733015
5,0.98888888142718,-0.170833336961321,0.236111109602691,0.000610865245107561,-0.000305432622553781,-0.00366519158706069
5,0.994444448960196,-0.170833336961321,0.229166674498349,0.00152716308366507,-0.0106901414692402,-0.00183259579353034
5,0.998611124609959,-0.170833336961321,0.233333350148112,0.00977384392172098,-0.00610865233466029,-0.0021380283869803
5,0.993055557076942,-0.166666673467524,0.237500001485945,0.0106901414692402,-0.00641408516094089,-0.00671951752156019
5,0.990277773310434,-0.166666673467524,0.234722242031366,0.0180205255746841,-0.00885754637420177,0.0033597587607801
5,0.991666665193688,-0.172222228844576,0.237500001485945,0.0256563406437635,-0.00488692196086049,0.0021380283869803
5,0.991666665193688,-0.163888889701015,0.233333350148112,0.0222965814173222,-0.0125227374956012,0.0125227374956012
5,0.994444448960196,-0.162500009973726,0.230555566381603,0.0287106670439243,-0.0106901414692402,0.00488692196086049
5,0.99583334084345,-0.163888889701015,0.227777782615095,0.0180205255746841,0.000305432622553781,0.00733038317412138
5,0.997222232726705,-0.163888889701015,0.227777782615095,0.0189368221908808,0.0021380283869803,-0.00977384392172098
5,0.994444448960196,-0.158333334323963,0.229166674498349,0.0250454749912024,-0.00122173049021512,-0.0146607663482428
5,0.993055557076942,-0.156944454596674,0.223611131277262,0.0164933614432812,-0.000610865245107561,-0.0171042270958424
5,0.99583334084345,-0.15555556271342,0.224999998848587,0.00671951752156019,-0.00549778714776039,-0.0146607663482428
5,0.994444448960196,-0.152777778946911,0.226388890731841,0.00916297826915979,-0.00977384392172098,-0.00763581553474069
5,0.994444448960196,-0.148611115453114,0.222222239394008,0.00244346098043024,-0.00549778714776039,-0.0232128798961639
5,0.991666665193688,-0.14722222356986,0.224999998848587,0.00427605677396059,-0.00122173049021512,-0.0177150927484035
5,0.994444448960196,-0.14722222356986,0.218055563744246,-0.00794124789535999,-0.00183259579353034,-0.0222965814173222
5,0.99583334084345,-0.144444451959316,0.229166674498349,-0.0122173046693206,0.00366519158706069,-0.0323758572340012
5,0.997222232726705,-0.152777778946911,0.226388890731841,-0.017409659922123,0.00488692196086049,-0.0302378293126821
5,0.997222232726705,-0.150000007336368,0.223611131277262,-0.029626963660121,0.000305432622553781,-0.0332921557128429
5,0.997222232726705,-0.15555556271342,0.2194444556275,-0.0326812900602817,-0.00244346098043024,-0.0198531206697226
5,0.997222232726705,-0.150000007336368,0.222222239394008,-0.0427605658769607,0.00733038317412138,-0.0183259565383196
5,1.00138890837647,-0.150000007336368,0.218055563744246,-0.0479529201984406,0.00916297826915979,-0.0314595587551594
5,0.99583334084345,-0.159722226207217,0.211111128639904,-0.0445931628346443,0.00488692196086049,-0.0253509078174829
5,0.994444448960196,-0.161111118090472,0.216666671860991,-0.0406225398182869,0.00183259579353034,-0.0311541277915239
5,1.00000001649321,-0.161111118090472,0.216666671860991,-0.0339030213654041,0.00152716308366507,-0.0384845100343227
5,0.998611124609959,-0.159722226207217,0.222222239394008,-0.0265726372599602,0.000305432622553781,-0.0305432621389627
5,0.997222232726705,-0.154166670830166,0.2194444556275,-0.0229074470698834,-0.000305432622553781,-0.0311541277915239
5,0.99583334084345,-0.150000007336368,0.226388890731841,-0.0299323964864016,0.0021380283869803,-0.0397062413394451
5,1.00000001649321,-0.150000007336368,0.223611131277262,-0.0320704244077206,0.00488692196086049,-0.0387899428606033
5,0.997222232726705,-0.151388899219622,0.233333350148112,-0.0345138870179653,-0.0027488935738802,-0.0302378293126821
5,0.998611124609959,-0.154166670830166,0.233333350148112,-0.0250454749912024,0.0027488935738802,-0.029626963660121
5,1.00138890837647,-0.154166670830166,0.218055563744246,-0.0241291765123606,-0.00916297826915979,-0.0335975885391235
5,0.993055557076942,-0.156944454596674,0.2194444556275,-0.0180205255746841,-0.00122173049021512,-0.0320704244077206
5,0.99583334084345,-0.158333334323963,0.222222239394008,-0.00824668072164059,-0.00183259579353034,-0.0311541277915239
5,0.99583334084345,-0.158333334323963,0.222222239394008,-0.00977384392172098,-0.000916297896765172,-0.0326812900602817
5,0.990277773310434,-0.159722226207217,0.216666671860991,-0.00702495034784079,-0.00610865233466029,-0.02382374368608
5,0.99583334084345,-0.156944454596674,0.223611131277262,0.00488692196086049,-0.00702495034784079,-0.0262672062963247
5,0.99583334084345,-0.156944454596674,0.223611131277262,0.00763581553474069,-0.0131336031481624,-0.02382374368608
5,1.00138890837647,-0.156944454596674,0.226388890731841,0.00855211354792118,-0.00488692196086049,-0.0177150927484035
5,1.00138890837647,-0.159722226207217,0.212499996211229,0.00855211354792118,-0.00152716308366507,-0.0189368221908808
5,1.00138890837647,-0.159722226207217,0.212499996211229,0.0125227374956012,-0.00305432616733015,-0.01588249579072
5,1.00277780025972,-0.154166670830166,0.208333344873396,0.0103847095742822,-0.000610865245107561,-0.00244346098043024
5,0.997222232726705,-0.14722222356986,0.216666671860991,0.0125227374956012,-0.0033597587607801,-0.00733038317412138
5,0.997222232726705,-0.144444451959316,0.223611131277262,0.0106901414692402,-0.0106901414692402,-0.0100792767480016
5,0.997222232726705,-0.151388899219622,0.218055563744246,0.0021380283869803,-0.00763581553474069,-0.00397062394768
5,0.99583334084345,-0.143055560076062,0.212499996211229,0.0113010071218014,-0.00488692196086049,-0.0045814891345799
5,0.998611124609959,-0.14583334384257,0.212499996211229,0.00977384392172098,-0.00946841109544039,-0.00122173049021512
5,0.99583334084345,-0.14583334384257,0.20972223675665,0.00244346098043024,-0.00702495034784079,0.000610865245107561
5,1.00000001649321,-0.14722222356986,0.216666671860991,0.000610865245107561,0.000305432622553781,-0.00519235478714108
5,0.993055557076942,-0.144444451959316,0.2194444556275,-0.00519235478714108,-0.00397062394768,-0.00916297826915979
5,0.998611124609959,-0.138888896582264,0.212499996211229,-0.0103847095742822,-0.00152716308366507,0.00183259579353034
5,1.00416669214298,-0.140277788465518,0.204166669223633,-0.00916297826915979,0.0021380283869803,0.00152716308366507
5,0.993055557076942,-0.150000007336368,0.212499996211229,-0.00855211354792118,-0.00733038317412138,0.00794124789535999
5,0.99583334084345,-0.150000007336368,0.212499996211229,-0.0027488935738802,-0.0122173046693206,0.00733038317412138
5,0.99583334084345,-0.14722222356986,0.212499996211229,-0.00702495034784079,-0.01191187184304,-0.000610865245107561
5,1.00277780025972,-0.159722226207217,0.213888888094483,-0.0113010071218014,-0.00824668072164059,0.0027488935738802
5,1.00277780025972,-0.154166670830166,0.212499996211229,-0.00824668072164059,-0.00763581553474069,0.00366519158706069
5,1.00000001649321,-0.14722222356986,0.20972223675665,-0.00824668072164059,-0.00641408516094089,0.00366519158706069
5,0.998611124609959,-0.144444451959316,0.212499996211229,-0.0125227374956012,-0.00580321997404099,0.013744467869401
5,0.997222232726705,-0.14583334384257,0.211111128639904,-0.0100792767480016,-0.00763581553474069,0.0113010071218014
5,1.00000001649321,-0.148611115453114,0.20972223675665,-0.0134390350431204,-0.0103847095742822,0.00946841109544039
5,1.00277780025972,-0.152777778946911,0.204166669223633,-0.0198531206697226,-0.00702495034784079,0.0149661982432008
5,1.00277780025972,-0.15555556271342,0.206944452990142,-0.013744467869401,-0.0033597587607801,0.0204639863222837
5,1.00277780025972,-0.15555556271342,0.216666671860991,-0.00671951752156019,0.000610865245107561,0.0128281703218818
5,1.00138890837647,-0.156944454596674,0.216666671860991,0.0106901414692402,-0.00397062394768,0.00885754637420177
5,1.00000001649321,-0.150000007336368,0.213888888094483,0.015577063895762,-0.00794124789535999,0.00519235478714108
5,1.00277780025972,-0.150000007336368,0.215277779977737,0.00702495034784079,-0.00183259579353034,0.00946841109544039
5,1.00138890837647,-0.150000007336368,0.213888888094483,0.0128281703218818,0.00549778714776039,0.0100792767480016
5,1.00138890837647,-0.141666668192807,0.211111128639904,0.00305432616733015,0.00702495034784079,0.0113010071218014
5,1.00000001649321,-0.150000007336368,0.20972223675665,0.00244346098043024,0.00366519158706069,0.00763581553474069
5,0.997222232726705,-0.15555556271342,0.215277779977737,0.013744467869401,-0.0033597587607801,0.00549778714776039
5,0.99583334084345,-0.14722222356986,0.213888888094483,0.0113010071218014,-0.00610865233466029,0.0045814891345799
5,0.998611124609959,-0.14722222356986,0.218055563744246,0.019547687843442,-0.00305432616733015,0.000305432622553781
5,1.00000001649321,-0.14722222356986,0.213888888094483,0.0140499006956816,0.00427605677396059,0.00824668072164059
5,1.00138890837647,-0.144444451959316,0.213888888094483,0.01191187184304,0.00427605677396059,-0.0021380283869803
5,1.00138890837647,-0.144444451959316,0.216666671860991,0.00427605677396059,0.00733038317412138,-0.0021380283869803
5,1.00277780025972,-0.148611115453114,0.2194444556275,0.00152716308366507,0.0213802829384804,-0.0033597587607801
5,1.00000001649321,-0.15555556271342,0.220833347510754,-0.00183259579353034,0.00855211354792118,0.00671951752156019
5,0.99583334084345,-0.154166670830166,0.223611131277262,0.00855211354792118,-0.00244346098043024,0.0106901414692402
5,0.994444448960196,-0.152777778946911,0.216666671860991,0.0033597587607801,0.0033597587607801,0.00244346098043024
5,1.00000001649321,-0.151388899219622,0.2194444556275,0.000305432622553781,0.00183259579353034,-0.000610865245107561
5,0.998611124609959,-0.14722222356986,0.223611131277262,0.00641408516094089,0.0027488935738802,0.00610865233466029
5,0.99583334084345,-0.151388899219622,0.20972223675665,0.00397062394768,0.00122173049021512,0.00641408516094089
5,0.993055557076942,-0.150000007336368,0.215277779977737,0.00183259579353034,0.00733038317412138,0.0146607663482428
5,0.998611124609959,-0.152777778946911,0.212499996211229,0.00610865233466029,-0.000305432622553781,0.0177150927484035
5,0.998611124609959,-0.154166670830166,0.216666671860991,0.00305432616733015,0.00549778714776039,0.013744467869401
5,0.99583334084345,-0.152777778946911,0.20972223675665,0.0134390350431204,-0.00397062394768,0.00397062394768
5,1.00000001649321,-0.152777778946911,0.216666671860991,0.0109955742955208,0.00977384392172098,0.0033597587607801
5,0.998611124609959,-0.148611115453114,0.218055563744246,0.0122173046693206,0.00244346098043024,0.00427605677396059
5,1.00000001649321,-0.150000007336368,0.2194444556275,0.0103847095742822,0.00702495034784079,0.00916297826915979
5,1.00277780025972,-0.151388899219622,0.20972223675665,0.0128281703218818,-0.00183259579353034,0.0045814891345799
5,1.00277780025972,-0.156944454596674,0.213888888094483,0.0113010071218014,0.00397062394768,0.00610865233466029
5,0.99583334084345,-0.152777778946911,0.213888888094483,0.01191187184304,0.0027488935738802,0.00152716308366507
5,0.99583334084345,-0.152777778946911,0.2194444556275,0.0180205255746841,-0.00183259579353034,0.00519235478714108
5,0.997222232726705,-0.15555556271342,0.2194444556275,0.0229074470698834,0.00549778714776039,0.00519235478714108
5,0.994444448960196,-0.154166670830166,0.20972223675665,0.0268780700862408,0.00366519158706069,0.000916297896765172
5,0.99583334084345,-0.154166670830166,0.218055563744246,0.0229074470698834,0.00183259579353034,0.00152716308366507
5,0.99583334084345,-0.158333334323963,0.216666671860991,0.0219911485910416,0.000610865245107561,-0.00397062394768
5,0.99583334084345,-0.150000007336368,0.215277779977737,0.0189368221908808,0.00122173049021512,0.000916297896765172
5,0.99583334084345,-0.150000007336368,0.215277779977737,0.0219911485910416,-0.000916297896765172,0.00305432616733015
5,0.994444448960196,-0.150000007336368,0.216666671860991,0.019547687843442,-0.0027488935738802,0.00519235478714108
5,0.998611124609959,-0.154166670830166,0.2194444556275,0.0146607663482428,-0.00305432616733015,0.00733038317412138
5,0.99583334084345,-0.152777778946911,0.212499996211229,0.019547687843442,-0.0027488935738802,0.00580321997404099
5,1.00000001649321,-0.156944454596674,0.227777782615095,0.0192422550171614,0.000610865245107561,-0.0021380283869803
5,0.994444448960196,-0.15555556271342,0.208333344873396,0.0177150927484035,-0.00183259579353034,0.00794124789535999
5,0.997222232726705,-0.150000007336368,0.216666671860991,0.0171042270958424,-0.00702495034784079,0.00244346098043024
5,1.00000001649321,-0.148611115453114,0.2194444556275,0.0134390350431204,0.000305432622553781,0.0131336031481624
5,1.00000001649321,-0.14722222356986,0.215277779977737,0.0164933614432812,0.000305432622553781,0.0021380283869803
5,1.00555558402623,-0.150000007336368,0.2194444556275,0.0232128798961639,0.00305432616733015,0.00183259579353034
5,0.99583334084345,-0.144444451959316,0.229166674498349,0.0226020142436027,-0.00427605677396059,0.000916297896765172
5,0.994444448960196,-0.144444451959316,0.2194444556275,0.00824668072164059,0.00488692196086049,0.0045814891345799
5,0.99583334084345,-0.141666668192807,0.220833347510754,0.00519235478714108,0.0033597587607801,0.00916297826915979
5,0.99583334084345,-0.144444451959316,0.218055563744246,-0.00549778714776039,0.00519235478714108,-0.00305432616733015
5,1.00138890837647,-0.14583334384257,0.216666671860991,-0.00397062394768,-0.00183259579353034,-0.0033597587607801
5,1.00000001649321,-0.141666668192807,0.2194444556275,-0.0103847095742822,-0.0033597587607801,0.0021380283869803
5,0.998611124609959,-0.14583334384257,0.223611131277262,-0.0122173046693206,-0.00244346098043024,0.00244346098043024
5,1.00000001649321,-0.14583334384257,0.224999998848587,-0.01191187184304,-0.000610865245107561,-0.00580321997404099
5,1.00000001649321,-0.144444451959316,0.222222239394008,-0.0140499006956816,-0.0027488935738802,-0.00366519158706069
5,1.00000001649321,-0.14722222356986,0.213888888094483,-0.0140499006956816,0.00549778714776039,-0.00305432616733015
5,0.998611124609959,-0.144444451959316,0.212499996211229,-0.0186313893646002,0.000305432622553781,-0.0149661982432008
5,1.00138890837647,-0.14583334384257,0.218055563744246,-0.0171042270958424,-0.00397062394768,-0.0109955742955208
5,0.997222232726705,-0.14722222356986,0.213888888094483,-0.0210748501121998,0.00671951752156019,-0.0152716310694814
5,0.997222232726705,-0.150000007336368,0.216666671860991,-0.0210748501121998,0.00366519158706069,-0.0128281703218818
5,0.99583334084345,-0.144444451959316,0.2194444556275,-0.0201585534960032,0.00610865233466029,-0.0103847095742822
5,1.00000001649321,-0.150000007336368,0.2194444556275,-0.0152716310694814,0.00549778714776039,-0.011606439948082
5,1.00138890837647,-0.150000007336368,0.216666671860991,-0.0229074470698834,0.000305432622553781,-0.00671951752156019
5,0.997222232726705,-0.151388899219622,0.220833347510754,-0.0128281703218818,0.0021380283869803,-0.011606439948082
5,1.00000001649321,-0.152777778946911,0.218055563744246,-0.0146607663482428,0.0109955742955208,-0.00794124789535999
5,1.00000001649321,-0.14722222356986,0.212499996211229,-0.01588249579072,0.000610865245107561,-0.011606439948082
5,0.99583334084345,-0.150000007336368,0.220833347510754,-0.0183259565383196,-0.00183259579353034,-0.00305432616733015
5,0.998611124609959,-0.154166670830166,0.220833347510754,-0.0045814891345799,0.000610865245107561,-0.00580321997404099
5,0.998611124609959,-0.148611115453114,0.224999998848587,-0.00641408516094089,0.0045814891345799,-0.00671951752156019
5,0.99583334084345,-0.151388899219622,0.227777782615095,-0.00183259579353034,0.00366519158706069,-0.00702495034784079
5,0.99583334084345,-0.148611115453114,0.2194444556275,-0.000305432622553781,0.0045814891345799,0.00549778714776039
5,0.99583334084345,-0.144444451959316,0.213888888094483,0.00122173049021512,0.00610865233466029,-0.000305432622553781
5,1.00277780025972,-0.150000007336368,0.2194444556275,0.00397062394768,-0.00305432616733015,0.00702495034784079
5,0.99583334084345,-0.15555556271342,0.223611131277262,-0.00397062394768,0.0045814891345799,0.00946841109544039
5,0.997222232726705,-0.152777778946911,0.2194444556275,-0.00397062394768,-0.0033597587607801,0.0106901414692402
5,1.00138890837647,-0.154166670830166,0.216666671860991,0.00397062394768,0.00519235478714108,-0.000916297896765172
5,0.998611124609959,-0.144444451959316,0.218055563744246,0.00580321997404099,0.000610865245107561,-0.00122173049021512
5,0.994444448960196,-0.14722222356986,0.2194444556275,0.00946841109544039,0.000610865245107561,-0.000916297896765172
5,0.993055557076942,-0.141666668192807,0.215277779977737,0.0164933614432812,-0.0103847095742822,0.00244346098043024
5,0.997222232726705,-0.148611115453114,0.216666671860991,0.0152716310694814,-0.00641408516094089,0.00916297826915979
5,0.997222232726705,-0.14583334384257,0.212499996211229,0.0134390350431204,0.0021380283869803,0.00610865233466029
5,0.997222232726705,-0.14722222356986,0.218055563744246,0.00916297826915979,0.00366519158706069,0.00763581553474069
5,0.998611124609959,-0.144444451959316,0.218055563744246,0.00824668072164059,0.00183259579353034,0.01191187184304
5,0.998611124609959,-0.14722222356986,0.213888888094483,0.00702495034784079,-0.000305432622553781,-0.00244346098043024
5,0.99583334084345,-0.148611115453114,0.212499996211229,0.00641408516094089,0.000916297896765172,-0.000305432622553781
5,1.00138890837647,-0.152777778946911,0.223611131277262,0.01588249579072,0.00305432616733015,-0.000916297896765172
5,1.00138890837647,-0.150000007336368,0.226388890731841,0.0134390350431204,0.0146607663482428,0.00183259579353034
5,1.00000001649321,-0.148611115453114,0.218055563744246,0.00977384392172098,0.00305432616733015,-0.00610865233466029
5,0.99583334084345,-0.144444451959316,0.206944452990142,-0.0021380283869803,-0.00152716308366507,-0.00855211354792118
5,0.998611124609959,-0.143055560076062,0.20972223675665,0.00397062394768,0.00122173049021512,0.00366519158706069
5,0.997222232726705,-0.14722222356986,0.2194444556275,-0.0033597587607801,0.00641408516094089,0.000916297896765172
5,1.00000001649321,-0.148611115453114,0.224999998848587,-0.000916297896765172,-0.00641408516094089,0.00549778714776039
5,1.00000001649321,-0.14722222356986,0.208333344873396,-0.00305432616733015,-0.00244346098043024,0.00305432616733015
5,0.997222232726705,-0.138888896582264,0.218055563744246,-0.0033597587607801,0.0033597587607801,0.000916297896765172
5,0.997222232726705,-0.138888896582264,0.218055563744246,-0.00671951752156019,0.00610865233466029,0.00885754637420177
5,1.00000001649321,-0.150000007336368,0.2194444556275,-0.0027488935738802,0.00733038317412138,0.0021380283869803
5,1.00138890837647,-0.154166670830166,0.208333344873396,-0.00305432616733015,0.000305432622553781,0.0125227374956012
5,0.997222232726705,-0.152777778946911,0.212499996211229,-0.00794124789535999,0.0033597587607801,0.00733038317412138
5,1.00138890837647,-0.154166670830166,0.220833347510754,-0.00763581553474069,0.0027488935738802,0.00824668072164059
5,0.99583334084345,-0.150000007336368,0.216666671860991,-0.00824668072164059,0.0033597587607801,0.00152716308366507
5,1.00138890837647,-0.151388899219622,0.2194444556275,-0.0021380283869803,0.00702495034784079,-0.000610865245107561
5,0.998611124609959,-0.154166670830166,0.215277779977737,0.000305432622553781,0.00152716308366507,0.0021380283869803
5,0.997222232726705,-0.152777778946911,0.20972223675665,0.00397062394768,0.0045814891345799,0.0033597587607801
5,0.998611124609959,-0.14583334384257,0.208333344873396,-0.00305432616733015,0.000610865245107561,0.00977384392172098
5,0.99583334084345,-0.140277788465518,0.205555561106887,0.00183259579353034,0.00824668072164059,0.00549778714776039
5,0.998611124609959,-0.144444451959316,0.204166669223633,-0.00580321997404099,0.0033597587607801,0.0143553335219622
5,1.00000001649321,-0.14722222356986,0.2194444556275,0.0045814891345799,0.00641408516094089,0.00641408516094089
5,0.99583334084345,-0.156944454596674,0.216666671860991,0.00397062394768,-0.000305432622553781,0.00580321997404099
5,0.99583334084345,-0.152777778946911,0.215277779977737,0.0033597587607801,-0.000305432622553781,0.00671951752156019
5,1.00138890837647,-0.15555556271342,0.215277779977737,0.00946841109544039,0.00610865233466029,0.00580321997404099
5,0.997222232726705,-0.151388899219622,0.211111128639904,0.00885754637420177,-0.0045814891345799,0.00671951752156019
5,1.00416669214298,-0.151388899219622,0.220833347510754,0.0143553335219622,0.00244346098043024,0.0134390350431204
5,0.997222232726705,-0.15555556271342,0.233333350148112,0.0134390350431204,-0.00519235478714108,0.00733038317412138
5,0.998611124609959,-0.151388899219622,0.220833347510754,0.0167987942695618,0.00183259579353034,0.00152716308366507
5,0.99583334084345,-0.154166670830166,0.216666671860991,0.0210748501121998,0.00733038317412138,-0.00122173049021512
5,0.997222232726705,-0.154166670830166,0.216666671860991,0.0222965814173222,-0.00183259579353034,0.00763581553474069
5,0.998611124609959,-0.144444451959316,0.215277779977737,0.0192422550171614,0.00519235478714108,0.01191187184304
5,0.997222232726705,-0.144444451959316,0.216666671860991,0.0226020142436027,0.00580321997404099,0.00916297826915979
5,1.00138890837647,-0.144444451959316,0.212499996211229,0.0192422550171614,0.00122173049021512,0.0152716310694814
5,1.00138890837647,-0.150000007336368,0.220833347510754,0.0109955742955208,0.0033597587607801,0.015577063895762
5,0.997222232726705,-0.151388899219622,0.2194444556275,0.00977384392172098,0.0021380283869803,-0.000916297896765172
5,1.00000001649321,-0.14583334384257,0.2194444556275,0.0146607663482428,-0.000916297896765172,0.00641408516094089
5,0.993055557076942,-0.14722222356986,0.223611131277262,0.00946841109544039,0.00427605677396059,0.01191187184304
5,0.993055557076942,-0.144444451959316,0.218055563744246,0.00855211354792118,-0.00152716308366507,0.01191187184304
5,0.997222232726705,-0.148611115453114,0.211111128639904,0.0027488935738802,-0.000916297896765172,0.0146607663482428
5,0.99583334084345,-0.14722222356986,0.212499996211229,0.000610865245107561,0.00152716308366507,0.00794124789535999
5,0.99583334084345,-0.14722222356986,0.212499996211229,-0.0021380283869803,0.00427605677396059,0.0140499006956816
5,0.998611124609959,-0.143055560076062,0.213888888094483,0.000305432622553781,-0.000610865245107561,0.0140499006956816
5,0.998611124609959,-0.143055560076062,0.213888888094483,0.00122173049021512,0.00549778714776039,0.0027488935738802
5,1.00138890837647,-0.154166670830166,0.2194444556275,0.00366519158706069,0.00824668072164059,0.00488692196086049
5,1.00138890837647,-0.151388899219622,0.220833347510754,0.00549778714776039,0.00916297826915979,-0.000610865245107561
5,1.00138890837647,-0.151388899219622,0.220833347510754,0.00885754637420177,0.00916297826915979,-0.00305432616733015
5,0.99583334084345,-0.14722222356986,0.223611131277262,-0.000610865245107561,0.000305432622553781,-0.00122173049021512
5,1.00000001649321,-0.144444451959316,0.2194444556275,0.000610865245107561,0.00580321997404099,-0.00366519158706069
5,1.00000001649321,-0.144444451959316,0.2194444556275,-0.0027488935738802,0.0134390350431204,-0.000305432622553781
5,0.994444448960196,-0.14583334384257,0.220833347510754,-0.00519235478714108,0.00641408516094089,-0.00183259579353034
5,0.99583334084345,-0.14722222356986,0.212499996211229,-0.0027488935738802,0.00702495034784079,0.000305432622553781
5,0.99583334084345,-0.14722222356986,0.212499996211229,0.00488692196086049,0.00152716308366507,0.00366519158706069
