Activity,acc_x,acc_y,acc_z,gyro_x,gyro_y,gyro_z
0,0.0750000036681839,-0.161111118090472,0.986111194908388,0.00580321997404099,0.0922406539320946,0.05283984541893
0,0.0638888929140799,-0.169444445078067,0.973611167959101,-0.00519235478714108,0.0907134860754013,0.0473420582711697
0,0.0638888929140799,-0.162500009973726,0.976388951725609,0.00763581553474069,0.0901026204228401,0.00641408516094089
0,0.0652777787193518,-0.154166670830166,0.979166735492117,-0.00152716308366507,-0.000610865245107561,-0.021685715764761
0,0.0597222233422998,-0.154166670830166,0.969444492309338,0.00152716308366507,-0.0458148941397667,-0.0397062413394451
0,0.0652777787193518,-0.151388899219622,0.970833384192592,0.0290160998702049,0.0250454749912024,-0.0470366254448891
0,0.0680555564078778,-0.140277788465518,0.970833384192592,0.00916297826915979,-0.00641408516094089,-0.0302378293126821
0,0.0680555564078778,-0.140277788465518,0.970833384192592,-0.0045814891345799,-0.070249505341053,-0.0354301854968071
0,0.0708333340964038,-0.140277788465518,0.970833384192592,0.00733038317412138,-0.0329867228865623,-0.00671951752156019
0,0.0680555564078778,-0.140277788465518,0.973611167959101,-0.000610865245107561,0.00610865233466029,0.0192422550171614
0,0.0625000010308258,-0.141666668192807,0.96666670854283,0.0103847095742822,0.0507018156349659,0.0256563406437635
0,0.0597222233422998,-0.13750000469901,0.972222276075846,0.0268780700862408,0.0705549344420433,0.0219911485910416
0,0.0583333375370279,-0.13750000469901,0.975000059842355,0.0537561401724815,0.0339030213654041,0.0134390350431204
0,0.0652777787193518,-0.140277788465518,0.969444492309338,0.0531452745199203,0.0394008085131645,0.0146607663482428
0,0.0680555564078778,-0.141666668192807,0.991666665193688,0.0320704244077206,0.0641408488154411,0.0470366254448891
0,0.0638888929140799,-0.148611115453114,0.99583334084345,0.0143553335219622,0.0659734457731247,0.0717766657471657
0,0.0513888902767219,-0.150000007336368,0.990277773310434,0.00733038317412138,0.0244346093386412,0.0589484944939613
0,0.0513888902767219,-0.150000007336368,0.990277773310434,0.05283984541893,0.0839939713478088,0.027488935738802
0,0.0569444456537738,-0.144444451959316,1.00277780025972,0.0308486949652433,0.0861319974064827,-0.0250454749912024
0,0.0666666706026059,-0.14722222356986,0.987499989543926,-0.0546724386513233,-0.0219911485910416,-0.00549778714776039
0,0.0680555564078778,-0.150000007336368,0.983333411141879,-0.0794124826788902,0.000305432622553781,0.0198531206697226
0,0.0680555564078778,-0.150000007336368,0.983333411141879,-0.0366519130766392,0.00427605677396059,0.0467311926186085
0,0.0611111152255539,-0.151388899219622,0.979166735492117,0.00122173049021512,0.00305432616733015,0.0363464802503586
0,0.055555559848502,-0.150000007336368,0.993055557076942,0.00641408516094089,-0.0103847095742822,0.0277943685650826
0,0.055555559848502,-0.150000007336368,0.993055557076942,-0.0284052342176437,-0.0305432621389627,0.00916297826915979
0,0.055555559848502,-0.144444451959316,0.99583334084345,-0.0690277740359306,-0.0442877300083637,-0.00916297826915979
0,0.055555559848502,-0.154166670830166,0.983333411141879,-0.0882700309157372,-0.0827722400426865,-0.0198531206697226
0,0.055555559848502,-0.154166670830166,0.983333411141879,-0.0299323964864016,-0.0458148941397667,-0.00152716308366507
0,0.0611111152255539,-0.14722222356986,0.993055557076942,-0.00183259579353034,-0.0122173046693206,-0.0021380283869803
0,0.0611111152255539,-0.14722222356986,0.993055557076942,-0.00946841109544039,-0.0616973899304867,-0.0241291765123606
0,0.0583333375370279,-0.13750000469901,0.993055557076942,-0.0531452745199203,-0.102930791676045,-0.0467311926186085
0,0.0625000010308258,-0.133333341205212,0.980555627375371,-0.0549778714776039,-0.0531452745199203,-0.0400116741657257
0,0.0652777787193518,-0.134722233088466,0.980555627375371,-0.0412334054708481,-0.0720821022987366,-0.0113010071218014
0,0.0680555564078778,-0.140277788465518,0.970833384192592,-0.00977384392172098,-0.0473420582711697,0.0357356183230877
0,0.0722222259796579,-0.144444451959316,0.983333411141879,-0.00488692196086049,-0.0491746515035629,0.0748309940099716
0,0.0652777787193518,-0.143055560076062,0.983333411141879,-0.0403171069920063,-0.0415388382971287,0.0641408488154411
0,0.0625000010308258,-0.152777778946911,0.983333411141879,-0.0433714315295219,-0.0177150927484035,0.0488692186772823
0,0.0541666679652478,-0.152777778946911,0.979166735492117,-0.0299323964864016,-0.0455094613134861,0.0284052342176437
0,0.0513888902767219,-0.156944454596674,0.981944519258625,-0.0125227374956012,-0.0800233483314514,0.0390953756868839
0,0.0611111152255539,-0.163888889701015,0.965277816659576,-0.00610865233466029,-0.0320704244077206,0.0125227374956012
0,0.0583333375370279,-0.161111118090472,0.968055600426084,0.000610865245107561,0.019547687843442,0.0140499006956816
0,0.0638888929140799,-0.156944454596674,0.975000059842355,0.0146607663482428,-0.019547687843442,0.0207694191485643
0,0.0652777787193518,-0.159722226207217,0.983333411141879,-0.0177150927484035,-0.0219911485910416,0.0146607663482428
0,0.0750000036681839,-0.163888889701015,0.968055600426084,-0.0287106670439243,0.0277943685650826,0.00580321997404099
0,0.0763888894734557,-0.17361112072783,0.968055600426084,0.00427605677396059,0.0351247526705265,0.0390953756868839
0,0.0805555590452358,-0.168055565350778,0.976388951725609,0.0226020142436027,-0.0219911485910416,0.0561996027827263
0,0.0722222259796579,-0.170833336961321,0.979166735492117,0.00977384392172098,-0.0271835029125214,0.0280998013913631
0,0.0694444482911319,-0.161111118090472,0.993055557076942,-0.0183259565383196,0.0277943685650826,-0.00305432616733015
0,0.0722222259796579,-0.163888889701015,0.98888888142718,-0.0561996027827263,0.021685715764761,0.00794124789535999
0,0.0722222259796579,-0.154166670830166,0.980555627375371,-0.0671951770782471,-0.01191187184304,0.0232128798961639
0,0.0722222259796579,-0.161111118090472,0.969444492309338,-0.0308486949652433,-0.00183259579353034,0.0455094613134861
0,0.0750000036681839,-0.166666673467524,0.968055600426084,-0.000305432622553781,0.0045814891345799,0.0479529201984406
0,0.0666666706026059,-0.161111118090472,0.983333411141879,-0.0497855171561241,-0.00244346098043024,0.0424551330506802
0,0.0666666706026059,-0.156944454596674,0.980555627375371,-0.0934623852372169,-0.017409659922123,0.0213802829384804
0,0.0708333340964038,-0.156944454596674,0.96666670854283,-0.108123145997524,-0.0308486949652433,0.00610865233466029
0,0.0777777813567098,-0.16527778158427,0.969444492309338,-0.0565050356090069,-0.01588249579072,0.0109955742955208
0,0.0805555590452358,-0.163888889701015,0.969444492309338,-0.0201585534960032,-0.00671951752156019,0.0280998013913631
0,0.0819444448505077,-0.156944454596674,0.976388951725609,-0.0439822971820831,-0.00794124789535999,0.0311541277915239
0,0.0819444448505077,-0.156944454596674,0.976388951725609,-0.0687223374843597,0.000916297896765172,0.037568211555481
0,0.0777777813567098,-0.152777778946911,0.981944519258625,-0.136222943663597,-0.00763581553474069,0.0537561401724815
0,0.0777777813567098,-0.152777778946911,0.981944519258625,-0.146913096308708,-0.0455094613134861,0.0348193198442459
0,0.0694444482911319,-0.141666668192807,0.969444492309338,-0.155465200543404,-0.0656680166721344,-0.0256563406437635
0,0.0833333367337618,-0.144444451959316,0.951388897827035,-0.189062789082527,-0.0729983970522881,-0.0894917547702789
0,0.0833333367337618,-0.144444451959316,0.951388897827035,-0.170125976204872,-0.00824668072164059,-0.0558941699564457
0,0.111111119697004,-0.18333333959868,0.968055600426084,-0.0733038261532784,0.171958565711975,0.04764748737216
0,0.101388894748172,-0.184722231481934,0.986111194908388,0.0277943685650826,0.151800006628036,0.0928515195846558
0,0.101388894748172,-0.184722231481934,0.986111194908388,0.0125227374956012,0.0754418596625328,-0.03176499158144
0,0.0722222259796579,-0.188888894975731,0.994444448960196,-0.0149661982432008,0.0589484944939613,-0.19578230381012
0,0.0763888894734557,-0.193055558469529,0.980555627375371,-0.0033597587607801,0.0519235469400883,-0.276416510343552
0,0.111111119697004,-0.20972223675665,1.00000001649321,0.0632245540618896,-0.0271835029125214,-0.236404851078987
0,0.120833338567854,-0.211111128639904,0.98888888142718,0.0849102661013603,-0.0290160998702049,-0.136222943663597
0,0.112499999424294,-0.216666671860991,0.973611167959101,0.0427605658769607,0.0164933614432812,-0.0345138870179653
0,0.0861111144222878,-0.233333350148112,0.977777843608863,-0.0311541277915239,-0.000305432622553781,0.0284052342176437
0,0.0680555564078778,-0.24583335278547,0.975000059842355,-0.0488692186772823,0.0406225398182869,0.0708603709936142
0,0.03194444645704,-0.259722222994153,0.969444492309338,-0.0461203269660473,0.0613919571042061,0.0348193198442459
0,0.0236111118719664,-0.262500006760661,0.956944465360051,-0.0467311926186085,0.0574213340878487,-0.04764748737216
0,0.0222222230277034,-0.259722222994153,0.952777789710289,-0.0424551330506802,0.0522289797663689,-0.170736834406853
0,0.0347222241455659,-0.248611112240049,0.922222265526414,0.0152716310694814,0.078801617026329,-0.220827788114548
0,0.0430555572111439,-0.243055569018962,0.923611157409668,0.0824668109416962,0.0610865242779255,-0.230296194553375
0,0.0583333375370279,-0.222222239394008,0.927777833059431,0.143858760595322,0.0378736443817616,-0.206777885556221
0,0.0583333375370279,-0.222222239394008,0.927777833059431,0.164322748780251,0.015577063895762,-0.176845490932465
0,0.0666666706026059,-0.204166669223633,0.962500032893068,0.141415297985077,-0.0131336031481624,-0.146913096308708
0,0.0666666706026059,-0.204166669223633,0.962500032893068,0.120035022497177,-0.0189368221908808,-0.0919352173805237
0,0.0583333375370279,-0.197222234119292,0.963888924776322,0.125838235020638,0.107206851243973,-0.0369573459029198
0,0.0500000014324589,-0.206944452990142,0.968055600426084,0.159435823559761,0.15332718193531,-0.0122173046693206
0,0.0513888902767219,-0.211111128639904,0.976388951725609,0.13225232064724,0.0592539273202419,-0.0100792767480016
0,0.0500000014324589,-0.215277779977737,0.975000059842355,0.0971275717020035,0.0357356183230877,-0.0513126812875271
0,0.0416666683668809,-0.208333344873396,0.975000059842355,0.101709060370922,0.0717766657471657,-0.151189148426056
0,0.0569444456537738,-0.208333344873396,0.968055600426084,0.145080491900444,0.0525344125926495,-0.159435823559761
0,0.0722222259796579,-0.211111128639904,0.976388951725609,0.17470745742321,-0.0366519130766392,-0.0977384373545647
0,0.0763888894734557,-0.205555561106887,0.969444492309338,0.178678080439568,-0.0604756586253643,-0.0421497002243996
0,0.0736111117849297,-0.187500003092477,0.986111194908388,0.0943786799907684,-0.0326812900602817,-0.0781907513737679
0,0.0680555564078778,-0.156944454596674,0.99583334084345,0.0384845100343227,-0.017409659922123,-0.105068825185299
0,0.0750000036681839,-0.154166670830166,1.00277780025972,0.0332921557128429,0.0113010071218014,-0.0745255574584007
0,0.0750000036681839,-0.170833336961321,0.98888888142718,0.0616973899304867,-0.0326812900602817,-0.00763581553474069
0,0.0625000010308258,-0.169444445078067,0.983333411141879,0.0949895456433296,-0.0934623852372169,0.015577063895762
0,0.0458333348996699,-0.158333334323963,0.99583334084345,0.0827722400426865,-0.188451930880547,-0.0522289797663689
0,0.0513888902767219,-0.140277788465518,1.00000001649321,0.0106901414692402,-0.168293371796608,-0.141109868884087
0,0.0722222259796579,-0.136111112815755,0.981944519258625,-0.03176499158144,-0.102319926023483,-0.134084925055504
0,0.0722222259796579,-0.136111112815755,0.981944519258625,-0.0113010071218014,-0.101709060370922,-0.0516181141138077
0,0.0986111170596459,-0.140277788465518,0.959722249126559,0.0461203269660473,-0.157297804951668,0.0739146918058395
0,0.0972222251763917,-0.136111112815755,0.963888924776322,0.0827722400426865,-0.1750128865242,0.0901026204228401
0,0.0777777813567098,-0.116666675074056,0.979166735492117,0.0726929605007172,-0.17440202832222,0.0708603709936142
0,0.0680555564078778,-0.108333335930496,0.983333411141879,0.0280998013913631,-0.233961388468742,0.0222965814173222
0,0.0680555564078778,-0.104166672436698,0.990277773310434,-0.0705549344420433,-0.243735238909721,-0.00763581553474069
0,0.0847222225390337,-0.105555564319952,0.98888888142718,-0.122783914208412,-0.181121543049812,-0.00855211354792118
0,0.104166672436698,-0.111111119697004,0.993055557076942,-0.11087204515934,-0.129808858036995,-0.00763581553474069
0,0.115277783190802,-0.116666675074056,0.987499989543926,-0.0827722400426865,-0.0907134860754013,0.00702495034784079
0,0.118055554801345,-0.102777780553444,1.00000001649321,-0.114842668175697,-0.124616511166096,-0.00366519158706069
0,0.102777780553444,-0.0916666697993398,0.99583334084345,-0.202196389436722,-0.162490159273148,-0.058643065392971
0,0.106944444047242,-0.0750000036681839,1.00555558402623,-0.255647093057633,-0.106290549039841,-0.149356558918953
0,0.123611110178398,-0.0666666706026059,0.998611124609959,-0.224492982029915,-0.1750128865242,-0.228463605046272
0,0.130555557438704,-0.0611111152255539,1.00277780025972,-0.111482910811901,-0.368351757526398,-0.159741267561913
0,0.163888889701015,-0.0680555564078778,1.03194452980806,-0.0558941699564457,-0.355523586273193,-0.0574213340878487
0,0.168055565350778,-0.0652777787193518,1.0361111082101,-0.0244346093386412,-0.240680903196335,0.0821613743901253
0,0.15555556271342,-0.055555559848502,1.0513889189259,-0.0192422550171614,-0.138360977172852,0.15851953625679
0,0.133333341205212,-0.03194444645704,1.04861113515939,-0.0213802829384804,-0.28008171916008,0.123089343309402
0,0.12777778582816,-0.0125000003581147,1.02361117850853,-0.0406225398182869,-0.371406078338623,0.0864374339580536
0,0.131944449321958,-0.00972222266958873,0.993055557076942,-0.0665843114256859,-0.296880513429642,0.120035022497177
0,0.169444445078067,-0.0180555564949145,0.952777789710289,-0.00885754637420177,-0.239153742790222,0.281608879566193
0,0.187500003092477,-0.00138888893923146,0.973611167959101,0.153021737933159,-0.0207694191485643,0.51740288734436
0,0.322222236180943,0.0347222241455659,0.951388897827035,0.0971275717020035,-0.143858760595322,1.04702305793762
0,0.180555567988136,0.052777782159976,0.96666670854283,0.131030589342117,-0.363464832305908,1.05313169956207
0,0.125000002061652,0.0819444448505077,1.01111115155925,0.304821759462357,-0.0161879286170006,0.806036710739136
0,0.133333341205212,0.0750000036681839,1.01805561097552,0.331088960170746,-0.00244346098043024,0.760221779346466
0,0.208333344873396,0.00694444498106275,1.00277780025972,0.299934834241867,-0.367130011320114,0.942870497703552
0,0.218055563744246,0.00694444498106275,0.997222232726705,0.344527989625931,-0.559247136116028,1.24830317497253
0,0.216666671860991,0.00694444498106275,1.00277780025972,0.34941491484642,-0.653320372104645,1.38208258152008
0,0.197222234119292,0.0222222230277034,1.00972225967599,0.179288953542709,-0.710130870342255,1.38238799571991
0,0.211111128639904,0.0708333340964038,1.01527782720901,0.0467311926186085,-0.646295428276062,1.30541908740997
0,0.254166679773066,0.111111119697004,0.970833384192592,0.120340451598167,-0.473420560359955,1.16980695724487
0,0.275000009398019,0.0944444474878658,0.951388897827035,0.338113903999329,-0.423329621553421,1.12765729427338
0,0.283333336385615,0.0500000014324589,1.01527782720901,0.368962615728378,-0.0797179117798805,1.24769222736359
0,0.266666682410424,0.0416666683668809,0.952777789710289,0.318871647119522,-0.163406446576118,1.33168625831604
0,0.269444466176932,0.0458333348996699,0.926388941176177,0.44409903883934,-0.303600013256073,1.25990951061249
0,0.186111123365188,0.0819444448505077,0.930555616825939,0.622777104377747,-0.886670887470245,0.71471232175827
0,0.216666671860991,0.0930555616825939,0.962500032893068,0.808480143547058,-1.31397116184235,0.55069500207901
0,0.318055560531181,0.0250000007162294,0.984722303025134,0.841772317886353,-1.13040614128113,0.524122357368469
0,0.416666689746791,-0.030555557612777,0.99583334084345,0.681114733219147,-0.804204106330872,0.919046759605408
0,0.416666689746791,-0.030555557612777,0.99583334084345,0.503658413887024,-0.91996306180954,1.22447943687439
0,0.456944457113445,0.0347222241455659,0.936111184358955,0.381485342979431,-1.20096111297607,1.42362141609192
0,0.472222219205382,0.00555555575692586,0.958333357243305,0.550389587879181,-1.06107294559479,1.28923106193543
0,0.416666689746791,-0.026388891079988,1.00000001649321,0.578489363193512,-0.803898692131042,1.10688781738281
0,0.405555578992687,-0.0722222259796579,1.03750000009336,0.387288570404053,-0.711352586746216,0.965167105197906
0,0.481944462388161,-0.13750000469901,1.04166667574312,0.430965423583984,-0.631940066814423,0.937678158283234
0,0.486111138037923,-0.170833336961321,1.02500007039179,0.590706706047058,-0.653320372104645,0.909272909164429
0,0.430555559955475,-0.277777793164528,1.08194444310977,0.864374339580536,-1.2867876291275,0.981049597263336
0,0.406944470875941,-0.20972223675665,1.1708333291426,1.06290555000305,-2.15849232673645,0.808480143547058
0,0.327777779402031,-0.205555561106887,1.17638889667562,1.23944556713104,-2.14352607727051,0.630718350410461
0,0.341666673922643,-0.175000000455119,1.13611112930897,1.64047861099243,-0.979216992855072,0.251676470041275
0,0.366666679197359,-0.17361112072783,1.04722224327614,1.84023153781891,-0.410196006298065,0.151494577527046
0,0.351388892793493,-0.154166670830166,0.936111184358955,1.79288947582245,-0.276721954345703,0.078801617026329
0,0.312500017310094,-0.159722226207217,0.886111173809523,1.54854345321655,-0.401949346065521,0.0345138870179653
0,0.305555557893823,-0.170833336961321,0.86805557932722,1.26601827144623,-0.618806481361389,0.04764748737216
0,0.308333341660331,-0.148611115453114,0.787500044593913,0.685390830039978,-0.140193566679955,0.149356558918953
0,0.318055560531181,-0.12777778582816,0.706944461236748,0.197614908218384,0.19058994948864,0.251371055841446
0,0.340277782039389,-0.0833333367337618,0.637500012945616,-0.163101017475128,0.355523586273193,0.284357786178589
0,0.304166666010569,-0.0611111152255539,0.606944488761742,-0.609948933124542,0.113315500319004,0.535728812217712
0,0.380555573717971,-0.101388894748172,0.675000045169619,-0.797179162502289,-0.160046696662903,0.570548117160797
0,0.555555586329055,-0.156944454596674,0.736111142161226,-0.540004849433899,-0.0635299831628799,0.374460399150848
0,0.63888890482887,-0.186111123365188,0.751388904253164,-0.341473668813705,0.0348193198442459,0.266642689704895
0,0.608333332021137,-0.179166676104882,0.761111147435943,-0.190895393490791,0.0433714315295219,0.315206468105316
0,0.613888899554154,-0.156944454596674,0.748611120486655,-0.0314595587551594,0.194866016507149,0.234266817569733
0,0.613888899554154,-0.156944454596674,0.748611120486655,-0.11087204515934,0.151189148426056,0.115758962929249
0,0.570833348420992,-0.122222230451108,0.731944466511464,-0.180510684847832,-0.0430659987032413,0.0629191175103188
0,0.541666667496514,-0.113888891307548,0.791666671619817,-0.148134827613831,-0.547029852867126,0.2379320114851
0,0.611111115787646,-0.0722222259796579,0.800000022919342,-0.0815505087375641,-0.773355424404144,0.153632611036301
0,0.659722234453824,-0.0361111129898289,0.743055601577497,-0.262672066688538,-0.586736083030701,-0.0833831056952477
0,0.615277791437408,-0.00277777787846293,0.736111142161226,-0.362853944301605,-0.476169466972351,-0.157603234052658
0,0.509722251429385,0.0583333375370279,0.866666687443965,-0.123394779860973,-0.313068449497223,-0.0629191175103188
0,0.49444444071359,0.0708333340964038,0.905555562927365,0.114231802523136,-0.346971452236175,0.112399205565453
0,0.673611153286365,0.00694444498106275,0.894444525109048,0.273667633533478,-0.422413319349289,0.0723875313997269
0,0.643055580478633,0.0125000003581147,0.89722221162784,0.246178686618805,-0.569326400756836,0.0714712366461754
0,0.643055580478633,0.0125000003581147,0.89722221162784,0.248927593231201,-0.716544926166534,0.10567969083786
0,0.643055580478633,0.0125000003581147,0.89722221162784,0.407447129487991,-0.769995629787445,0.313984721899033
0,0.718055596302781,0.0388888906783549,1.01388893532575,0.446237057447434,-0.891557812690735,0.251371055841446
0,0.808333374218867,0.0250000007162294,0.905555562927365,0.367130011320114,-1.09925198554993,0.172263994812965
0,0.788888936477167,0.0236111118719664,0.863888903677457,0.194560587406159,-0.80298238992691,0.321620553731918
0,0.741666709694243,0.00555555575692586,0.843055622676362,0.219300627708435,-0.348498612642288,0.4544837474823
0,0.65833334257057,-0.00972222266958873,0.975000059842355,0.611476123332977,-0.196393176913261,0.562912344932556
0,0.648611148011649,-0.0194444453391775,1.04305556762637,0.932791233062744,-0.593761026859283,0.641408503055573
0,0.648611148011649,-0.0194444453391775,1.04305556762637,1.03480577468872,-0.651182353496552,0.578794836997986
0,0.706944461236748,0.151388899219622,0.948611114060526,0.920573949813843,-0.53817230463028,0.511294186115265
0,0.611111115787646,0.190277786858986,0.833333379493583,0.74464476108551,-0.589790403842926,0.412334054708481
0,0.611111115787646,0.190277786858986,0.833333379493583,0.510072469711304,-0.573297023773193,0.472198843955994
0,0.538888932353864,0.180555567988136,0.75000001236991,0.186313897371292,-1.00945484638214,0.386372268199921
0,0.58333337537028,0.0819444448505077,0.606944488761742,0.195171445608139,-0.441655576229096,0.554971098899841
0,0.541666667496514,0.0583333375370279,0.561111153862072,0.130725160241127,0.058643065392971,0.590706706047058
0,0.541666667496514,0.0583333375370279,0.561111153862072,-0.0287106670439243,-0.0763581544160843,0.511905074119568
0,0.548611126912784,0.0388888906783549,0.545833343146276,-0.0894917547702789,-0.325896620750427,0.380874484777451
0,0.565277780887976,0.03194444645704,0.548611126912784,-0.217468023300171,-0.502436637878418,0.326507478952408
0,0.5930555699292,0.0194444453391775,0.572222240304247,-0.21135938167572,-0.515264809131622,0.323147714138031
0,0.606944488761742,0.0194444453391775,0.588888894279438,-0.000305432622553781,-0.257174253463745,0.297491371631622
0,0.590277786162692,0.00277777787846293,0.577777807837263,0.159741267561913,-0.171958565711975,0.259006857872009
0,0.604166704995233,0.0125000003581147,0.587500002396184,0.155159771442413,-0.245567828416824,0.22204951941967
0,0.661111126337078,0.0208333341834404,0.598611137462217,-0.0757472887635231,-0.315206468105316,0.178678080439568
0,0.726388898978447,-0.0236111118719664,0.693055591028065,-0.0717766657471657,-0.202807262539864,0.114231802523136
0,0.676388937052873,-0.0444444460554069,0.720833380069289,0.138360977172852,-0.0354301854968071,0.0772744566202164
0,0.686111131611794,-0.0361111129898289,0.713888920653019,0.404698222875595,-0.0345138870179653,0.0198531206697226
0,0.697222266677827,-0.0361111129898289,0.666666693870094,0.298407673835754,-0.291688144207001,-0.0937678143382072
0,0.727777790861702,0.033333335301303,0.656944450687316,0.0241291765123606,-0.596815347671509,-0.215635433793068
0,0.801388914802596,0.0375000018340919,0.712500028769764,-0.216246291995048,-1.01953411102295,-0.397978693246841
0,0.825000028194058,-0.03194444645704,0.775000017644626,-0.553443908691406,-0.9056077003479,-0.284663200378418
0,0.87500003874349,-0.0680555564078778,0.709722245003256,-0.758083760738373,-0.519846320152283,-0.321620553731918
0,0.833333379493583,-0.0930555616825939,0.691666699144811,-0.699440717697144,-0.0998764708638191,-0.497549742460251
0,0.833333379493583,-0.0930555616825939,0.691666699144811,-0.413555771112442,0.165544480085373,-0.924239099025726
0,0.833333379493583,-0.0930555616825939,0.691666699144811,-0.277027398347855,0.30695977807045,-1.05526971817017
0,0.772222233878117,-0.12777778582816,0.89722221162784,-0.441655576229096,0.175623759627342,-0.944703102111816
0,0.71111113688651,-0.116666675074056,0.901388887277602,-0.621249973773956,-0.159435823559761,-0.824057221412659
0,0.694444482911319,-0.120833338567854,0.787500044593913,-0.807563841342926,0.0577267669141293,-0.779464066028595
0,0.702777785586986,-0.140277788465518,0.727777790861702,-0.816115975379944,0.265115529298782,-0.84116142988205
0,0.731944466511464,-0.131944449321958,0.755555579902926,-0.896750152111053,0.440433830022812,-0.891252398490906
0,0.673611153286365,-0.101388894748172,0.769444450111609,-1.00976026058197,0.572686195373535,-0.723264455795288
0,0.562499997121468,-0.0583333375370279,0.769444450111609,-0.927598893642426,0.300851136445999,-0.5555819272995
0,0.536111148587356,-0.0763888894734557,0.700000001820477,-0.684474527835846,0.420275300741196,-0.594066441059113
0,0.536111148587356,-0.0763888894734557,0.700000001820477,-0.623998820781708,0.544891774654388,-0.6294966340065
0,0.536111148587356,-0.0763888894734557,0.700000001820477,-0.946535706520081,0.0357356183230877,-0.732427418231964
0,0.536111148587356,-0.0763888894734557,0.700000001820477,-0.592233836650848,0.395229816436768,-0.553749322891235
0,0.6319444454126,-0.0708333340964038,0.572222240304247,-0.436157792806625,0.614225029945374,-0.350636661052704
0,0.6319444454126,-0.0708333340964038,0.572222240304247,-0.497855186462402,0.66584312915802,-0.284357786178589
0,0.663888910103586,-0.0486111125881959,0.644444472361887,-0.374765813350677,0.702495038509369,-0.25870144367218
0,0.661111126337078,-0.0375000018340919,0.690277807261557,-0.210137650370598,0.685696244239807,-0.324980318546295
0,0.661111126337078,-0.0375000018340919,0.690277807261557,-0.0708603709936142,0.623998820781708,-0.555887401103973
0,0.661111126337078,-0.0375000018340919,0.690277807261557,0.0888808965682983,0.666148543357849,-0.548862397670746
0,0.644444472361887,-0.0180555564949145,0.808333374218867,0.193644285202026,0.795346558094025,-0.468533635139465
0,0.647222256128395,-0.0194444453391775,0.826388920077312,0.35430184006691,0.744033873081207,-0.47097709774971
0,0.647222256128395,-0.00694444498106275,0.86805557932722,0.353385537862778,0.561385154724121,-0.419053554534912
0,0.601388921228725,0.0250000007162294,0.87500003874349,0.17989981174469,0.102014496922493,-0.255036234855652
0,0.598611137462217,0.0250000007162294,0.865277795560711,-0.0531452745199203,-0.145080491900444,-0.32253685593605
0,0.598611137462217,0.0250000007162294,0.865277795560711,-0.254730820655823,-0.452040284872055,-0.418748140335083
0,0.659722234453824,0.052777782159976,0.849999984844916,-0.152105450630188,-0.417220950126648,-0.424856781959534
0,0.737500034044481,0.108333335930496,0.848611190209378,-0.131336033344269,-0.350636661052704,-0.298407673835754
0,0.737500034044481,0.108333335930496,0.848611190209378,-0.0277943685650826,-0.282219737768173,-0.120340451598167
0,0.706944461236748,0.134722233088466,0.854166660494678,0.141109868884087,0.0943786799907684,0.0384845100343227
0,0.637500012945616,0.0986111170596459,0.959722249126559,0.300851136445999,-0.159435823559761,0.0284052342176437
0,0.630555602153203,0.0750000036681839,0.987499989543926,0.215940862894058,-0.331699818372726,-0.00763581553474069
0,0.640277796712124,0.0791666671619817,0.947222222177272,-0.0366519130766392,-0.117286130785942,0.08460483700037
0,0.634722229179108,0.0791666671619817,0.831944487610329,-0.268169850111008,0.435852348804474,0.221133217215538
0,0.581944483487025,0.0541666679652478,0.755555579902926,-0.30146199464798,0.738536059856415,0.139582708477974
0,0.576388915954009,0.0361111129898289,0.702777785586986,-0.348498612642288,1.01434171199799,0.176540061831474
0,0.558333370095563,0.0111111115138517,0.755555579902926,-0.402560204267502,0.570242702960968,0.403476506471634
0,0.538888932353864,-0.052777782159976,0.790277828360421,-0.567493796348572,-0.0280998013913631,0.368657171726227
0,0.579166699720517,-0.0250000007162294,0.929166724942685,-0.733343720436096,0.215330004692078,0.0412334054708481
0,0.56666667277123,-0.0250000007162294,1.00277780025972,-0.72906768321991,0.454789161682129,-0.176234617829323
0,0.477777786738398,-0.0361111129898289,0.962500032893068,-0.494800835847855,0.735787212848663,-0.340862810611725
0,0.459722240879953,-0.0458333348996699,0.884722281926269,-0.271224170923233,0.485943287611008,-0.522900640964508
0,0.49166670557094,-0.0472222237439329,0.781944477060896,0.0149661982432008,0.242208063602448,-0.548251569271088
0,0.500000008246606,-0.0500000014324589,0.769444450111609,0.241291776299477,0.239153742790222,-0.549473285675049
0,0.502777792013115,0.00555555575692586,0.781944477060896,0.336892187595367,0.22724187374115,-0.520151734352112
0,0.497222224480098,0.0388888906783549,0.780555585177642,0.222660377621651,0.0507018156349659,-0.553749322891235
0,0.512500035195893,0.0472222237439329,0.759722255552688,-0.0714712366461754,-0.0241291765123606,-0.544891774654388
0,0.509722251429385,0.0375000018340919,0.772222233878117,-0.337503045797348,-0.399811297655106,-0.523206055164337
0,0.493055597454194,0.0444444460554069,0.863888903677457,-0.358272463083267,-0.376293003559113,-0.270307868719101
0,0.516666662221798,0.052777782159976,0.854166660494678,-0.502436637878418,-0.0830776765942574,-0.178678080439568
0,0.525000013521323,0.0666666706026059,0.798611131036088,-0.694859206676483,0.00733038317412138,-0.288022965192795
0,0.538888932353864,0.0569444456537738,0.765277823085705,-0.832914769649506,0.00702495034784079,-0.501214921474457
0,0.541666667496514,0.0625000010308258,0.808333374218867,-0.761138081550598,-0.373238652944565,-0.546418964862823
0,0.54722223502953,0.0902777839940679,0.827777811960566,-0.764803290367126,-0.42852196097374,-0.4914411008358
0,0.594444461812454,0.0777777813567098,0.841666730793107,-0.64385199546814,-0.134390354156494,-0.426383942365646
0,0.594444461812454,0.0750000036681839,0.894444525109048,-0.367130011320114,-0.215330004692078,-0.477696627378464
0,0.58611111051293,0.0666666706026059,0.940277860008718,-0.191811680793762,-0.345749735832214,-0.571769893169403
0,0.588888894279438,0.0416666683668809,0.922222265526414,-0.11117747426033,-0.26419922709465,-0.715628623962402
0,0.575000024070755,0.0416666683668809,0.837500055143345,-0.158824965357781,-0.119118720293045,-0.737314343452454
0,0.552777802562547,-0.0152777788063885,0.73055557462821,-0.353080123662949,0.138055548071861,-0.642935693264008
0,0.534722256704101,-0.00694444498106275,0.712500028769764,-0.470366239547729,0.261450320482254,-0.472809702157974
0,0.545833343146276,-0.0125000003581147,0.75694447178618,-0.495717138051987,0.256563395261765,-0.335670441389084
0,0.562499997121468,-0.0111111115138517,0.801388914802596,-0.421191573143005,0.16951510310173,-0.344222575426102
0,0.562499997121468,-0.0180555564949145,0.913888914226889,-0.369573473930359,-0.0491746515035629,-0.336281329393387
0,0.529166689171085,-0.033333335301303,0.873611146860236,-0.373238652944565,-0.0164933614432812,-0.307265222072601
0,0.516666662221798,-0.0388888906783549,0.844444514559616,-0.323147714138031,0.344833433628082,-0.313679307699203
0,0.505555575779623,-0.0625000010308258,0.793055563503071,-0.191811680793762,0.471587955951691,-0.331699818372726
0,0.525000013521323,-0.0611111152255539,0.790277828360421,-0.0565050356090069,0.416915535926819,-0.354607284069061
0,0.551388910679293,-0.0583333375370279,0.825000028194058,-0.0390953756868839,0.388204872608185,-0.28496864438057
0,0.575000024070755,-0.0513888902767219,0.854166660494678,-0.0598647929728031,0.293826192617416,-0.342084527015686
0,0.536111148587356,-0.0388888906783549,0.876388930626744,-0.0897971913218498,0.130114302039146,-0.363770246505737
0,0.529166689171085,-0.026388891079988,0.877777822509998,-0.0262672062963247,0.116675265133381,-0.27000242471695
0,0.572222240304247,-0.0222222230277034,0.87500003874349,0.0855211317539215,0.172569438815117,-0.122478485107422
0,0.600000029345471,-0.0194444453391775,0.855555552377932,0.106595985591412,0.191200822591782,-0.0259617734700441
0,0.594444461812454,-0.0111111115138517,0.840277838909853,0.111788339912891,0.143858760595322,0.01191187184304
0,0.594444461812454,-0.0111111115138517,0.840277838909853,0.142637029290199,0.218384325504303,0.0772744566202164
0,0.594444461812454,-0.0111111115138517,0.840277838909853,0.251981914043427,0.257785141468048,0.16401731967926
0,0.591666678045946,0.00138888893923146,0.826388920077312,0.44348818063736,0.608727216720581,0.281914323568344
0,0.483333354271415,0.0625000010308258,0.877777822509998,0.603840291500092,0.958752989768982,-0.376598417758942
0,0.495833332596844,0.0944444474878658,0.927777833059431,0.400422155857086,0.484110713005066,-0.0186313893646002
0,0.584722267253534,0.0972222251763917,0.940277860008718,0.0189368221908808,0.110261179506779,0.219911485910416
0,0.58333337537028,0.0777777813567098,0.930555616825939,-0.0540615729987621,-0.0027488935738802,0.408974289894104
0,0.544444451263022,0.0791666671619817,0.936111184358955,-0.0641408488154411,-0.125227376818657,0.526260435581207
0,0.462500024646461,0.0583333375370279,0.93750007624221,-0.115453533828259,0.0736092627048492,0.442877292633057
0,0.452777781463682,0.0930555616825939,0.931944508709193,0.00427605677396059,-0.163406446576118,0.761443555355072
0,0.443055586904762,0.0111111115138517,0.815277785011279,0.27458393573761,0.509767055511475,0.726624190807343
0,0.487500029921177,0.0166666676506515,0.82916670384382,0.452956587076187,0.331088960170746,0.515264809131622
0,0.522222229754814,0.0486111125881959,0.862500011794203,0.491135656833649,0.0189368221908808,0.299018532037735
0,0.58333337537028,0.033333335301303,0.901388887277602,0.493884563446045,-0.124616511166096,0.262366622686386
0,0.630555602153203,-0.0152777788063885,0.912500022343635,0.644462823867798,-0.268475264310837,-0.161268427968025
0,0.630555602153203,-0.0152777788063885,0.912500022343635,0.492662817239761,0.258395999670029,-0.277027398347855
0,0.368055571080613,0.108333335930496,0.858333336144441,0.392480909824371,0.149967417120934,-0.0745255574584007
0,0.33750002258481,0.0986111170596459,0.844444514559616,0.351552963256836,-0.149661988019943,0.160352125763893
0,0.358333352209763,0.0902777839940679,0.827777811960566,0.284663200378418,-0.189979091286659,0.378736466169357
0,0.358333352209763,0.0902777839940679,0.827777811960566,0.218995183706284,-0.292909890413284,0.387288570404053
0,0.591666678045946,0.0875000002275597,0.877777822509998,0.413250327110291,-0.609948933124542,0.427605658769607
0,0.52083333787156,0.0875000002275597,0.833333379493583,0.313679307699203,-0.541532039642334,0.624304294586182
0,0.519444445988306,0.106944444047242,0.801388914802596,0.141109868884087,-0.328645497560501,0.594066441059113
0,0.519444445988306,0.106944444047242,0.801388914802596,0.142331600189209,-0.218384325504303,0.430354565382004
0,0.563888889004722,0.0652777787193518,0.786111152710659,0.194560587406159,-0.0891863256692886,0.259006857872009
0,0.563888889004722,0.0652777787193518,0.786111152710659,0.297185927629471,-0.0189368221908808,0.183870434761047
0,0.522222229754814,0.108333335930496,0.800000022919342,0.193033412098885,0.0302378293126821,0.26419922709465
0,0.488888921804431,0.138888896582264,0.815277785011279,0.096211276948452,-0.0229074470698834,0.32284227013588
0,0.488888921804431,0.138888896582264,0.815277785011279,0.0925460830330849,-0.064446285367012,0.474031418561935
0,0.522222229754814,0.111111119697004,0.788888936477167,0.188757359981537,-0.0925460830330849,0.396451532840729
0,0.588888894279438,0.0763888894734557,0.773611125761372,0.250149309635162,-0.102319926023483,0.308486938476563
0,0.587500002396184,0.0611111152255539,0.788888936477167,0.268475264310837,-0.0882700309157372,0.245262399315834
0,0.616666683320662,0.0652777787193518,0.823611136310804,0.242208063602448,-0.0855211317539215,0.165849909186363
0,0.608333332021137,0.0875000002275597,0.841666730793107,0.22693644464016,-0.160962998867035,0.209526777267456
0,0.613888899554154,0.055555559848502,0.813888941751883,0.200974673032761,-0.152105450630188,0.204028993844986
0,0.634722229179108,0.0472222237439329,0.755555579902926,0.117896988987923,0.0873537287116051,0.104457959532738
0,0.6319444454126,0.0402777795226179,0.736111142161226,0.299323976039886,0.0916297882795334,0.161879286170006
0,0.630555602153203,0.0986111170596459,0.843055622676362,0.561385154724121,-0.0464257597923279,0.216246291995048
0,0.580555591603771,0.0986111170596459,0.840277838909853,0.452040284872055,-0.719904720783234,0.884838283061981
0,0.397222227693163,0.166666673467524,0.755555579902926,-0.0907134860754013,-1.11543989181519,1.5378532409668
0,0.438888911254999,0.152777778946911,0.652777823661411,-0.0873537287116051,-1.12521374225616,1.77150917053223
0,0.611111115787646,0.130555557438704,0.763888931202451,0.394924372434616,-0.87720251083374,1.49173295497894
0,0.666666693870094,0.0597222233422998,0.775000017644626,0.865596055984497,-0.983187615871429,1.62490153312683
0,0.581944483487025,0.0986111170596459,0.791666671619817,1.01983952522278,-1.40804433822632,2.0912971496582
0,0.575000024070755,0.0875000002275597,0.766666714968959,1.0833694934845,-1.85305976867676,2.46667385101318
0,0.748611120486655,0.0125000003581147,0.823611136310804,1.37994456291199,-2.03601384162903,2.14444255828857
0,0.888888957576031,-0.0736111117849297,0.80277780668585,1.5412130355835,-1.72783231735229,1.59252572059631
0,0.879166714393253,-0.0361111129898289,0.661111126337078,1.33779489994049,-1.33168625831604,1.46241140365601
0,0.808333374218867,-0.0416666683668809,0.554166694445801,0.324674874544144,0.107817716896534,1.07726085186005
0,0.973611167959101,-0.156944454596674,0.308333341660331,-0.441960990428925,0.584598064422607,0.600175082683563
0,0.870833363093728,-0.101388894748172,0.591666678045946,-0.35979962348938,0.0897971913218498,0.766635894775391
0,0.815277785011279,-0.0583333375370279,0.801388914802596,0.01588249579072,-0.345749735832214,0.688139677047729
0,0.805555590452358,-0.0805555590452358,0.87500003874349,0.533896207809448,-0.698524415493011,0.564439475536346
0,0.77638890952788,-0.0819444448505077,0.723611115211939,0.488692194223404,-0.841466903686523,0.72906768321991
0,0.687500023495048,-0.0597222233422998,0.611111115787646,0.368657171726227,-1.12277030944824,1.22631192207336
0,0.691666699144811,-0.0972222251763917,0.559722261978817,0.324674874544144,-1.49295461177826,1.60474300384522
0,0.813888941751883,-0.144444451959316,0.602777813111979,0.535117983818054,-1.55495750904083,1.29320168495178
0,0.854166660494678,-0.1194444466846,0.625000034620187,0.769079327583313,-1.31244397163391,0.96883225440979
0,0.962500032893068,-0.125000002061652,0.548611126912784,0.832914769649506,-1.12765729427338,0.720515549182892
0,0.994444448960196,-0.250000004123303,0.500000008246606,0.871704697608948,-1.26632368564606,0.507018148899078
0,0.976388951725609,-0.251388896006557,0.468055592179478,0.935845553874969,-1.92819619178772,0.613614141941071
0,0.861111119910949,-0.141666668192807,0.406944470875941,1.04793930053711,-2.5680775642395,0.400727599859238
0,0.825000028194058,-0.115277783190802,0.472222219205382,1.59985601902008,-2.75286412239075,0.217468023300171
0,0.886111173809523,-0.141666668192807,0.358333352209763,1.67407619953155,-2.91382718086243,0.684169054031372
0,0.962500032893068,-0.208333344873396,0.275000009398019,1.72325086593628,-3.09158897399902,1.26662909984589
0,0.972222276075846,-0.276388901281273,0.338888890156135,1.87291288375854,-2.69941353797913,1.81610238552094
0,0.933333400592447,-0.229166674498349,0.286111120152123,1.0989465713501,-2.50271487236023,2.66887021064758
0,0.977777843608863,-0.163888889701015,0.136111112815755,0.145385921001434,-3.77362012863159,2.40864157676697
0,1.02083339474202,-0.0652777787193518,0.12916666555545,0.17409659922123,-3.97795438766479,1.89856922626495
0,0.890277849459286,-0.0861111144222878,0.231944458264858,0.479223787784576,-2.92512822151184,1.56809103488922
0,0.815277785011279,-0.250000004123303,0.300000014672736,0.833831071853638,-0.731511116027832,1.3322970867157
0,0.797222239152834,-0.20972223675665,0.141666668192807,0.703411340713501,-0.0406225398182869,0.850629866123199
0,0.811111157985375,-0.251388896006557,0.00277777787846293,0.722959041595459,-0.867428660392761,0.413250327110291
0,0.958333357243305,-0.343055565805897,-0.026388891079988,0.711963415145874,-1.93002879619598,0.362243086099625
0,1.06250005399193,-0.344444457689151,0.00694444498106275,0.391564607620239,-2.56013631820679,0.315206468105316
0,1.23333336664132,-0.434722235605237,0.163888889701015,-0.920879364013672,-1.34359812736511,0.308792382478714
0,1.10416671324184,-0.398611119576417,-0.0194444453391775,-1.09619772434235,-1.91261911392212,0.379958182573318
0,0.959722249126559,-0.29166668768514,0.0861111144222878,0.326507478952408,0.10567969083786,0.0726929605007172
0,0.683333347845286,-0.231944458264858,-0.111111119697004,0.521984338760376,0.0311541277915239,-0.0696386396884918
0,0.763888931202451,-0.144444451959316,-0.13750000469901,0.408363401889801,-0.181426972150803,-0.813672482967377
0,0.95000000594378,-0.262500006760661,-0.0722222259796579,0.152105450630188,0.295047909021378,-0.572380721569061
0,1.13194445365921,-0.279166685047782,-0.0847222225390337,-0.273667633533478,-0.0268780700862408,-1.02350473403931
0,1.41666670624,-0.341666673922643,-0.15555556271342,-0.590401232242584,-0.276416510343552,-0.767552196979523
0,0.697222266677827,-0.216666671860991,-0.247222220356795,-0.77640974521637,-1.2901474237442,0.409890592098236
0,0.905555562927365,-0.275000009398019,-0.215277779977737,0.506101846694946,-0.456010907888412,-0.191506251692772
0,0.95000000594378,-0.305555557893823,-0.17361112072783,0.405309081077576,-0.675311505794525,-0.277638256549835
0,0.95000000594378,-0.305555557893823,-0.17361112072783,-0.0253509078174829,-1.00609505176544,-0.356439858675003
0,1.1236111996074,-0.308333341660331,-0.140277788465518,-0.576351344585419,-1.08978354930878,-0.31703907251358
0,0.908333346693873,-0.205555561106887,-0.186111123365188,-1.55434656143188,-1.6557502746582,-0.147523954510689
0,0.786111152710659,-0.229166674498349,-0.190277786858986,-1.74860179424286,-1.95660138130188,-0.0244346093386412
0,0.811111157985375,-0.477777786738398,-0.166666673467524,0.681420207023621,-0.92943149805069,1.66094255447388
0,0.786111152710659,-0.384722225055805,-0.144444451959316,1.71103358268738,0.401033043861389,1.39368903636932
0,0.838888947026599,-0.384722225055805,-0.398611119576417,-0.984409332275391,-0.717461228370667,0.344527989625931
0,1.00833336779274,-0.559722261978817,-0.420833365396554,-0.15851953625679,-0.216246291995048,0.686001658439636
0,1.30555564732282,-0.469444484062732,-0.480555570504907,0.0345138870179653,0.410196006298065,0.463952153921127
0,1.12638888612619,-0.466666700296224,-0.469444484062732,0.0140499006956816,1.02106130123138,0.00885754637420177
0,1.06111116210868,-0.447222262554524,-0.444444478788016,0.395840674638748,1.39643800258636,0.0305432621389627
0,0.969444492309338,-0.461111132763207,-0.315277801076602,0.275805652141571,1.57419979572296,-0.182954147458077
0,0.901388887277602,-0.286111120152123,-0.272222225631511,0.450818538665771,1.85183799266815,0.0745255574584007
0,0.944444438410764,-0.344444457689151,-0.212499996211229,0.379347324371338,1.40926611423492,0.313679307699203
0,0.916666697993398,-0.437500019371745,-0.100000002864918,0.0360410511493683,0.56657749414444,-0.0806342139840126
0,0.84583340644287,-0.459722240879953,-0.0500000014324589,-0.220522359013557,0.0467311926186085,-0.490830212831497
0,0.820833352544296,-0.431944451838729,-0.100000002864918,-0.390037447214127,0.0458148941397667,-1.21592724323273
0,0.777777801411134,-0.365277787314105,-0.17361112072783,-0.326202034950256,0.509461641311646,-1.01037108898163
0,0.848611190209378,-0.318055560531181,-0.229166674498349,-0.293215304613113,1.2122620344162,-1.13956916332245
0,0.95000000594378,-0.295833339022973,-0.2194444556275,-0.145691365003586,1.38971841335297,-1.11330187320709
0,1.13055556177595,-0.363888895430851,-0.134722233088466,-0.171653136610985,0.756251156330109,-0.614225029945374
0,1.00972225967599,-0.330555563168539,-0.0444444460554069,-0.216246291995048,0.124616511166096,-0.808174729347229
0,0.890277849459286,-0.24583335278547,-0.0250000007162294,-0.134695783257484,-0.137139245867729,-1.07023596763611
0,0.948611114060526,-0.261111114877407,-0.0388888906783549,-0.0610865242779255,-0.118202425539494,-0.777326047420502
0,1.03472221632685,-0.250000004123303,-0.0944444474878658,0.05283984541893,-0.228769034147263,-0.691193997859955
0,0.89722221162784,-0.229166674498349,-0.0875000002275597,-0.037568211555481,-0.467006474733353,-1.05893492698669
0,1.00000001649321,-0.297222230906227,-0.052777782159976,-0.0653625801205635,-0.980133295059204,-1.27670836448669
0,1.07777786470773,-0.195833342236038,-0.230555566381603,0.108428582549095,-0.152716308832169,-0.551000475883484
0,1.10000003759208,-0.190277786858986,-0.227777782615095,0.197920337319374,0.211664810776711,-0.507018148899078
0,1.0125000434425,-0.169444445078067,-0.200000005729836,-0.015577063895762,0.133168622851372,-0.858876526355743
0,1.01388893532575,-0.0125000003581147,-0.18333333959868,0.00610865233466029,0.424856781959534,0.217468023300171
0,1.00138890837647,-0.134722233088466,-0.0986111170596459,0.0229074470698834,0.107817716896534,0.34391713142395
0,1.00416669214298,-0.16527778158427,-0.0875000002275597,0.0522289797663689,-0.0323758572340012,0.394008070230484
0,0.926388941176177,-0.158333334323963,-0.112499999424294,0.0430659987032413,0.149356558918953,0.905302286148071
0,1.12777777800944,-0.190277786858986,-0.138888896582264,-0.0473420582711697,0.226325571537018,0.820086598396301
0,1.18472224797515,-0.194444450352783,-0.188888894975731,-0.0821613743901253,0.218995183706284,0.826806128025055
0,0.938888968125464,-0.215277779977737,-0.03194444645704,-0.0497855171561241,-0.281608879566193,1.13834738731384
0,1.14305558872524,-0.250000004123303,-0.14722222356986,0.0357356183230877,-0.44348818063736,0.962112784385681
0,1.03888889197661,-0.262500006760661,-0.190277786858986,0.139582708477974,-0.019547687843442,0.903775155544281
0,1.02083339474202,-0.318055560531181,-0.20138889761309,0.251065611839294,0.530841886997223,0.829249560832977
0,1.0125000434425,-0.347222241455659,-0.14722222356986,0.30695977807045,0.868344962596893,0.717155814170837
0,0.923611157409668,-0.372222246730376,-0.108333335930496,0.415693789720535,0.801455199718475,0.621555387973785
0,0.956944465360051,-0.386111116939059,-0.0152777788063885,0.408057987689972,0.255647093057633,0.215024560689926
0,1.03888889197661,-0.352777784676747,-0.0152777788063885,0.102625362575054,-0.445015341043472,0.0577267669141293
0,1.02916674604155,-0.304166666010569,-0.0625000010308258,-0.103541657328606,-0.722042739391327,-0.223271250724793
0,1.04305556762637,-0.279166685047782,-0.1194444466846,-0.0867428630590439,-0.371100634336472,-0.385150551795959
0,1.06666672964169,-0.301388906555989,-0.104166672436698,0.00397062394768,-0.374460399150848,-0.30146199464798
0,0.944444438410764,-0.318055560531181,-0.0916666697993398,0.00977384392172098,-0.324674874544144,-0.696997225284576
0,1.06805562152495,-0.343055565805897,-0.0722222259796579,0.0192422550171614,-0.866512358188629,-0.796568274497986
0,1.16111118320754,-0.286111120152123,-0.301388906555989,-0.0488692186772823,0.490830212831497,-0.661872506141663
0,1.1083333888916,-0.272222225631511,-0.161111118090472,0.0363464802503586,0.402865618467331,-0.493273675441742
0,1.04166667574312,-0.233333350148112,-0.130555557438704,0.0726929605007172,0.521984338760376,-0.222965821623802
0,1.00972225967599,-0.250000004123303,-0.125000002061652,0.124616511166096,0.62308257818222,-0.130419731140137
0,0.905555562927365,-0.233333350148112,-0.0652777787193518,0.0485637858510017,0.392786353826523,-0.188451930880547
0,0.861111119910949,-0.198611113846581,-0.0819444448505077,0.000610865245107561,0.25411993265152,-0.0992656052112579
0,0.89166674134254,-0.194444450352783,-0.102777780553444,-0.172263994812965,0.148745685815811,0.0381790772080422
0,0.895833319744586,-0.223611131277262,-0.0750000036681839,-0.143553331494331,-0.0986547395586967,0.161268427968025
0,1.0125000434425,-0.259722222994153,-0.0708333340964038,-0.0882700309157372,-0.0448985956609249,0.195171445608139
0,1.0125000434425,-0.259722222994153,-0.0708333340964038,-0.05283984541893,0.193644285202026,-0.015577063895762
0,1.01666671909226,-0.300000014672736,-0.105555564319952,-0.0497855171561241,0.470671683549881,-0.143553331494331
0,1.11111117265811,-0.312500017310094,-0.120833338567854,0.0668897479772568,0.58704149723053,-0.306654363870621
0,1.11250006454136,-0.308333341660331,-0.0888888921108138,0.0574213340878487,0.622777104377747,-0.255036234855652
0,1.05833337834217,-0.25555557165632,-0.0611111152255539,0.145996794104576,0.353996396064758,-0.221133217215538
0,1.03888889197661,-0.24583335278547,-0.0513888902767219,0.101709060370922,0.215024560689926,-0.177761793136597
0,1.03194452980806,-0.243055569018962,-0.0500000014324589,-0.0152716310694814,0.262672066688538,-0.0439822971820831
0,0.984722303025134,-0.13750000469901,-0.133333341205212,0.135001212358475,0.00610865233466029,-0.0106901414692402
0,1.05000002704265,-0.241666677135707,-0.0777777813567098,-0.0177150927484035,0.193949714303017,0.00610865233466029
0,0.940277860008718,-0.229166674498349,-0.0694444482911319,0.0653625801205635,0.0931569486856461,0.123700208961964
0,1.00972225967599,-0.24583335278547,-0.0222222230277034,0.0045814891345799,0.0601702257990837,0.499382346868515
0,1.02500007039179,-0.213888888094483,-0.00694444498106275,-0.0329867228865623,-0.0641408488154411,0.309097826480865
0,1.00833336779274,-0.212499996211229,-0.0152777788063885,-0.0167987942695618,-0.0479529201984406,0.361326783895493
0,1.00833336779274,-0.238888893369199,-0.0125000003581147,0.0830776765942574,-0.0653625801205635,0.371406078338623
0,1.04027778385987,-0.300000014672736,-0.101388894748172,-0.0164933614432812,0.0235183127224445,0.171958565711975
0,1.06527783775844,-0.297222230906227,-0.0625000010308258,0.0204639863222837,-0.101709060370922,0.0213802829384804
0,1.10694449700835,-0.295833339022973,-0.0444444460554069,0.0461203269660473,-0.194866016507149,-0.0772744566202164
0,1.08611111875954,-0.294444447139719,-0.0361111129898289,0.0699440687894821,-0.283441483974457,-0.112093769013882
0,1.09444447005906,-0.297222230906227,-0.0388888906783549,0.108428582549095,-0.567188382148743,-0.167377084493637
0,1.11388895642462,-0.281944444502361,-0.00694444498106275,0.159741267561913,-0.902553379535675,-0.160657554864883
0,1.11388895642462,-0.236111109602691,-0.0138888899621255,0.295047909021378,-0.964861631393433,-0.164933621883392
0,1.01111115155925,-0.234722242031366,-0.104166672436698,-0.156381502747536,-0.427911102771759,-0.131030589342117
0,0.922222265526414,-0.300000014672736,-0.243055569018962,-0.102319926023483,0.206777885556221,-0.0931569486856461
0,1.07638897282447,-0.301388906555989,-0.361111135976272,0.482888966798782,3.2125403881073,-0.245873257517815
0,0.92083337364316,-0.254166679773066,0.123611110178398,-0.130114302039146,0.817643105983734,-0.207083314657211
0,0.831944487610329,-0.238888893369199,0.0833333367337618,0.0045814891345799,0.128587126731873,-0.106290549039841
0,0.872222254976982,-0.226388890731841,0.0444444460554069,0.0180205255746841,-0.0705549344420433,-0.0824668109416962
0,1.00694447590948,-0.261111114877407,0.00972222266958873,0.0821613743901253,-0.0812450796365738,-0.0467311926186085
0,1.03194452980806,-0.25555557165632,-0.00972222266958873,0.0705549344420433,-0.0027488935738802,-0.0638354197144508
0,1.02222228662528,-0.240277785252453,-0.0222222230277034,0.0561996027827263,0.0497855171561241,-0.0433714315295219
0,1.01944450285877,-0.233333350148112,-0.0166666676506515,0.0604756586253643,0.0620028227567673,-0.0302378293126821
0,1.01527782720901,-0.234722242031366,-0.00972222266958873,0.0415388382971287,0.0769690200686455,-0.0222965814173222
0,1.02083339474202,-0.231944458264858,-0.0125000003581147,0.0351247526705265,0.0916297882795334,-0.0690277740359306
0,1.0333333244436,-0.241666677135707,-0.0138888899621255,0.0241291765123606,0.193949714303017,-0.151189148426056
0,0.986111194908388,-0.206944452990142,0.00972222266958873,0.0360410511493683,0.18509216606617,-0.0791070461273193
0,1.00972225967599,-0.298611122789481,0.0361111129898289,0.110566608607769,-0.414777487516403,-0.173485726118088
0,1.07500008094122,-0.230555566381603,-0.0138888899621255,0.0751364231109619,-0.164628177881241,-0.0745255574584007
0,1.07083340529146,-0.20972223675665,-0.0375000018340919,0.000610865245107561,0.0314595587551594,-0.10048733651638
0,1.02222228662528,-0.204166669223633,-0.0152777788063885,0.0345138870179653,0.113926365971565,0.021685715764761
0,1.04583335139288,-0.212499996211229,-0.0111111115138517,0.00733038317412138,0.156686931848526,0.0549778714776039
0,1.05694448645892,-0.241666677135707,-0.0152777788063885,-0.0342084541916847,0.22724187374115,-0.102014496922493
0,1.03888889197661,-0.241666677135707,-0.00833333382532574,-0.0436768643558025,0.271835029125214,-0.197004035115242
0,1.01527782720901,-0.231944458264858,-0.00555555575692586,-0.0995710343122482,0.358577907085419,-0.232128798961639
0,0.934722292475701,-0.20972223675665,0.029166668768514,0.000305432622553781,0.1795943826437,-0.119118720293045
0,0.990277773310434,-0.17361112072783,0.0194444453391775,0.0256563406437635,0.16890424489975,0.0662788823246956
0,1.02916674604155,-0.163888889701015,-0.00138888893923146,0.0397062413394451,0.171347707509995,0.22174409031868
0,1.00555558402623,-0.195833342236038,0.0194444453391775,0.0305432621389627,0.115758962929249,0.250454753637314
0,1.00972225967599,-0.227777782615095,0.0166666676506515,-0.0253509078174829,0.0665843114256859,0.161268427968025
0,1.00000001649321,-0.234722242031366,0.027777779924251,-0.120340451598167,0.0293215326964855,0.118507854640484
0,1.01111115155925,-0.244444460902216,0.0125000003581147,-0.0952949747443199,0.0839939713478088,-0.0229074470698834
0,1.00416669214298,-0.234722242031366,0.033333335301303,-0.00946841109544039,0.0897971913218498,-0.0140499006956816
0,1.00000001649321,-0.231944458264858,0.027777779924251,0.015577063895762,0.104457959532738,0.0366519130766392
0,1.00416669214298,-0.238888893369199,0.0375000018340919,0.0222965814173222,0.0995710343122482,-0.0149661982432008
0,1.02222228662528,-0.236111109602691,0.0250000007162294,0.0409279726445675,0.13225232064724,-0.0445931628346443
0,1.02222228662528,-0.236111109602691,0.0250000007162294,0.0210748501121998,0.102014496922493,-0.0583376325666905
0,1.00000001649321,-0.213888888094483,0.0388888906783549,-0.109039448201656,-0.248011291027069,0.00763581553474069
0,1.04583335139288,-0.236111109602691,0.03194444645704,0.0189368221908808,-0.0406225398182869,0.0412334054708481
0,1.0333333244436,-0.230555566381603,0.0250000007162294,0.0109955742955208,0.140193566679955,0.0772744566202164
5,0.965277816659576,-0.252777787889811,0.112499999424294,0.078801617026329,0.0742201283574104,0.0580321997404099
5,0.965277816659576,-0.252777787889811,0.112499999424294,0.0546724386513233,-0.0794124826788902,0.158214092254639
5,1.03194452980806,-0.181944447715425,-0.026388891079988,0.0656680166721344,0.0748309940099716,0.192117124795914
5,1.03194452980806,-0.226388890731841,0.0625000010308258,0.259006857872009,0.15851953625679,-0.217773467302322
5,1.03472221632685,-0.208333344873396,0.0222222230277034,0.0952949747443199,0.301767438650131,0.0360410511493683
5,1.03472221632685,-0.208333344873396,0.0222222230277034,-0.275194793939591,0.628274917602539,0.12675453722477
5,0.89722221162784,-0.202777789496344,-0.0902777839940679,-0.34330627322197,0.387899428606033,0.118813291192055
5,0.965277816659576,-0.226388890731841,0.101388894748172,-0.200058370828629,0.117591559886932,0.0815505087375641
5,1.00138890837647,-0.220833347510754,0.0777777813567098,-0.121256753802299,0.103847093880177,-0.00366519158706069
5,1.02222228662528,-0.212499996211229,0.0597222233422998,-0.141109868884087,-0.0745255574584007,0.0265726372599602
5,1.0125000434425,-0.229166674498349,0.10972222781375,0.0128281703218818,-0.125227376818657,0.0415388382971287
5,1.01527782720901,-0.229166674498349,0.106944444047242,0.0455094613134861,-0.167682513594627,0.0699440687894821
5,0.99583334084345,-0.240277785252453,0.0680555564078778,0.108123145997524,-0.141109868884087,0.0445931628346443
5,0.993055557076942,-0.262500006760661,0.0583333375370279,0.0959058403968811,-0.0888808965682983,0.0284052342176437
5,0.986111194908388,-0.263888898643915,0.0513888902767219,0.129503428936005,-0.103847093880177,-0.0226020142436027
5,1.00972225967599,-0.258333331110899,0.0486111125881959,0.176845490932465,-0.0109955742955208,-0.00580321997404099
5,1.04166667574312,-0.262500006760661,0.0513888902767219,0.207388743758202,0.172263994812965,0.019547687843442
5,1.08472222687628,-0.25555557165632,0.033333335301303,0.266031801700592,0.241291776299477,0.0607810914516449
5,0.98888888142718,-0.251388896006557,0.0736111117849297,0.321009695529938,0.145996794104576,0.0705549344420433
5,0.952777789710289,-0.250000004123303,0.0861111144222878,0.371406078338623,0.0604756586253643,0.0565050356090069
5,0.952777789710289,-0.236111109602691,0.0861111144222878,0.397673279047012,0.0183259565383196,0.058643065392971
5,0.997222232726705,-0.248611112240049,0.0763888894734557,0.411112308502197,0.0357356183230877,0.0363464802503586
5,1.02777785415829,-0.250000004123303,0.0750000036681839,0.405614525079727,-0.00916297826915979,0.0268780700862408
5,1.02500007039179,-0.243055569018962,0.0708333340964038,0.335059583187103,-0.0027488935738802,0.00885754637420177
5,1.02222228662528,-0.229166674498349,0.0722222259796579,0.24342979490757,0.000610865245107561,0.0045814891345799
5,1.01805561097552,-0.218055563744246,0.0736111117849297,0.1750128865242,-0.0100792767480016,-0.0140499006956816
5,1.00694447590948,-0.206944452990142,0.0944444474878658,0.0482583530247212,-0.0952949747443199,-0.00671951752156019
5,0.994444448960196,-0.202777789496344,0.0958333393711199,-0.0363464802503586,-0.208915919065475,-0.0134390350431204
5,0.973611167959101,-0.215277779977737,0.1194444466846,-0.0879645943641663,-0.43860125541687,-0.0308486949652433
5,0.948611114060526,-0.20972223675665,0.123611110178398,-0.143247902393341,-0.71471232175827,-0.0204639863222837
5,0.979166735492117,-0.200000005729836,0.0972222251763917,-0.122783914208412,-0.670424580574036,0.00397062394768
5,0.99583334084345,-0.223611131277262,0.0611111152255539,-0.027488935738802,-0.637743294239044,0.0922406539320946
5,1.0305556379248,-0.231944458264858,0.0138888899621255,-0.087659165263176,-0.479223787784576,0.0693332031369209
5,1.05833337834217,-0.229166674498349,0.0444444460554069,-0.058643065392971,-0.284052342176437,0.0708603709936142
5,1.07083340529146,-0.236111109602691,0.00555555575692586,-0.0613919571042061,-0.0833831056952477,0.0140499006956816
5,1.04305556762637,-0.231944458264858,0.00277777787846293,-0.0946841165423393,-0.03176499158144,0.0045814891345799
5,1.01388893532575,-0.234722242031366,0.0194444453391775,-0.113010071218014,-0.0302378293126821,0.00977384392172098
5,1.0125000434425,-0.243055569018962,0.0152777788063885,-0.109039448201656,-0.0271835029125214,0.0189368221908808
5,1.0125000434425,-0.252777787889811,0.0111111115138517,-0.10048733651638,-0.0149661982432008,0.00244346098043024
5,1.01111115155925,-0.252777787889811,0.0166666676506515,-0.0870482996106148,-0.0192422550171614,-0.000610865245107561
5,1.00555558402623,-0.248611112240049,0.0236111118719664,-0.0809396430850029,-0.02382374368608,0.00671951752156019
5,1.00833336779274,-0.252777787889811,0.0125000003581147,-0.0705549344420433,-0.0302378293126821,-0.00427605677396059
5,1.00555558402623,-0.254166679773066,0.0125000003581147,-0.0650571510195732,-0.0427605658769607,-0.00183259579353034
5,1.00555558402623,-0.258333331110899,0.0138888899621255,-0.0503963828086853,-0.0485637858510017,-0.0027488935738802
5,1.00972225967599,-0.261111114877407,0.00833333382532574,-0.0131336031481624,-0.0229074470698834,-0.01588249579072
5,1.0125000434425,-0.265277790527169,0.0125000003581147,-0.00763581553474069,-0.0335975885391235,-0.0366519130766392
5,1.00138890837647,-0.259722222994153,0.00138888893923146,0.00305432616733015,-0.0470366254448891,-0.0320704244077206
5,1.00138890837647,-0.256944463539574,0.00833333382532574,0.0268780700862408,-0.0616973899304867,-0.0204639863222837
5,1.00694447590948,-0.256944463539574,0.0152777788063885,0.0421497002243996,-0.0668897479772568,-0.0253509078174829
5,1.00694447590948,-0.265277790527169,0.0152777788063885,0.0461203269660473,-0.0589484944939613,-0.0183259565383196
5,1.00694447590948,-0.261111114877407,-0.00694444498106275,0.0467311926186085,-0.058643065392971,-0.0293215326964855
5,1.0125000434425,-0.265277790527169,-0.00555555575692586,0.0397062413394451,-0.0210748501121998,-0.0314595587551594
5,1.0125000434425,-0.269444466176932,-0.00277777787846293,0.04764748737216,-0.00763581553474069,-0.0400116741657257
5,1.00555558402623,-0.263888898643915,0.00416666691266287,0.0558941699564457,-0.0226020142436027,-0.0397062413394451
5,1.00972225967599,-0.259722222994153,-0.00972222266958873,0.0430659987032413,-0.0229074470698834,-0.0369573459029198
5,1.01527782720901,-0.254166679773066,-0.0194444453391775,0.0293215326964855,-0.0143553335219622,-0.0421497002243996
5,1.0125000434425,-0.251388896006557,-0.0111111115138517,0.0167987942695618,0.00855211354792118,-0.0400116741657257
5,1.00555558402623,-0.243055569018962,-0.00972222266958873,0.00122173049021512,0.00763581553474069,-0.0360410511493683
5,1.00833336779274,-0.233333350148112,-0.0152777788063885,-0.0149661982432008,0.00916297826915979,-0.0183259565383196
5,1.0125000434425,-0.234722242031366,-0.0125000003581147,-0.0342084541916847,0.00916297826915979,-0.021685715764761
5,1.01111115155925,-0.233333350148112,-0.0111111115138517,-0.0430659987032413,0.0021380283869803,-0.013744467869401
5,1.00555558402623,-0.234722242031366,-0.00972222266958873,-0.0708603709936142,-0.0021380283869803,-0.0113010071218014
5,1.00833336779274,-0.226388890731841,-0.00555555575692586,-0.0888808965682983,-0.00580321997404099,-0.00549778714776039
5,1.00694447590948,-0.231944458264858,-0.00694444498106275,-0.0907134860754013,-0.00427605677396059,0.00885754637420177
5,1.00972225967599,-0.230555566381603,-0.00694444498106275,-0.0940732508897781,-0.00794124789535999,0.0253509078174829
5,1.00416669214298,-0.237500001485945,0.00555555575692586,-0.0885754600167274,-0.0204639863222837,0.0229074470698834
5,1.00555558402623,-0.243055569018962,0.0166666676506515,-0.0726929605007172,-0.0378736443817616,0.0232128798961639
5,1.00972225967599,-0.241666677135707,0.00833333382532574,-0.0726929605007172,-0.0421497002243996,0.0280998013913631
5,1.01111115155925,-0.247222220356795,0.00833333382532574,-0.0812450796365738,-0.0366519130766392,0.0277943685650826
5,1.00972225967599,-0.247222220356795,-0.00277777787846293,-0.0693332031369209,-0.0305432621389627,0.0256563406437635
5,1.00972225967599,-0.247222220356795,-0.00277777787846293,-0.0516181141138077,-0.0430659987032413,0.0122173046693206
5,1.01111115155925,-0.252777787889811,-0.0125000003581147,-0.0510072484612465,-0.0479529201984406,0.00641408516094089
5,1.0125000434425,-0.247222220356795,-0.0152777788063885,-0.0421497002243996,-0.0427605658769607,0.00824668072164059
5,1.01388893532575,-0.238888893369199,-0.0111111115138517,-0.0497855171561241,-0.0345138870179653,0.0109955742955208
5,1.01527782720901,-0.237500001485945,-0.00833333382532574,-0.0424551330506802,-0.0167987942695618,0.0152716310694814
5,1.01527782720901,-0.234722242031366,-0.00833333382532574,-0.0546724386513233,-0.0219911485910416,0.00977384392172098
5,1.0125000434425,-0.243055569018962,-0.0152777788063885,-0.0531452745199203,-0.0256563406437635,0.00519235478714108
5,1.01527782720901,-0.247222220356795,-0.0194444453391775,-0.0363464802503586,-0.0140499006956816,-0.00580321997404099
5,1.01527782720901,-0.24583335278547,-0.0194444453391775,-0.0222965814173222,-0.00549778714776039,-0.00702495034784079
5,1.00555558402623,-0.236111109602691,-0.0236111118719664,-0.00580321997404099,-0.0204639863222837,-0.0180205255746841
5,1.00416669214298,-0.231944458264858,-0.00972222266958873,-0.00397062394768,-0.0259617734700441,-0.0192422550171614
5,1.00972225967599,-0.226388890731841,-0.029166668768514,-0.00610865233466029,-0.0259617734700441,-0.0161879286170006
5,1.01527782720901,-0.230555566381603,-0.03194444645704,-0.0109955742955208,-0.01588249579072,-0.0100792767480016
5,1.01111115155925,-0.240277785252453,-0.03194444645704,-0.0134390350431204,-0.0045814891345799,-0.01588249579072
5,1.00555558402623,-0.241666677135707,-0.0194444453391775,-0.0226020142436027,-0.00610865233466029,-0.0244346093386412
5,1.00416669214298,-0.238888893369199,-0.0250000007162294,-0.0180205255746841,-0.0201585534960032,-0.0253509078174829
5,1.00416669214298,-0.238888893369199,-0.0250000007162294,-0.0045814891345799,-0.0351247526705265,-0.0152716310694814
5,1.00972225967599,-0.233333350148112,-0.030555557612777,-0.00366519158706069,-0.0314595587551594,-0.0204639863222837
5,1.01527782720901,-0.240277785252453,-0.0361111129898289,-0.0100792767480016,-0.0207694191485643,-0.0222965814173222
5,0.997222232726705,-0.233333350148112,-0.030555557612777,-0.0122173046693206,-0.0326812900602817,-0.00794124789535999
5,1.00555558402623,-0.229166674498349,-0.029166668768514,-0.0183259565383196,-0.0409279726445675,0.0134390350431204
5,1.00138890837647,-0.227777782615095,-0.029166668768514,-0.0229074470698834,-0.0485637858510017,0.0253509078174829
5,1.00416669214298,-0.223611131277262,-0.0250000007162294,-0.0332921557128429,-0.0522289797663689,0.0525344125926495
5,1.00972225967599,-0.227777782615095,-0.027777779924251,-0.0366519130766392,-0.0400116741657257,0.0500909499824047
5,1.00694447590948,-0.236111109602691,-0.0125000003581147,-0.0262672062963247,-0.0555887371301651,0.0546724386513233
5,1.00416669214298,-0.236111109602691,-0.0125000003581147,-0.0207694191485643,-0.0708603709936142,0.0623082555830479
5,1.00555558402623,-0.227777782615095,-0.0208333341834404,-0.0219911485910416,-0.0662788823246956,0.076052725315094
5,1.00555558402623,-0.226388890731841,-0.0250000007162294,-0.0378736443817616,-0.0433714315295219,0.0699440687894821
5,1.01666671909226,-0.233333350148112,-0.0222222230277034,-0.0537561401724815,-0.0378736443817616,0.0632245540618896
5,1.01805561097552,-0.234722242031366,-0.0208333341834404,-0.0442877300083637,-0.0348193198442459,0.0601702257990837
5,1.00694447590948,-0.237500001485945,-0.0194444453391775,-0.0384845100343227,-0.0320704244077206,0.0445931628346443
5,1.00694447590948,-0.238888893369199,-0.0347222241455659,-0.0335975885391235,-0.0354301854968071,0.0482583530247212
5,1.00972225967599,-0.226388890731841,-0.033333335301303,-0.0226020142436027,-0.0268780700862408,0.0507018156349659
5,1.01388893532575,-0.236111109602691,-0.0416666683668809,-0.0415388382971287,-0.0021380283869803,0.0461203269660473
5,1.02222228662528,-0.24583335278547,-0.0388888906783549,-0.0522289797663689,0.00641408516094089,0.0400116741657257
5,1.01944450285877,-0.250000004123303,-0.0375000018340919,-0.0479529201984406,0.0293215326964855,0.0268780700862408
5,1.01527782720901,-0.252777787889811,-0.0500000014324589,-0.0445931628346443,0.0268780700862408,0.0213802829384804
5,1.0125000434425,-0.252777787889811,-0.0388888906783549,-0.0433714315295219,0.0406225398182869,0.0131336031481624
5,1.01666671909226,-0.25555557165632,-0.0458333348996699,-0.0418442711234093,0.0729983970522881,0.0164933614432812
5,1.01388893532575,-0.254166679773066,-0.0472222237439329,-0.0519235469400883,0.0855211317539215,0.0134390350431204
5,1.00555558402623,-0.252777787889811,-0.0388888906783549,-0.0473420582711697,0.0604756586253643,0.011606439948082
5,1.00138890837647,-0.24583335278547,-0.033333335301303,-0.029626963660121,0.037568211555481,0.019547687843442
5,1.00833336779274,-0.251388896006557,-0.026388891079988,-0.0213802829384804,0.027488935738802,0.0103847095742822
5,1.00416669214298,-0.250000004123303,-0.03194444645704,-0.0222965814173222,0.0397062413394451,0.0106901414692402
5,1.01111115155925,-0.244444460902216,-0.030555557612777,-0.02382374368608,0.0632245540618896,0.0143553335219622
5,1.01111115155925,-0.244444460902216,-0.030555557612777,-0.0394008085131645,0.0699440687894821,0.0140499006956816
5,1.00972225967599,-0.252777787889811,-0.0208333341834404,-0.0342084541916847,0.0684169083833694,0.011606439948082
5,1.00972225967599,-0.252777787889811,-0.0208333341834404,-0.0207694191485643,0.0610865242779255,0.00763581553474069
5,1.00833336779274,-0.25555557165632,-0.0250000007162294,-0.0106901414692402,0.0653625801205635,0.0027488935738802
5,1.00972225967599,-0.259722222994153,-0.0208333341834404,-0.00794124789535999,0.0791070461273193,0.00580321997404099
5,1.01805561097552,-0.262500006760661,-0.0250000007162294,-0.00733038317412138,0.078801617026329,0.0210748501121998
5,1.0125000434425,-0.259722222994153,-0.0152777788063885,0.0109955742955208,0.0470366254448891,0.021685715764761
5,1.01666671909226,-0.259722222994153,-0.0166666676506515,0.0204639863222837,0.0387899428606033,-0.00610865233466029
5,0.98888888142718,-0.262500006760661,-0.00555555575692586,0.0192422550171614,0.00580321997404099,0.0033597587607801
5,0.990277773310434,-0.248611112240049,-0.00972222266958873,0.0109955742955208,-0.00794124789535999,0.0106901414692402
5,1.00972225967599,-0.24583335278547,-0.0250000007162294,0.00183259579353034,0.00702495034784079,-0.00397062394768
5,1.02222228662528,-0.262500006760661,-0.033333335301303,0.00977384392172098,0.0201585534960032,-0.000305432622553781
5,1.01111115155925,-0.265277790527169,-0.0250000007162294,0.0177150927484035,0.0421497002243996,0.0183259565383196
5,1.01388893532575,-0.265277790527169,-0.0194444453391775,0.0125227374956012,0.0571159012615681,0.0219911485910416
5,0.991666665193688,-0.256944463539574,-0.0166666676506515,0.0122173046693206,0.021685715764761,0.0131336031481624
5,0.976388951725609,-0.248611112240049,-0.0180555564949145,0.0128281703218818,-0.0259617734700441,0.0189368221908808
5,1.01944450285877,-0.24583335278547,-0.0222222230277034,-0.00702495034784079,0.0232128798961639,0.0167987942695618
5,1.00000001649321,-0.24583335278547,-0.0222222230277034,-0.01588249579072,0.00580321997404099,0.0424551330506802
5,0.998611124609959,-0.252777787889811,-0.0138888899621255,-0.00794124789535999,0.0122173046693206,0.0430659987032413
5,1.01111115155925,-0.259722222994153,-0.0180555564949145,0.00580321997404099,-0.00549778714776039,0.0332921557128429
5,1.01388893532575,-0.256944463539574,-0.00833333382532574,0.0433714315295219,-0.0262672062963247,0.0397062413394451
5,1.00555558402623,-0.247222220356795,-0.0222222230277034,0.019547687843442,-0.01588249579072,0.0284052342176437
5,0.979166735492117,-0.25555557165632,-0.00833333382532574,0.0045814891345799,-0.0360410511493683,0.0305432621389627
5,0.99583334084345,-0.269444466176932,-0.0194444453391775,0.015577063895762,-0.017409659922123,0.0125227374956012
5,1.00555558402623,-0.263888898643915,-0.0152777788063885,0.0122173046693206,0.00855211354792118,-0.0180205255746841
5,1.02083339474202,-0.259722222994153,-0.0180555564949145,0.0143553335219622,0.0164933614432812,-0.0323758572340012
5,1.02500007039179,-0.252777787889811,-0.00972222266958873,-0.00427605677396059,0.0186313893646002,-0.00702495034784079
5,1.01388893532575,-0.252777787889811,-0.0222222230277034,0.00122173049021512,0.0149661982432008,0.00183259579353034
5,1.01111115155925,-0.252777787889811,-0.00972222266958873,0.00549778714776039,0.00946841109544039,-0.0268780700862408
5,1.00277780025972,-0.233333350148112,-0.0138888899621255,-0.01588249579072,-0.0235183127224445,-0.0222965814173222
5,1.00555558402623,-0.238888893369199,-0.0194444453391775,-0.0329867228865623,-0.0314595587551594,-0.0280998013913631
5,1.02083339474202,-0.243055569018962,-0.0347222241455659,-0.0470366254448891,-0.0180205255746841,-0.00824668072164059
5,1.00972225967599,-0.247222220356795,-0.0125000003581147,-0.0354301854968071,0.0180205255746841,-0.0140499006956816
5,1.00555558402623,-0.24583335278547,-0.00972222266958873,-0.0204639863222837,-0.00946841109544039,-0.0204639863222837
5,1.00000001649321,-0.226388890731841,-0.0138888899621255,-0.015577063895762,-0.00427605677396059,0.02382374368608
5,1.00416669214298,-0.226388890731841,-0.0152777788063885,-0.0290160998702049,-0.0103847095742822,0.00763581553474069
5,1.01944450285877,-0.233333350148112,-0.0152777788063885,-0.0565050356090069,-0.0045814891345799,-0.00916297826915979
5,1.00277780025972,-0.244444460902216,-0.0125000003581147,-0.0552833043038845,-0.0198531206697226,-0.0235183127224445
5,1.00138890837647,-0.252777787889811,-0.00972222266958873,-0.0345138870179653,-0.0308486949652433,-0.0280998013913631
5,1.00138890837647,-0.259722222994153,-0.0250000007162294,0.00305432616733015,-0.0284052342176437,-0.00824668072164059
5,1.02638896227504,-0.276388901281273,-0.030555557612777,0.0433714315295219,-0.00763581553474069,0.00305432616733015
5,1.0125000434425,-0.275000009398019,-0.0250000007162294,0.0387899428606033,0.0445931628346443,0.000916297896765172
5,0.993055557076942,-0.265277790527169,-0.00277777787846293,0.0342084541916847,0.0106901414692402,-0.00763581553474069
5,0.993055557076942,-0.262500006760661,-0.00833333382532574,-0.000610865245107561,-0.0452040284872055,-0.019547687843442
5,1.00694447590948,-0.262500006760661,-0.0152777788063885,0.0109955742955208,-0.0497855171561241,-0.0293215326964855
5,1.00000001649321,-0.250000004123303,-0.0236111118719664,0.0247400421649218,-0.0513126812875271,-0.0207694191485643
5,1.01388893532575,-0.25555557165632,-0.0222222230277034,0.0381790772080422,-0.058643065392971,0.0100792767480016
5,1.0305556379248,-0.265277790527169,-0.0388888906783549,0.0354301854968071,-0.03176499158144,0.0183259565383196
5,1.01111115155925,-0.258333331110899,-0.0375000018340919,0.0140499006956816,0.0525344125926495,0.0397062413394451
5,0.99583334084345,-0.251388896006557,-0.0250000007162294,0.0164933614432812,0.05283984541893,0.0488692186772823
5,1.0125000434425,-0.256944463539574,-0.0138888899621255,0.0106901414692402,0.0409279726445675,0.0265726372599602
5,1.0125000434425,-0.251388896006557,-0.0194444453391775,-0.0293215326964855,0.00671951752156019,-0.0161879286170006
5,0.99583334084345,-0.236111109602691,-0.0208333341834404,-0.0543670058250427,-0.0271835029125214,-0.00671951752156019
5,0.990277773310434,-0.238888893369199,-0.0236111118719664,-0.0821613743901253,-0.0250454749912024,0.0235183127224445
5,1.00000001649321,-0.259722222994153,-0.0250000007162294,-0.0629191175103188,0.00916297826915979,0.0803287774324417
5,1.02500007039179,-0.283333336385615,-0.03194444645704,0.0113010071218014,0.0745255574584007,0.0668897479772568
5,1.01111115155925,-0.265277790527169,-0.0222222230277034,0.00122173049021512,0.070249505341053,0.0455094613134861
5,0.99583334084345,-0.258333331110899,-0.026388891079988,-0.0470366254448891,0.0226020142436027,0.0329867228865623
5,0.99583334084345,-0.266666682410424,-0.026388891079988,-0.0485637858510017,-0.00733038317412138,0.0262672062963247
5,1.0125000434425,-0.283333336385615,-0.027777779924251,-0.0342084541916847,-0.0320704244077206,-0.00916297826915979
5,1.01805561097552,-0.273611117514765,-0.0347222241455659,-0.0171042270958424,-0.0537561401724815,0.00855211354792118
5,0.98888888142718,-0.281944444502361,-0.026388891079988,-0.0226020142436027,-0.00427605677396059,0.00641408516094089
5,1.00555558402623,-0.262500006760661,-0.00555555575692586,-0.00397062394768,-0.0222965814173222,0.00641408516094089
5,1.0125000434425,-0.254166679773066,-0.0250000007162294,-0.0326812900602817,-0.0369573459029198,0.00397062394768
5,1.00694447590948,-0.279166685047782,-0.0458333348996699,-0.0186313893646002,0.151189148426056,0.0329867228865623
5,0.959722249126559,-0.290277795801886,-0.00277777787846293,-0.0494800843298435,0.0571159012615681,0.0284052342176437
5,0.961111141009813,-0.270833333748257,0.00555555575692586,-0.00733038317412138,-0.0427605658769607,0.011606439948082
5,1.00555558402623,-0.224999998848587,-0.0152777788063885,-0.0439822971820831,-0.0800233483314514,0.000916297896765172
5,1.01527782720901,-0.224999998848587,-0.0361111129898289,-0.076052725315094,0.0171042270958424,0.0607810914516449
5,0.993055557076942,-0.262500006760661,-0.033333335301303,-0.0503963828086853,0.0103847095742822,0.0977384373545647
5,1.01944450285877,-0.277777793164528,-0.0125000003581147,0.0397062413394451,-0.0299323964864016,0.10567969083786
5,1.03194452980806,-0.295833339022973,-0.0138888899621255,0.155159771442413,-0.0662788823246956,0.0754418596625328
5,1.00972225967599,-0.319444452414435,-0.0111111115138517,0.223882108926773,-0.0461203269660473,0.0500909499824047
5,0.994444448960196,-0.305555557893823,-0.0180555564949145,0.247400417923927,-0.100181899964809,0.0320704244077206
5,1.00833336779274,-0.293055555256465,-0.0250000007162294,0.270918726921081,-0.133474051952362,0.019547687843442
5,1.02222228662528,-0.240277785252453,-0.033333335301303,0.257479697465897,-0.136833816766739,0.0161879286170006
5,1.01944450285877,-0.195833342236038,-0.03194444645704,0.00733038317412138,-0.218384325504303,-0.191200822591782
5,0.986111194908388,-0.197222234119292,-0.033333335301303,0.0161879286170006,0.0571159012615681,0.0305432621389627
5,0.980555627375371,-0.215277779977737,-0.0194444453391775,-0.0928515195846558,0.0299323964864016,0.0287106670439243
5,1.0902777944093,-0.24583335278547,-0.0458333348996699,-0.101709060370922,0.0568104684352875,0.0400116741657257
5,1.05833337834217,-0.254166679773066,-0.0402777795226179,-0.0629191175103188,0.231823354959488,0.0897971913218498
5,0.983333411141879,-0.287500012035377,-0.0138888899621255,-0.0329867228865623,0.276111096143722,0.0781907513737679
5,0.958333357243305,-0.309722233543585,0.0166666676506515,0.02382374368608,0.106595985591412,0.0387899428606033
5,0.993055557076942,-0.300000014672736,0.00277777787846293,0.138055548071861,-0.0433714315295219,-0.00733038317412138
5,1.00972225967599,-0.269444466176932,-0.0194444453391775,0.161268427968025,-0.0510072484612465,0.0244346093386412
5,1.00138890837647,-0.265277790527169,-0.0194444453391775,0.133168622851372,-0.0733038261532784,0.0268780700862408
5,1.00416669214298,-0.262500006760661,-0.0194444453391775,0.117591559886932,-0.113010071218014,-0.0164933614432812
5,1.02222228662528,-0.265277790527169,-0.026388891079988,0.135917514562607,-0.0421497002243996,0.0045814891345799
5,1.02361117850853,-0.262500006760661,-0.0250000007162294,0.159435823559761,-0.01191187184304,0.0235183127224445
5,1.00555558402623,-0.25555557165632,-0.00972222266958873,0.178067222237587,0.00305432616733015,0.0390953756868839
5,0.976388951725609,-0.25555557165632,-0.00972222266958873,0.196087747812271,-0.087659165263176,0.0537561401724815
5,0.965277816659576,-0.258333331110899,0.00138888893923146,0.204334422945976,-0.162184715270996,0.0287106670439243
5,0.969444492309338,-0.266666682410424,-0.0166666676506515,0.178067222237587,-0.196087747812271,-0.0143553335219622
5,0.986111194908388,-0.268055574293678,-0.0236111118719664,0.0983493030071259,-0.143247902393341,-0.0329867228865623
5,0.986111194908388,-0.268055574293678,-0.0236111118719664,0.03176499158144,-0.0659734457731247,-0.0473420582711697
5,1.02222228662528,-0.275000009398019,-0.0486111125881959,0.00519235478714108,0.0149661982432008,-0.0525344125926495
5,1.02222228662528,-0.266666682410424,-0.0347222241455659,0.0100792767480016,0.0421497002243996,-0.0470366254448891
5,1.01388893532575,-0.266666682410424,-0.033333335301303,0.0213802829384804,0.0360410511493683,-0.0357356183230877
5,1.00416669214298,-0.269444466176932,-0.0250000007162294,0.0409279726445675,0.0320704244077206,-0.0232128798961639
5,1.00277780025972,-0.266666682410424,-0.030555557612777,0.0482583530247212,0.03176499158144,-0.0253509078174829
5,1.01527782720901,-0.261111114877407,-0.03194444645704,0.0494800843298435,0.0763581544160843,-0.0171042270958424
5,1.01111115155925,-0.261111114877407,-0.027777779924251,0.0387899428606033,0.0711658000946045,-0.0287106670439243
5,1.01111115155925,-0.261111114877407,-0.027777779924251,0.0421497002243996,0.0742201283574104,-0.0164933614432812
5,1.00000001649321,-0.258333331110899,-0.0180555564949145,0.0620028227567673,0.0763581544160843,-0.0335975885391235
5,0.990277773310434,-0.251388896006557,-0.0138888899621255,0.0610865242779255,0.0467311926186085,-0.0433714315295219
5,0.990277773310434,-0.251388896006557,-0.0138888899621255,0.058643065392971,0.02382374368608,-0.0442877300083637
5,0.993055557076942,-0.24583335278547,-0.0125000003581147,0.0452040284872055,-0.00122173049021512,-0.0384845100343227
5,1.00555558402623,-0.248611112240049,-0.0138888899621255,0.0180205255746841,-0.0213802829384804,-0.0439822971820831
5,1.00555558402623,-0.248611112240049,-0.0138888899621255,0.015577063895762,-0.00733038317412138,-0.0613919571042061
5,1.01944450285877,-0.236111109602691,-0.0125000003581147,0.0021380283869803,0.011606439948082,-0.0736092627048492
5,1.02361117850853,-0.2194444556275,-0.0125000003581147,-0.0293215326964855,0.0461203269660473,-0.076052725315094
5,1.02361117850853,-0.2194444556275,-0.0125000003581147,-0.0638354197144508,0.0616973899304867,-0.0583376325666905
5,1.00972225967599,-0.238888893369199,-0.00555555575692586,-0.0549778714776039,0.0403171069920063,-0.0601702257990837
5,1.00972225967599,-0.252777787889811,-0.0152777788063885,-0.0433714315295219,0.0241291765123606,-0.0678060427308083
5,1.00972225967599,-0.252777787889811,-0.0152777788063885,-0.0329867228865623,0.0128281703218818,-0.0659734457731247
5,1.00972225967599,-0.237500001485945,-0.0111111115138517,-0.0442877300083637,-0.0253509078174829,-0.0354301854968071
5,1.00000001649321,-0.229166674498349,-0.0111111115138517,-0.0531452745199203,-0.0348193198442459,-0.0167987942695618
5,1.00277780025972,-0.236111109602691,-0.00277777787846293,-0.0635299831628799,-0.0100792767480016,-0.017409659922123
5,1.00833336779274,-0.243055569018962,-0.00277777787846293,-0.0507018156349659,-0.000305432622553781,-0.0308486949652433
5,1.00833336779274,-0.243055569018962,0.00138888893923146,-0.0403171069920063,0.00671951752156019,-0.0406225398182869
5,1.00555558402623,-0.240277785252453,0.00138888893923146,-0.0287106670439243,-0.00427605677396059,-0.0384845100343227
5,1.00694447590948,-0.244444460902216,-0.0125000003581147,-0.00977384392172098,-0.0161879286170006,-0.0488692186772823
5,1.00833336779274,-0.244444460902216,-0.00972222266958873,-0.000916297896765172,-0.0277943685650826,-0.0650571510195732
5,1.00138890837647,-0.238888893369199,-0.0125000003581147,0.0128281703218818,-0.0280998013913631,-0.0458148941397667
5,1.00277780025972,-0.238888893369199,-0.0138888899621255,-0.00305432616733015,-0.00946841109544039,-0.037568211555481
5,1.01527782720901,-0.241666677135707,-0.0111111115138517,-0.0180205255746841,0.00824668072164059,-0.0629191175103188
5,1.01944450285877,-0.250000004123303,-0.03194444645704,-0.0186313893646002,0.0189368221908808,-0.064446285367012
5,1.00972225967599,-0.247222220356795,-0.0138888899621255,-0.0207694191485643,0.0262672062963247,-0.0467311926186085
5,1.00277780025972,-0.243055569018962,-0.0111111115138517,-0.0183259565383196,0.0436768643558025,-0.03176499158144
5,1.00555558402623,-0.236111109602691,-0.00972222266958873,-0.0284052342176437,0.0604756586253643,-0.0189368221908808
5,1.01527782720901,-0.236111109602691,-0.0111111115138517,-0.0262672062963247,0.0571159012615681,-0.029626963660121
5,1.01944450285877,-0.237500001485945,-0.0138888899621255,-0.0302378293126821,0.0574213340878487,-0.0335975885391235
5,1.01527782720901,-0.234722242031366,-0.00972222266958873,-0.0277943685650826,0.0763581544160843,-0.0500909499824047
5,1.01527782720901,-0.233333350148112,-0.0125000003581147,-0.0412334054708481,0.0833831056952477,-0.0537561401724815
5,1.0125000434425,-0.236111109602691,-0.0111111115138517,-0.0280998013913631,0.0769690200686455,-0.0516181141138077
5,1.01111115155925,-0.236111109602691,-0.00833333382532574,-0.0247400421649218,0.0794124826788902,-0.0503963828086853
5,1.0125000434425,-0.238888893369199,-0.0125000003581147,-0.0204639863222837,0.0491746515035629,-0.0531452745199203
5,1.00833336779274,-0.238888893369199,-0.00972222266958873,-0.0207694191485643,0.0452040284872055,-0.0381790772080422
5,1.0125000434425,-0.247222220356795,-0.0194444453391775,-0.027488935738802,0.0561996027827263,-0.0351247526705265
5,1.02361117850853,-0.252777787889811,-0.0222222230277034,-0.0171042270958424,0.0806342139840126,-0.0262672062963247
5,1.02500007039179,-0.25555557165632,-0.0222222230277034,0.00671951752156019,0.0830776765942574,-0.0455094613134861
5,1.02638896227504,-0.25555557165632,-0.0125000003581147,-0.00427605677396059,0.0616973899304867,-0.0494800843298435
5,1.02638896227504,-0.251388896006557,-0.0111111115138517,-0.0152716310694814,0.037568211555481,-0.0641408488154411
5,1.01527782720901,-0.256944463539574,-0.0111111115138517,-0.0256563406437635,0.0189368221908808,-0.0632245540618896
5,1.02222228662528,-0.259722222994153,-0.0152777788063885,-0.00794124789535999,0.0293215326964855,-0.0436768643558025
5,1.02361117850853,-0.259722222994153,-0.0152777788063885,0.000610865245107561,0.0598647929728031,-0.0482583530247212
5,1.01527782720901,-0.24583335278547,-0.0180555564949145,-0.0128281703218818,0.0427605658769607,-0.0381790772080422
5,1.0125000434425,-0.241666677135707,-0.0111111115138517,-0.0146607663482428,0.00946841109544039,-0.0290160998702049
5,1.01111115155925,-0.24583335278547,-0.00277777787846293,-0.0100792767480016,0.00397062394768,-0.0171042270958424
5,1.01388893532575,-0.252777787889811,-0.0152777788063885,-0.00855211354792118,0.0259617734700441,-0.00671951752156019
5,1.00972225967599,-0.251388896006557,-0.0166666676506515,-0.00152716308366507,0.0183259565383196,0.00549778714776039
5,1.00277780025972,-0.252777787889811,-0.0222222230277034,0.00610865233466029,-0.00580321997404099,0.0171042270958424
5,1.00000001649321,-0.252777787889811,-0.0166666676506515,0.0186313893646002,-0.0152716310694814,0.0329867228865623
5,1.01111115155925,-0.25555557165632,-0.0402777795226179,0.0314595587551594,-0.00580321997404099,0.0323758572340012
5,1.00972225967599,-0.243055569018962,-0.0180555564949145,0.0287106670439243,-0.00366519158706069,0.0277943685650826
5,1.0125000434425,-0.243055569018962,-0.00972222266958873,0.0287106670439243,-0.013744467869401,0.0149661982432008
5,1.01666671909226,-0.240277785252453,-0.00555555575692586,0.0192422550171614,-0.0488692186772823,0.01191187184304
5,1.0125000434425,-0.237500001485945,-0.00972222266958873,0.0213802829384804,-0.0516181141138077,0.0152716310694814
5,1.00833336779274,-0.24583335278547,-0.0208333341834404,0.0103847095742822,-0.0522289797663689,0.0125227374956012
5,0.99583334084345,-0.243055569018962,-0.0152777788063885,0.0103847095742822,-0.0268780700862408,0.0259617734700441
5,0.984722303025134,-0.240277785252453,-0.00972222266958873,-0.00763581553474069,-0.0244346093386412,0.0320704244077206
5,0.979166735492117,-0.238888893369199,-0.0125000003581147,-0.0106901414692402,-0.0113010071218014,0.0348193198442459
5,0.976388951725609,-0.236111109602691,-0.0138888899621255,-0.0113010071218014,0.00122173049021512,0.0268780700862408
5,0.962500032893068,-0.240277785252453,-0.0152777788063885,-0.0210748501121998,-0.00580321997404099,0.0381790772080422
5,0.963888924776322,-0.241666677135707,-0.0125000003581147,-0.0232128798961639,-0.0183259565383196,0.0500909499824047
5,0.96666670854283,-0.238888893369199,-0.00972222266958873,-0.011606439948082,-0.0189368221908808,0.0571159012615681
5,0.993055557076942,-0.241666677135707,-0.0152777788063885,-0.0241291765123606,-0.0256563406437635,0.0604756586253643
5,1.00833336779274,-0.248611112240049,-0.0166666676506515,-0.0390953756868839,-0.0412334054708481,0.0714712366461754
5,1.03194452980806,-0.259722222994153,-0.0194444453391775,-0.0201585534960032,-0.0421497002243996,0.0800233483314514
5,1.04166667574312,-0.269444466176932,-0.029166668768514,-0.00549778714776039,-0.0326812900602817,0.0705549344420433
5,1.0361111082101,-0.272222225631511,-0.0250000007162294,0.00122173049021512,-0.0400116741657257,0.0791070461273193
5,1.03194452980806,-0.275000009398019,-0.0361111129898289,0.0222965814173222,-0.0491746515035629,0.0781907513737679
5,1.03194452980806,-0.275000009398019,-0.0361111129898289,0.0339030213654041,-0.0397062413394451,0.0824668109416962
5,1.00138890837647,-0.269444466176932,-0.0250000007162294,0.0433714315295219,-0.0314595587551594,0.0836885422468185
5,0.99583334084345,-0.266666682410424,-0.029166668768514,0.0302378293126821,-0.0198531206697226,0.0671951770782471
5,0.99583334084345,-0.266666682410424,-0.029166668768514,0.0198531206697226,-0.00366519158706069,0.0717766657471657
5,0.983333411141879,-0.265277790527169,-0.00833333382532574,0.02382374368608,-0.0027488935738802,0.0659734457731247
5,0.987499989543926,-0.265277790527169,-0.00277777787846293,0.0305432621389627,-0.0171042270958424,0.064446285367012
5,0.987499989543926,-0.265277790527169,-0.00277777787846293,0.0427605658769607,-0.0497855171561241,0.0592539273202419
5,0.997222232726705,-0.262500006760661,-0.00277777787846293,0.0491746515035629,-0.0968221426010132,0.0620028227567673
5,1.0361111082101,-0.269444466176932,-0.027777779924251,0.0537561401724815,-0.126449108123779,0.0690277740359306
5,1.0361111082101,-0.269444466176932,-0.027777779924251,0.0577267669141293,-0.0620028227567673,0.0797179117798805
5,1.04305556762637,-0.277777793164528,-0.033333335301303,0.0546724386513233,-0.00916297826915979,0.0665843114256859
5,1.00972225967599,-0.273611117514765,-0.029166668768514,0.0549778714776039,0.00763581553474069,0.058643065392971
5,1.00972225967599,-0.273611117514765,-0.029166668768514,0.0430659987032413,0.0183259565383196,0.0424551330506802
5,0.993055557076942,-0.275000009398019,-0.0222222230277034,0.0326812900602817,-0.00977384392172098,0.017409659922123
5,0.98888888142718,-0.269444466176932,-0.0194444453391775,0.0164933614432812,-0.0253509078174829,0.00244346098043024
5,0.994444448960196,-0.258333331110899,-0.029166668768514,-0.0109955742955208,-0.0232128798961639,0.0109955742955208
5,1.00833336779274,-0.263888898643915,-0.0250000007162294,-0.0210748501121998,-0.0171042270958424,0.0109955742955208
5,1.02222228662528,-0.272222225631511,-0.0208333341834404,-0.0122173046693206,-0.00183259579353034,0.011606439948082
5,1.02777785415829,-0.277777793164528,-0.0236111118719664,0.00305432616733015,0.0128281703218818,0.01191187184304
5,1.01527782720901,-0.281944444502361,-0.0250000007162294,0.00244346098043024,0.00549778714776039,0.00916297826915979
5,1.00555558402623,-0.279166685047782,-0.0166666676506515,0.0149661982432008,0.000305432622553781,0.00977384392172098
5,1.00000001649321,-0.279166685047782,-0.0208333341834404,0.0219911485910416,0.00122173049021512,0.00122173049021512
5,1.00000001649321,-0.269444466176932,-0.0152777788063885,0.0363464802503586,-0.000916297896765172,-0.00763581553474069
5,1.00555558402623,-0.259722222994153,-0.0208333341834404,0.0394008085131645,-0.00122173049021512,-0.0113010071218014
5,1.00555558402623,-0.25555557165632,-0.0152777788063885,0.0394008085131645,-0.0140499006956816,-0.00885754637420177
5,1.00555558402623,-0.243055569018962,-0.0152777788063885,0.0403171069920063,-0.0186313893646002,-0.0027488935738802
5,1.00833336779274,-0.238888893369199,-0.0152777788063885,0.0253509078174829,-0.0207694191485643,0.0189368221908808
5,1.00972225967599,-0.244444460902216,0.00555555575692586,0.0250454749912024,-0.0430659987032413,0.0277943685650826
5,1.0125000434425,-0.250000004123303,-0.00277777787846293,0.0229074470698834,-0.0601702257990837,0.0390953756868839
5,1.0125000434425,-0.250000004123303,-0.00277777787846293,0.0189368221908808,-0.0580321997404099,0.0604756586253643
5,1.00694447590948,-0.256944463539574,-0.00277777787846293,0.0183259565383196,-0.0534507073462009,0.0696386396884918
5,1.00555558402623,-0.256944463539574,-0.0125000003581147,0.0213802829384804,-0.0574213340878487,0.0733038261532784
5,1.00277780025972,-0.25555557165632,-0.00972222266958873,0.0455094613134861,-0.0519235469400883,0.0729983970522881
5,1.00277780025972,-0.252777787889811,-0.0194444453391775,0.0458148941397667,-0.0418442711234093,0.0769690200686455
5,1.00277780025972,-0.254166679773066,-0.0180555564949145,0.0143553335219622,-0.0271835029125214,0.0803287774324417
5,1.00000001649321,-0.252777787889811,-0.0152777788063885,0.00519235478714108,-0.0210748501121998,0.081855945289135
5,0.997222232726705,-0.252777787889811,-0.00972222266958873,0.0128281703218818,-0.0207694191485643,0.0833831056952477
5,0.99583334084345,-0.258333331110899,-0.00972222266958873,0.0143553335219622,-0.0394008085131645,0.0931569486856461
5,1.00277780025972,-0.272222225631511,-0.0152777788063885,0.0180205255746841,-0.0549778714776039,0.0852157026529312
5,1.00277780025972,-0.277777793164528,-0.0180555564949145,0.0271835029125214,-0.05283984541893,0.0907134860754013
5,1.00416669214298,-0.283333336385615,-0.030555557612777,0.0497855171561241,-0.0598647929728031,0.0800233483314514
5,0.997222232726705,-0.286111120152123,-0.0222222230277034,0.078801617026329,-0.0739146918058395,0.0705549344420433
5,0.998611124609959,-0.287500012035377,-0.0236111118719664,0.096211276948452,-0.08460483700037,0.0690277740359306
5,1.00555558402623,-0.297222230906227,-0.026388891079988,0.135612085461616,-0.101098194718361,0.0592539273202419
5,1.0125000434425,-0.300000014672736,-0.0375000018340919,0.157908663153648,-0.0998764708638191,0.0510072484612465
5,1.01527782720901,-0.295833339022973,-0.0430555572111439,0.171958565711975,-0.0824668109416962,0.0390953756868839
5,1.00833336779274,-0.298611122789481,-0.0500000014324589,0.189062789082527,-0.0736092627048492,0.0332921557128429
5,1.00833336779274,-0.290277795801886,-0.0375000018340919,0.21135938167572,-0.0522289797663689,0.0207694191485643
5,1.00277780025972,-0.288888903918631,-0.0250000007162294,0.226325571537018,-0.0534507073462009,0.00610865233466029
5,1.00000001649321,-0.277777793164528,-0.0194444453391775,0.221133217215538,-0.0555887371301651,-0.00855211354792118
5,1.00416669214298,-0.275000009398019,-0.0180555564949145,0.215024560689926,-0.0418442711234093,-0.01588249579072
5,1.00833336779274,-0.275000009398019,-0.0236111118719664,0.20616702735424,-0.0247400421649218,-0.0360410511493683
5,1.00555558402623,-0.265277790527169,-0.0222222230277034,0.200363799929619,-0.0125227374956012,-0.0580321997404099
5,1.00555558402623,-0.266666682410424,-0.0222222230277034,0.208610475063324,-0.00977384392172098,-0.0690277740359306
5,1.00277780025972,-0.263888898643915,-0.0152777788063885,0.207083314657211,0.00305432616733015,-0.0632245540618896
5,0.99583334084345,-0.266666682410424,-0.0166666676506515,0.213802829384804,0.00916297826915979,-0.0458148941397667
5,0.997222232726705,-0.270833333748257,-0.0194444453391775,0.201280102133751,0.0192422550171614,-0.0421497002243996
5,0.997222232726705,-0.272222225631511,-0.0194444453391775,0.1750128865242,0.00702495034784079,-0.0436768643558025
5,0.993055557076942,-0.272222225631511,-0.00694444498106275,0.178067222237587,-0.0122173046693206,-0.0280998013913631
5,0.990277773310434,-0.269444466176932,-0.00277777787846293,0.192727982997894,-0.027488935738802,-0.0100792767480016
5,0.98888888142718,-0.262500006760661,-0.00555555575692586,0.197309479117393,-0.021685715764761,0.000610865245107561
5,0.984722303025134,-0.265277790527169,-0.00833333382532574,0.182037845253944,-0.0259617734700441,0.0201585534960032
5,0.976388951725609,-0.262500006760661,-0.0125000003581147,0.191506251692772,-0.0791070461273193,0.0103847095742822
5,0.991666665193688,-0.262500006760661,-0.00972222266958873,0.204639852046967,-0.107206851243973,0.01191187184304
5,1.0125000434425,-0.25555557165632,-0.0152777788063885,0.207694187760353,-0.109039448201656,0.013744467869401
5,1.01527782720901,-0.24583335278547,-0.0180555564949145,0.208610475063324,-0.117591559886932,0.0207694191485643
5,1.01805561097552,-0.247222220356795,-0.0194444453391775,0.201890960335732,-0.10048733651638,0.0204639863222837
5,1.02083339474202,-0.248611112240049,-0.0194444453391775,0.177150920033455,-0.0623082555830479,0.0161879286170006
5,1.00972225967599,-0.24583335278547,-0.0152777788063885,0.12675453722477,-0.0299323964864016,-0.0045814891345799
5,0.997222232726705,-0.252777787889811,-0.0152777788063885,0.0681114718317986,-0.0287106670439243,-0.000610865245107561
5,0.98888888142718,-0.263888898643915,-0.00555555575692586,0.0329867228865623,-0.0494800843298435,-0.00366519158706069
5,0.987499989543926,-0.268055574293678,-0.00138888893923146,0.0390953756868839,-0.0815505087375641,-0.0103847095742822
5,0.997222232726705,-0.277777793164528,-0.0166666676506515,0.0708603709936142,-0.114842668175697,0.00733038317412138
5,1.0125000434425,-0.284722228268869,-0.027777779924251,0.0882700309157372,-0.11636982858181,0.0100792767480016
5,1.02500007039179,-0.29166668768514,-0.0458333348996699,0.0861319974064827,-0.0870482996106148,-0.00549778714776039
5,1.02361117850853,-0.29166668768514,-0.0500000014324589,0.0778853222727776,-0.0409279726445675,-0.00244346098043024
5,1.02361117850853,-0.29166668768514,-0.0500000014324589,0.0791070461273193,-0.0247400421649218,-0.00671951752156019
5,1.01527782720901,-0.288888903918631,-0.0361111129898289,0.08460483700037,-0.00824668072164059,-0.0280998013913631
5,1.01388893532575,-0.281944444502361,-0.0347222241455659,0.0867428630590439,-0.0033597587607801,-0.0448985956609249
5,1.01666671909226,-0.281944444502361,-0.033333335301303,0.0849102661013603,0.017409659922123,-0.058643065392971
5,1.0125000434425,-0.268055574293678,-0.029166668768514,0.0800233483314514,0.0183259565383196,-0.064446285367012
5,1.00972225967599,-0.258333331110899,-0.0236111118719664,0.0632245540618896,0.0342084541916847,-0.0699440687894821
5,1.00555558402623,-0.25555557165632,-0.0250000007162294,0.0433714315295219,0.0280998013913631,-0.0769690200686455
5,1.00416669214298,-0.248611112240049,-0.0208333341834404,0.0348193198442459,0.017409659922123,-0.0757472887635231
5,0.99583334084345,-0.24583335278547,-0.0236111118719664,0.02382374368608,0.0167987942695618,-0.0800233483314514
5,1.00555558402623,-0.250000004123303,-0.0222222230277034,0.0103847095742822,0.0259617734700441,-0.0745255574584007
5,1.00972225967599,-0.250000004123303,-0.0347222241455659,-0.0033597587607801,0.0409279726445675,-0.0739146918058395
5,1.00972225967599,-0.254166679773066,-0.026388891079988,-0.017409659922123,0.0433714315295219,-0.0827722400426865
5,1.00972225967599,-0.250000004123303,-0.0180555564949145,-0.02382374368608,0.0378736443817616,-0.0852157026529312
5,1.00555558402623,-0.236111109602691,-0.0125000003581147,-0.0381790772080422,0.0433714315295219,-0.087659165263176
5,1.00972225967599,-0.238888893369199,-0.0194444453391775,-0.0681114718317986,0.0696386396884918,-0.0901026204228401
5,1.00972225967599,-0.240277785252453,-0.0208333341834404,-0.0986547395586967,0.0766635909676552,-0.111482910811901
5,1.00555558402623,-0.24583335278547,-0.0180555564949145,-0.117286130785942,0.0772744566202164,-0.100181899964809
5,1.00694447590948,-0.24583335278547,-0.0111111115138517,-0.137750118970871,0.0882700309157372,-0.0971275717020035
5,1.00694447590948,-0.247222220356795,-0.0194444453391775,-0.136222943663597,0.0873537287116051,-0.104152522981167
5,1.00694447590948,-0.252777787889811,-0.0180555564949145,-0.147829383611679,0.0882700309157372,-0.114537231624126
5,1.00555558402623,-0.25555557165632,-0.0250000007162294,-0.149661988019943,0.0928515195846558,-0.11117747426033
5,1.00555558402623,-0.25555557165632,-0.0222222230277034,-0.164322748780251,0.0879645943641663,-0.109344877302647
5,1.00277780025972,-0.252777787889811,-0.0194444453391775,-0.170431405305862,0.08460483700037,-0.104763388633728
5,1.00277780025972,-0.252777787889811,-0.0236111118719664,-0.167682513594627,0.0897971913218498,-0.104457959532738
5,1.00000001649321,-0.247222220356795,-0.0138888899621255,-0.16890424489975,0.0812450796365738,-0.0919352173805237
5,1.00555558402623,-0.248611112240049,-0.0125000003581147,-0.173485726118088,0.0549778714776039,-0.0965167060494423
5,1.01111115155925,-0.243055569018962,-0.00555555575692586,-0.163406446576118,0.0516181141138077,-0.0995710343122482
5,1.00833336779274,-0.238888893369199,-0.00416666691266287,-0.16951510310173,0.0461203269660473,-0.0977384373545647
5,0.997222232726705,-0.236111109602691,-0.00138888893923146,-0.16951510310173,0.0424551330506802,-0.0626136884093285
5,0.998611124609959,-0.231944458264858,-0.00138888893923146,-0.167987942695618,0.0140499006956816,-0.0378736443817616
5,1.00555558402623,-0.231944458264858,-0.00138888893923146,-0.171958565711975,-0.00366519158706069,-0.02382374368608
5,1.00972225967599,-0.229166674498349,-0.00416666691266287,-0.1750128865242,0.000610865245107561,-0.0021380283869803
5,1.00555558402623,-0.243055569018962,-0.0152777788063885,-0.17409659922123,0.00397062394768,0.00977384392172098
5,1.00555558402623,-0.24583335278547,-0.0152777788063885,-0.164933621883392,0.00549778714776039,0.0232128798961639
5,1.00416669214298,-0.24583335278547,-0.0180555564949145,-0.167071640491486,-0.0109955742955208,0.0314595587551594
5,1.00277780025972,-0.24583335278547,-0.0152777788063885,-0.162795588374138,-0.0183259565383196,0.0473420582711697
5,1.00138890837647,-0.24583335278547,-0.0180555564949145,-0.158824965357781,-0.013744467869401,0.0595593601465225
5,1.00277780025972,-0.250000004123303,-0.0222222230277034,-0.157908663153648,-0.0143553335219622,0.0687223374843597
5,1.00277780025972,-0.250000004123303,-0.0347222241455659,-0.142637029290199,-0.017409659922123,0.0546724386513233
5,1.00000001649321,-0.247222220356795,-0.0250000007162294,-0.133779495954514,-0.0131336031481624,0.0565050356090069
5,1.00277780025972,-0.244444460902216,-0.0180555564949145,-0.129503428936005,-0.021685715764761,0.0601702257990837
5,1.00000001649321,-0.248611112240049,-0.026388891079988,-0.138360977172852,-0.0244346093386412,0.0601702257990837
5,0.998611124609959,-0.256944463539574,-0.0194444453391775,-0.116980694234371,-0.0290160998702049,0.0675006061792374
5,1.00694447590948,-0.266666682410424,-0.0388888906783549,-0.0986547395586967,-0.0445931628346443,0.0720821022987366
5,1.00972225967599,-0.266666682410424,-0.0458333348996699,-0.0897971913218498,-0.0452040284872055,0.0635299831628799
5,1.01388893532575,-0.269444466176932,-0.0430555572111439,-0.0546724386513233,-0.0302378293126821,0.0613919571042061
5,1.01944450285877,-0.269444466176932,-0.0416666683668809,-0.0378736443817616,-0.0161879286170006,0.0613919571042061
5,1.01944450285877,-0.265277790527169,-0.0402777795226179,-0.0244346093386412,-0.00366519158706069,0.0522289797663689
5,1.02083339474202,-0.262500006760661,-0.0444444460554069,-0.0235183127224445,0.015577063895762,0.0400116741657257
5,1.01805561097552,-0.25555557165632,-0.0388888906783549,-0.0201585534960032,0.0390953756868839,0.0308486949652433
5,1.01111115155925,-0.250000004123303,-0.029166668768514,-0.0213802829384804,0.0497855171561241,0.0311541277915239
5,1.00555558402623,-0.248611112240049,-0.0222222230277034,-0.017409659922123,0.0439822971820831,0.0219911485910416
5,1.00833336779274,-0.247222220356795,-0.0138888899621255,-0.01588249579072,0.0485637858510017,0.0271835029125214
5,1.00555558402623,-0.250000004123303,-0.0152777788063885,-0.01191187184304,0.04764748737216,0.0332921557128429
5,1.00694447590948,-0.252777787889811,-0.0125000003581147,-0.00610865233466029,0.0488692186772823,0.0360410511493683
5,1.00972225967599,-0.25555557165632,-0.0111111115138517,0.00610865233466029,0.0394008085131645,0.0354301854968071
5,1.00972225967599,-0.254166679773066,-0.0125000003581147,0.00733038317412138,0.0277943685650826,0.0180205255746841
5,1.00972225967599,-0.252777787889811,-0.0250000007162294,0.0189368221908808,0.021685715764761,0.0128281703218818
5,1.00416669214298,-0.251388896006557,-0.0194444453391775,0.0284052342176437,0.0265726372599602,0.0235183127224445
5,1.00555558402623,-0.248611112240049,-0.0250000007162294,0.0226020142436027,0.0177150927484035,0.0201585534960032
5,1.00000001649321,-0.250000004123303,-0.0194444453391775,0.0253509078174829,0.0113010071218014,0.0424551330506802
5,1.00000001649321,-0.259722222994153,-0.0138888899621255,0.029626963660121,0.00305432616733015,0.0424551330506802
5,1.00000001649321,-0.25555557165632,-0.0194444453391775,0.0412334054708481,-0.000610865245107561,0.0320704244077206
5,0.998611124609959,-0.252777787889811,-0.0194444453391775,0.0561996027827263,-0.0219911485910416,0.0424551330506802
5,1.00277780025972,-0.25555557165632,-0.0194444453391775,0.0665843114256859,-0.0329867228865623,0.0400116741657257
5,1.00694447590948,-0.259722222994153,-0.0194444453391775,0.0693332031369209,-0.01588249579072,0.0439822971820831
5,1.00833336779274,-0.259722222994153,-0.00555555575692586,0.0491746515035629,-0.00305432616733015,0.0461203269660473
5,1.00555558402623,-0.256944463539574,-0.0152777788063885,0.0372627787292004,-0.00519235478714108,0.0461203269660473
5,1.00277780025972,-0.25555557165632,-0.0166666676506515,0.0418442711234093,-0.0152716310694814,0.0351247526705265
5,1.00555558402623,-0.254166679773066,-0.0152777788063885,0.0403171069920063,-0.0262672062963247,0.0277943685650826
5,1.00555558402623,-0.254166679773066,-0.0152777788063885,0.0421497002243996,-0.0308486949652433,0.0244346093386412
5,1.01388893532575,-0.252777787889811,-0.0222222230277034,0.0372627787292004,-0.0290160998702049,0.0143553335219622
5,1.0125000434425,-0.259722222994153,-0.0222222230277034,0.0412334054708481,-0.027488935738802,0.0183259565383196
5,1.00972225967599,-0.261111114877407,-0.0180555564949145,0.0335975885391235,-0.00549778714776039,0.017409659922123
5,1.00833336779274,-0.262500006760661,-0.0208333341834404,0.0345138870179653,0.00183259579353034,0.00885754637420177
5,1.00972225967599,-0.259722222994153,-0.0194444453391775,0.0320704244077206,-0.00733038317412138,0.0198531206697226
5,1.00555558402623,-0.262500006760661,-0.0180555564949145,0.0351247526705265,-0.0122173046693206,0.0207694191485643
5,1.00277780025972,-0.262500006760661,-0.0250000007162294,0.0320704244077206,-0.00183259579353034,0.00946841109544039
5,1.00555558402623,-0.259722222994153,-0.029166668768514,0.0198531206697226,-0.00641408516094089,0.013744467869401
5,1.00555558402623,-0.258333331110899,-0.026388891079988,0.00916297826915979,-0.00183259579353034,-0.0027488935738802
5,1.00277780025972,-0.258333331110899,-0.0180555564949145,0.0232128798961639,-0.00885754637420177,0.0033597587607801
5,1.00138890837647,-0.262500006760661,-0.0236111118719664,0.0299323964864016,-0.00763581553474069,-0.00183259579353034
5,1.00694447590948,-0.266666682410424,-0.026388891079988,0.0308486949652433,-0.00702495034784079,0.013744467869401
5,1.00416669214298,-0.272222225631511,-0.0222222230277034,0.021685715764761,-0.00794124789535999,0.01191187184304
5,1.00138890837647,-0.266666682410424,-0.027777779924251,0.0213802829384804,-0.00885754637420177,0.0100792767480016
5,1.00138890837647,-0.266666682410424,-0.027777779924251,0.0164933614432812,-0.00855211354792118,0.0198531206697226
5,1.00138890837647,-0.263888898643915,-0.0250000007162294,0.0198531206697226,-0.0134390350431204,0.0222965814173222
5,1.00000001649321,-0.266666682410424,-0.0250000007162294,0.01191187184304,-0.015577063895762,0.0201585534960032
5,1.00000001649321,-0.266666682410424,-0.0250000007162294,0.015577063895762,-0.0226020142436027,0.0207694191485643
5,1.00138890837647,-0.272222225631511,-0.026388891079988,0.0207694191485643,-0.0293215326964855,0.02382374368608
5,1.00000001649321,-0.272222225631511,-0.029166668768514,0.0335975885391235,-0.0259617734700441,0.0177150927484035
5,1.00000001649321,-0.272222225631511,-0.029166668768514,0.0397062413394451,-0.0265726372599602,0.0219911485910416
5,1.00833336779274,-0.273611117514765,-0.0250000007162294,0.03176499158144,-0.00610865233466029,0.0189368221908808
5,1.00277780025972,-0.268055574293678,-0.029166668768514,0.0293215326964855,-0.0131336031481624,0.0122173046693206
5,1.00277780025972,-0.268055574293678,-0.029166668768514,0.0167987942695618,-0.00855211354792118,0.0128281703218818
5,1.00277780025972,-0.265277790527169,-0.0222222230277034,0.0167987942695618,-0.0131336031481624,0.0106901414692402
5,1.00555558402623,-0.265277790527169,-0.0347222241455659,0.029626963660121,-0.0164933614432812,0.00763581553474069
5,1.00555558402623,-0.265277790527169,-0.0347222241455659,0.0299323964864016,-0.0131336031481624,0.0033597587607801
5,1.00694447590948,-0.262500006760661,-0.029166668768514,0.0280998013913631,-0.00733038317412138,0.0045814891345799
5,1.00416669214298,-0.263888898643915,-0.027777779924251,0.0201585534960032,0.00305432616733015,0.0021380283869803
5,1.00416669214298,-0.263888898643915,-0.027777779924251,0.0268780700862408,-0.00427605677396059,-0.00733038317412138
5,1.00000001649321,-0.256944463539574,-0.029166668768514,0.0290160998702049,-0.00488692196086049,0.00305432616733015
5,1.00555558402623,-0.268055574293678,-0.030555557612777,0.0256563406437635,-0.0219911485910416,0.000610865245107561
5,1.00694447590948,-0.265277790527169,-0.0250000007162294,0.0290160998702049,-0.0134390350431204,0.00977384392172098
5,1.0125000434425,-0.263888898643915,-0.03194444645704,0.0268780700862408,0.000610865245107561,0.00610865233466029
5,1.00694447590948,-0.265277790527169,-0.029166668768514,0.0262672062963247,-0.00977384392172098,0.00519235478714108
5,1.00416669214298,-0.262500006760661,-0.0152777788063885,0.0134390350431204,-0.0201585534960032,-0.00122173049021512
5,1.00000001649321,-0.258333331110899,-0.0236111118719664,0.01588249579072,-0.0302378293126821,0.000916297896765172
5,1.00555558402623,-0.261111114877407,-0.0250000007162294,0.0201585534960032,-0.0226020142436027,0.00244346098043024
5,1.00416669214298,-0.259722222994153,-0.03194444645704,0.0189368221908808,-0.0210748501121998,-0.00427605677396059
5,1.00138890837647,-0.262500006760661,-0.026388891079988,0.0125227374956012,-0.0171042270958424,0.000305432622553781
5,1.00694447590948,-0.265277790527169,-0.0250000007162294,0.01588249579072,-0.0131336031481624,-0.00183259579353034
5,1.00694447590948,-0.261111114877407,-0.026388891079988,0.013744467869401,-0.0161879286170006,0.00183259579353034
5,1.00555558402623,-0.262500006760661,-0.03194444645704,0.00794124789535999,-0.0134390350431204,0.00763581553474069
5,1.00277780025972,-0.262500006760661,-0.0361111129898289,0.01191187184304,-0.0177150927484035,-0.00366519158706069
5,1.00416669214298,-0.259722222994153,-0.0347222241455659,0.00305432616733015,-0.0146607663482428,0.000610865245107561
5,1.00555558402623,-0.259722222994153,-0.0361111129898289,0.00397062394768,-0.0189368221908808,-0.00671951752156019
5,1.00555558402623,-0.268055574293678,-0.0347222241455659,-0.0027488935738802,-0.00946841109544039,-0.0122173046693206
5,1.00694447590948,-0.266666682410424,-0.03194444645704,0.00122173049021512,-0.0106901414692402,-0.00855211354792118
5,1.00416669214298,-0.262500006760661,-0.0222222230277034,0.00488692196086049,-0.00427605677396059,-0.00671951752156019
5,1.00138890837647,-0.263888898643915,-0.0194444453391775,0.00488692196086049,-0.01191187184304,-0.011606439948082
5,1.00555558402623,-0.265277790527169,-0.0194444453391775,0.00152716308366507,-0.019547687843442,-0.0164933614432812
5,1.00416669214298,-0.265277790527169,-0.03194444645704,0.0033597587607801,-0.0235183127224445,-0.015577063895762
5,1.00277780025972,-0.262500006760661,-0.029166668768514,0.000916297896765172,-0.0198531206697226,-0.01191187184304
5,1.00138890837647,-0.269444466176932,-0.0180555564949145,0.00824668072164059,-0.0232128798961639,-0.00946841109544039
5,1.00972225967599,-0.269444466176932,-0.0180555564949145,-0.00794124789535999,-0.0204639863222837,-0.00885754637420177
5,1.00555558402623,-0.265277790527169,-0.033333335301303,-0.000610865245107561,-0.0180205255746841,-0.0100792767480016
5,1.00555558402623,-0.263888898643915,-0.0388888906783549,0.00427605677396059,-0.0201585534960032,-0.0146607663482428
5,1.00555558402623,-0.265277790527169,-0.03194444645704,-0.000305432622553781,-0.017409659922123,-0.00733038317412138
5,1.00555558402623,-0.265277790527169,-0.03194444645704,-0.00488692196086049,-0.0183259565383196,-0.00244346098043024
5,1.00277780025972,-0.262500006760661,-0.0361111129898289,0.00244346098043024,-0.0122173046693206,-0.00946841109544039
5,1.00416669214298,-0.262500006760661,-0.0347222241455659,0.000610865245107561,-0.01191187184304,-0.000610865245107561
5,1.00555558402623,-0.269444466176932,-0.03194444645704,-0.00183259579353034,-0.00183259579353034,-0.00549778714776039
5,1.00833336779274,-0.266666682410424,-0.03194444645704,-0.00916297826915979,-0.00671951752156019,-0.00519235478714108
5,1.00555558402623,-0.265277790527169,-0.0416666683668809,-0.00183259579353034,-0.00824668072164059,-0.0113010071218014
5,1.00555558402623,-0.268055574293678,-0.0388888906783549,0.00427605677396059,-0.0106901414692402,-0.00305432616733015
5,1.00555558402623,-0.261111114877407,-0.0361111129898289,-0.00152716308366507,-0.0103847095742822,-0.00916297826915979
5,1.00416669214298,-0.262500006760661,-0.0347222241455659,-0.00610865233466029,-0.00519235478714108,-0.00763581553474069
5,1.00277780025972,-0.262500006760661,-0.027777779924251,-0.00610865233466029,-0.0027488935738802,0.00122173049021512
5,1.00555558402623,-0.263888898643915,-0.0444444460554069,-0.0103847095742822,-0.00122173049021512,0.00366519158706069
5,1.00000001649321,-0.259722222994153,-0.0375000018340919,-0.00366519158706069,-0.0180205255746841,0.0100792767480016
5,1.00972225967599,-0.261111114877407,-0.03194444645704,-0.00580321997404099,-0.0186313893646002,0.00641408516094089
5,1.0125000434425,-0.259722222994153,-0.03194444645704,-0.00427605677396059,-0.017409659922123,0.0125227374956012
5,1.01111115155925,-0.261111114877407,-0.0361111129898289,-0.0100792767480016,-0.0109955742955208,0.0033597587607801
5,1.00138890837647,-0.256944463539574,-0.033333335301303,-0.017409659922123,-0.0140499006956816,0.0164933614432812
5,0.99583334084345,-0.258333331110899,-0.0361111129898289,-0.00916297826915979,-0.021685715764761,0.0171042270958424
5,1.00555558402623,-0.262500006760661,-0.0361111129898289,-0.00946841109544039,-0.0146607663482428,0.0167987942695618
5,1.00416669214298,-0.263888898643915,-0.0347222241455659,-0.00855211354792118,-0.0109955742955208,0.0128281703218818
5,1.00416669214298,-0.263888898643915,-0.0347222241455659,-0.0134390350431204,-0.00702495034784079,0.00977384392172098
5,1.00555558402623,-0.266666682410424,-0.0402777795226179,-0.00977384392172098,-0.00549778714776039,0.00183259579353034
5,1.00555558402623,-0.269444466176932,-0.027777779924251,-0.00305432616733015,-0.00427605677396059,0.00946841109544039
5,1.00000001649321,-0.265277790527169,-0.033333335301303,0.00794124789535999,-0.0128281703218818,0.00946841109544039
5,1.00138890837647,-0.266666682410424,-0.030555557612777,0.00488692196086049,-0.0171042270958424,0.00977384392172098
5,1.00555558402623,-0.268055574293678,-0.0444444460554069,0.0103847095742822,-0.011606439948082,0.0177150927484035
5,1.00416669214298,-0.268055574293678,-0.0486111125881959,0.00855211354792118,-0.00183259579353034,0.00763581553474069
5,1.00138890837647,-0.272222225631511,-0.0458333348996699,0.0113010071218014,-0.00702495034784079,0.0128281703218818
5,0.997222232726705,-0.272222225631511,-0.0388888906783549,0.0109955742955208,-0.0128281703218818,0.00824668072164059
5,1.00555558402623,-0.273611117514765,-0.0430555572111439,0.0213802829384804,-0.0146607663482428,0.00824668072164059
5,1.00972225967599,-0.272222225631511,-0.0361111129898289,0.0299323964864016,-0.00916297826915979,0.0045814891345799
5,1.00972225967599,-0.277777793164528,-0.03194444645704,0.0256563406437635,-0.0033597587607801,0.000305432622553781
5,1.00416669214298,-0.272222225631511,-0.0388888906783549,0.02382374368608,0.00946841109544039,-0.00733038317412138
5,1.00277780025972,-0.265277790527169,-0.0361111129898289,0.0262672062963247,0.00733038317412138,-0.00549778714776039
5,1.00277780025972,-0.262500006760661,-0.0361111129898289,0.0241291765123606,0.000305432622553781,-0.0027488935738802
5,1.00555558402623,-0.265277790527169,-0.0361111129898289,0.0384845100343227,0.00122173049021512,-0.00794124789535999
5,1.00833336779274,-0.266666682410424,-0.030555557612777,0.0311541277915239,-0.00397062394768,-0.01191187184304
5,1.00555558402623,-0.268055574293678,-0.0388888906783549,0.0335975885391235,-0.00519235478714108,-0.00885754637420177
5,1.00555558402623,-0.269444466176932,-0.0347222241455659,0.0314595587551594,0.00427605677396059,-0.00733038317412138
5,1.00277780025972,-0.265277790527169,-0.0388888906783549,0.0253509078174829,0.00549778714776039,-0.00244346098043024
5,1.00277780025972,-0.259722222994153,-0.03194444645704,0.0256563406437635,-0.000916297896765172,-0.0100792767480016
5,1.00555558402623,-0.261111114877407,-0.03194444645704,0.0241291765123606,-0.00702495034784079,-0.0027488935738802
5,1.00416669214298,-0.266666682410424,-0.027777779924251,0.0299323964864016,-0.00366519158706069,-0.000610865245107561
5,1.00555558402623,-0.265277790527169,-0.029166668768514,0.0262672062963247,-0.00152716308366507,0.00427605677396059
5,1.00416669214298,-0.262500006760661,-0.033333335301303,0.0226020142436027,-0.0045814891345799,0.00244346098043024
5,1.00138890837647,-0.263888898643915,-0.029166668768514,0.017409659922123,-0.00427605677396059,0.00763581553474069
5,1.00277780025972,-0.265277790527169,-0.029166668768514,0.021685715764761,-0.00977384392172098,0.0122173046693206
5,1.00694447590948,-0.263888898643915,-0.026388891079988,0.017409659922123,-0.0125227374956012,0.00702495034784079
5,1.00694447590948,-0.262500006760661,-0.03194444645704,0.0167987942695618,-0.00641408516094089,0.0033597587607801
5,1.00555558402623,-0.262500006760661,-0.0388888906783549,0.00824668072164059,-0.013744467869401,0.00855211354792118
5,1.00416669214298,-0.265277790527169,-0.0388888906783549,0.00397062394768,-0.00977384392172098,-0.00305432616733015
5,1.00555558402623,-0.265277790527169,-0.0347222241455659,0.000610865245107561,-0.00610865233466029,-0.0033597587607801
5,1.00555558402623,-0.265277790527169,-0.0416666683668809,-0.00610865233466029,-0.00397062394768,-0.00183259579353034
5,1.00277780025972,-0.262500006760661,-0.03194444645704,0.000916297896765172,-0.0027488935738802,0.00152716308366507
5,1.00138890837647,-0.265277790527169,-0.0444444460554069,-0.00122173049021512,-0.0100792767480016,0.00244346098043024
5,1.00555558402623,-0.265277790527169,-0.0375000018340919,0.00183259579353034,-0.015577063895762,-0.0027488935738802
5,1.00972225967599,-0.263888898643915,-0.0375000018340919,0.00397062394768,-0.00641408516094089,-0.0033597587607801
5,1.00277780025972,-0.259722222994153,-0.0458333348996699,-0.0180205255746841,-0.00397062394768,-0.00244346098043024
5,1.00277780025972,-0.259722222994153,-0.0458333348996699,-0.0106901414692402,-0.00427605677396059,0.0033597587607801
5,1.00277780025972,-0.262500006760661,-0.052777782159976,-0.0103847095742822,-0.00427605677396059,-0.00152716308366507
5,1.01111115155925,-0.262500006760661,-0.0361111129898289,-0.01588249579072,-0.00671951752156019,0.00366519158706069
5,1.00555558402623,-0.265277790527169,-0.0388888906783549,-0.0226020142436027,-0.00885754637420177,0.0027488935738802
