Activity,acc_x,acc_y,acc_z,gyro_x,gyro_y,gyro_z
0,0.543055559379768,0.0875000002275597,0.844444514559616,-0.0885754600167274,0.0931569486856461,-0.017409659922123
0,0.531944472937593,0.0819444448505077,0.843055622676362,-0.0678060427308083,0.0830776765942574,-0.00183259579353034
0,0.519444445988306,0.0916666697993398,0.831944487610329,-0.0378736443817616,0.0971275717020035,0.0021380283869803
0,0.519444445988306,0.0916666697993398,0.831944487610329,-0.0378736443817616,0.0971275717020035,0.0021380283869803
0,0.519444445988306,0.0916666697993398,0.831944487610329,-0.0323758572340012,0.0791070461273193,-0.0033597587607801
0,0.519444445988306,0.0916666697993398,0.831944487610329,-0.0348193198442459,0.0568104684352875,0.000305432622553781
0,0.522222229754814,0.0847222225390337,0.848611190209378,-0.0131336031481624,0.0525344125926495,0.0033597587607801
0,0.519444445988306,0.0819444448505077,0.858333336144441,-0.0332921557128429,0.01191187184304,0.01588249579072
0,0.518055554105052,0.0833333367337618,0.870833363093728,-0.0461203269660473,-0.0519235469400883,0.0100792767480016
0,0.522222229754814,0.0847222225390337,0.85138887672817,-0.0497855171561241,-0.0329867228865623,0.00580321997404099
0,0.522222229754814,0.0833333367337618,0.85138887672817,-0.0418442711234093,-0.0308486949652433,-0.000916297896765172
0,0.525000013521323,0.0777777813567098,0.858333336144441,-0.0452040284872055,-0.0369573459029198,-0.0250454749912024
0,0.527777797287831,0.0736111117849297,0.858333336144441,-0.0430659987032413,-0.0021380283869803,-0.00549778714776039
0,0.536111148587356,0.0722222259796579,0.855555552377932,-0.0134390350431204,0.110566608607769,0.00305432616733015
0,0.529166689171085,0.0666666706026059,0.873611146860236,0.0445931628346443,0.199752941727638,-0.00366519158706069
0,0.513888927079148,0.0680555564078778,0.870833363093728,0.0592539273202419,0.0952949747443199,-0.00824668072164059
0,0.512500035195893,0.0652777787193518,0.861111119910949,0.106290549039841,0.0668897479772568,-0.00305432616733015
0,0.515277818962402,0.0680555564078778,0.844444514559616,0.0766635909676552,-0.0320704244077206,-0.00305432616733015
0,0.515277818962402,0.0680555564078778,0.85138887672817,0.0125227374956012,-0.167377084493637,0.000610865245107561
0,0.519444445988306,0.0666666706026059,0.844444514559616,0.000610865245107561,-0.0549778714776039,-0.0033597587607801
0,0.525000013521323,0.0736111117849297,0.861111119910949,-0.00366519158706069,0.10048733651638,-0.015577063895762
0,0.525000013521323,0.0722222259796579,0.86805557932722,-0.0213802829384804,0.0995710343122482,-0.0192422550171614
0,0.525000013521323,0.0722222259796579,0.865277795560711,-0.0574213340878487,0.0226020142436027,-0.0354301854968071
0,0.525000013521323,0.0722222259796579,0.865277795560711,-0.0736092627048492,-0.00305432616733015,-0.0384845100343227
0,0.515277818962402,0.0597222233422998,0.866666687443965,-0.0675006061792374,0.0436768643558025,-0.0467311926186085
0,0.509722251429385,0.0486111125881959,0.863888903677457,-0.05283984541893,0.12156218290329,-0.0430659987032413
0,0.512500035195893,0.052777782159976,0.870833363093728,-0.0778853222727776,0.19058994948864,-0.0558941699564457
0,0.511111143312639,0.0486111125881959,0.870833363093728,-0.109344877302647,0.302378296852112,-0.0339030213654041
0,0.493055597454194,0.0472222237439329,0.862500011794203,-0.154548913240433,0.306043475866318,-0.013744467869401
0,0.488888921804431,0.0486111125881959,0.861111119910949,-0.183565005660057,0.264504641294479,0.0128281703218818
0,0.479166678621653,0.0430555572111439,0.869444471210474,-0.137139245867729,0.320704251527786,-0.0131336031481624
0,0.469444484062732,0.0416666683668809,0.877777822509998,-0.0852157026529312,0.230296194553375,-0.0247400421649218
0,0.479166678621653,0.0416666683668809,0.880555606276507,-0.0293215326964855,0.18020524084568,-0.0519235469400883
0,0.488888921804431,0.0541666679652478,0.894444525109048,-0.013744467869401,0.200974673032761,-0.0699440687894821
0,0.481944462388161,0.0583333375370279,0.881944498159761,-0.0751364231109619,0.0357356183230877,-0.0574213340878487
0,0.476388894855144,0.0583333375370279,0.884722281926269,-0.120340451598167,-0.17470745742321,-0.0448985956609249
0,0.486111138037923,0.0625000010308258,0.872222254976982,-0.0879645943641663,-0.107206851243973,-0.076052725315094
0,0.488888921804431,0.0722222259796579,0.86805557932722,-0.0922406539320946,0.0632245540618896,-0.108428582549095
0,0.49166670557094,0.0763888894734557,0.870833363093728,-0.170736834406853,0.10598511993885,-0.110261179506779
0,0.502777792013115,0.0763888894734557,0.893055633225794,-0.18509216606617,0.104457959532738,-0.123394779860973
0,0.509722251429385,0.0652777787193518,0.909722238577127,-0.15851953625679,0.152105450630188,-0.125532805919647
0,0.497222224480098,0.0597222233422998,0.905555562927365,-0.125838235020638,0.101709060370922,-0.135306656360626
0,0.493055597454194,0.0486111125881959,0.884722281926269,-0.135306656360626,0.0143553335219622,-0.136833816766739
0,0.493055597454194,0.0430555572111439,0.881944498159761,-0.147523954510689,-0.0632245540618896,-0.0907134860754013
0,0.49166670557094,0.0458333348996699,0.884722281926269,-0.124005645513535,-0.0763581544160843,-0.0769690200686455
0,0.495833332596844,0.0444444460554069,0.890277849459286,-0.0659734457731247,-0.0180205255746841,-0.0870482996106148
0,0.493055597454194,0.0458333348996699,0.887500065692777,-0.0332921557128429,0.0470366254448891,-0.0717766657471657
0,0.479166678621653,0.0486111125881959,0.87500003874349,-0.0445931628346443,0.0152716310694814,-0.0775798857212067
0,0.480555570504907,0.0513888902767219,0.87500003874349,-0.037568211555481,0.0204639863222837,-0.0815505087375641
0,0.490277813687686,0.052777782159976,0.880555606276507,-0.0329867228865623,0.0736092627048492,-0.0956004112958908
0,0.477777786738398,0.055555559848502,0.87500003874349,-0.0940732508897781,0.0146607663482428,-0.0693332031369209
0,0.477777786738398,0.055555559848502,0.87500003874349,-0.129503428936005,-0.0806342139840126,-0.0745255574584007
0,0.49166670557094,0.0722222259796579,0.898611103511094,-0.144164204597473,-0.102014496922493,-0.0595593601465225
0,0.49166670557094,0.0722222259796579,0.898611103511094,-0.0910189226269722,-0.0372627787292004,-0.0656680166721344
0,0.49166670557094,0.0500000014324589,0.92083337364316,-0.0662788823246956,0.0326812900602817,-0.0638354197144508
0,0.488888921804431,0.0416666683668809,0.899999995394348,-0.0852157026529312,0.153938040137291,-0.0723875313997269
0,0.488888921804431,0.0416666683668809,0.899999995394348,-0.105374254286289,0.223882108926773,-0.0638354197144508
0,0.483333354271415,0.03194444645704,0.89722221162784,-0.193338856101036,0.155770644545555,-0.0284052342176437
0,0.466666700296224,0.027777779924251,0.890277849459286,-0.143553331494331,0.189368233084679,-0.0583376325666905
0,0.437500019371745,0.0222222230277034,0.890277849459286,-0.115148097276688,0.104457959532738,-0.0784961804747581
0,0.437500019371745,0.0125000003581147,0.879166714393253,-0.128892570734024,-0.00702495034784079,-0.0488692186772823
0,0.430555559955475,0.0125000003581147,0.873611146860236,-0.124005645513535,-0.188146501779556,-0.0412334054708481
0,0.458333348996699,0.0152777788063885,0.87500003874349,-0.107512280344963,-0.283441483974457,-0.0836885422468185
0,0.466666700296224,0.0125000003581147,0.873611146860236,-0.0662788823246956,-0.330783516168594,-0.102625362575054
0,0.490277813687686,0.0111111115138517,0.879166714393253,-0.0305432621389627,-0.356745302677154,-0.127670839428902
0,0.502777792013115,0.0152777788063885,0.893055633225794,-0.00549778714776039,-0.245262399315834,-0.151189148426056
0,0.509722251429385,0.0180555564949145,0.887500065692777,-0.0378736443817616,-0.173791155219078,-0.167071640491486
0,0.513888927079148,0.0208333341834404,0.86805557932722,-0.0729983970522881,-0.130419731140137,-0.168293371796608
0,0.515277818962402,0.0152777788063885,0.866666687443965,-0.0885754600167274,-0.249843880534172,-0.144164204597473
0,0.533333364820847,0.00277777787846293,0.880555606276507,-0.0965167060494423,-0.180816113948822,-0.119729585945606
0,0.530555581054339,-0.00416666691266287,0.880555606276507,-0.0815505087375641,-0.0287106670439243,-0.142331600189209
0,0.486111138037923,0.0125000003581147,0.86805557932722,-0.131030589342117,0.173180297017098,-0.198225766420364
0,0.458333348996699,0.0194444453391775,0.856944444261187,-0.25411993265152,0.292909890413284,-0.266948103904724
0,0.372222246730376,0.101388894748172,0.82222224442755,-0.515875697135925,0.0247400421649218,-0.149356558918953
0,0.452777781463682,-0.0125000003581147,0.745833336720147,-0.922101080417633,-1.14964842796326,-0.278859972953796
0,0.459722240879953,-0.0583333375370279,0.775000017644626,-0.802066087722778,-0.609948933124542,-0.000305432622553781
0,0.406944470875941,-0.0666666706026059,0.827777811960566,-0.315206468105316,0.872315585613251,0.0830776765942574
0,0.404166687109433,-0.0458333348996699,0.819444460661041,-0.106595985591412,1.6667457818985,0.01588249579072
0,0.369444462963867,-0.03194444645704,0.777777801411134,-0.359188765287399,1.26754534244537,-0.0757472887635231
0,0.375000006184955,-0.030555557612777,0.815277785011279,-0.765719592571259,0.682031035423279,-0.0849102661013603
0,0.372222246730376,-0.0541666679652478,0.818055568777787,-0.930347740650177,0.218689754605293,-0.189979091286659
0,0.325000019947452,-0.0458333348996699,0.826388920077312,-0.892779529094696,0.171042263507843,-0.111788339912891
0,0.325000019947452,-0.0458333348996699,0.826388920077312,-0.672868072986603,0.306348919868469,-0.0180205255746841
0,0.29166668768514,-0.1194444466846,0.899999995394348,-0.452651143074036,0.504880130290985,0.214413702487946
0,0.298611122789481,-0.144444451959316,0.926388941176177,-0.372016936540604,0.294742494821549,0.651793241500854
0,0.298611122789481,-0.144444451959316,0.926388941176177,-0.202501833438873,1.45691359043121,0.481056392192841
0,0.118055554801345,-0.0875000002275597,0.887500065692777,-0.0665843114256859,2.13894462585449,0.39125919342041
0,0.325000019947452,-0.141666668192807,0.898611103511094,-0.408363401889801,2.13130879402161,0.795651972293854
0,0.351388892793493,-0.186111123365188,0.925000049292922,-0.732122004032135,1.17194497585297,0.233961388468742
0,0.320833344297689,-0.233333350148112,0.990277773310434,-0.671951770782471,1.16736352443695,0.292909890413284
0,0.362500003547597,-0.25555557165632,1.0305556379248,-0.49235737323761,1.42514860630035,0.369573473930359
0,0.518055554105052,-0.387500008822313,1.03750000009336,-0.548251569271088,1.25410640239716,0.0219911485910416
0,0.49166670557094,-0.456944457113445,0.944444438410764,-0.98929625749588,1.3790283203125,-0.0525344125926495
0,0.466666700296224,-0.383333357484479,0.883333390043015,-1.59832894802094,0.847880959510803,-0.110261179506779
0,0.562499997121468,-0.466666700296224,0.844444514559616,-2.62244439125061,-0.477085769176483,0.818253993988037
0,0.508333359546131,-0.493055597454194,0.893055633225794,-3.84845113754273,-3.37075448036194,3.24980306625366
0,0.416666689746791,-0.427777776188966,0.973611167959101,-3.81699156761169,-3.98070335388184,3.08181524276733
0,0.259722222994153,-0.406944470875941,1.00416669214298,-3.38663697242737,-3.86463904380798,2.22477126121521
0,0.179166676104882,-0.58333337537028,1.07361118905796,-2.43490886688232,-2.82800054550171,1.19576871395111
0,0.20138889761309,-0.702777785586986,1.08055555122652,-0.735787212848663,0.282525181770325,0.000916297896765172
0,0.29166668768514,-0.675000045169619,0.893055633225794,-0.380874484777451,0.916297852993011,-0.0180205255746841
0,0.44583337067127,-0.618055575203916,0.676388937052873,-1.48195910453796,-0.608116328716278,0.118202425539494
0,0.393055576355329,-0.558333370095563,0.613888899554154,-3.19482517242432,-2.96330738067627,0.199447497725487
0,0.258333331110899,-0.600000029345471,0.790277828360421,-3.89273881912231,-3.33868408203125,-0.291688144207001
0,0.163888889701015,-0.644444472361887,1.00416669214298,-3.71406078338623,0.499076902866364,-0.79840087890625
0,0.416666689746791,-0.844444514559616,0.834722271376837,-4.09096431732178,3.3747251033783,-1.98653376102448
0,0.390277792588821,-0.663888910103586,0.519444445988306,-5.26901817321777,2.3069326877594,-1.85489237308502
0,0.33750002258481,-0.797222239152834,0.280555576931036,-6.51915407180786,-0.811534464359283,-0.653625786304474
0,0.341666673922643,-0.927777833059431,0.238888893369199,-6.82061576843262,-3.25071930885315,-0.00366519158706069
0,0.393055576355329,-0.811111157985375,0.176388892338373,-5.69448566436768,-2.19025731086731,0.143247902393341
0,0.466666700296224,-0.705555569353494,-0.0819444448505077,-4.56896638870239,-1.4523321390152,-0.413861215114594
0,0.463888916529715,-0.926388941176177,-0.0986111170596459,-2.74309039115906,-1.9190331697464,-1.14079082012176
0,0.426388884305712,-0.983333411141879,-0.0597222233422998,-0.19578230381012,-0.249233022332191,-1.80296874046326
0,0.444444478788016,-0.92083337364316,-0.0652777787193518,0.950811743736267,-0.0250454749912024,-1.18660569190979
0,0.548611126912784,-0.719444488186035,-0.0152777788063885,0.368657171726227,-0.796873688697815,-1.08214783668518
0,0.895833319744586,-0.656944450687316,0.055555559848502,-0.495717138051987,-0.76694130897522,-0.193338856101036
0,1.00277780025972,-0.836111163260091,-0.0819444448505077,-1.94194066524506,-1.00059723854065,2.84602117538452
0,0.670833369519857,-0.698611158561081,-0.0861111144222878,-2.16276836395264,-0.805731236934662,2.46361947059631
0,0.538888932353864,-0.687500023495048,-0.163888889701015,-1.59588539600372,-0.456621766090393,1.94132971763611
0,0.555555586329055,-0.954166681593543,-0.144444451959316,-1.19454693794251,-0.755334854125977,1.26113128662109
0,0.555555586329055,-0.954166681593543,-0.144444451959316,-1.33993291854858,-1.27640295028687,0.717766642570496
0,0.416666689746791,-0.837500055143345,-0.13750000469901,-1.40957152843475,-1.3011429309845,1.02136671543121
0,0.377777789951463,-0.712500028769764,-0.184722231481934,-1.32954823970795,-0.976162672042847,0.989907145500183
0,0.438888911254999,-0.693055591028065,-0.279166685047782,-1.20554256439209,-0.0189368221908808,0.382096201181412
0,0.438888911254999,-0.693055591028065,-0.279166685047782,-1.44927775859833,-0.430049121379852,0.172263994812965
0,0.212499996211229,-0.823611136310804,-0.283333336385615,-1.42423236370087,-1.16033852100372,0.167071640491486
0,0.212499996211229,-0.823611136310804,-0.283333336385615,-0.750447928905487,-0.356134444475174,0.189979091286659
0,0.15555556271342,-0.931944508709193,-0.224999998848587,-0.226631000638008,0.696386396884918,0.320398807525635
0,0.175000000455119,-0.82916670384382,-0.329166671285285,-0.213497400283814,0.721126437187195,0.197004035115242
0,0.331944455051793,-0.806944482335612,-0.422222257279808,-0.255341678857803,0.254425376653671,-0.828638732433319
0,0.576388915954009,-0.89722221162784,-0.584722267253534,0.471282541751862,-0.621555387973785,0.655763864517212
0,0.558333370095563,-1.12777777800944,-0.493055597454194,0.972497463226318,-0.136528387665749,0.985325634479523
0,0.400000011459671,-0.947222222177272,-0.468055592179478,1.13101696968079,0.0433714315295219,0.364381104707718
0,0.380555573717971,-0.806944482335612,-0.483333354271415,0.965167105197906,0.11636982858181,-0.833220183849335
0,0.351388892793493,-0.745833336720147,-0.441666695021508,1.0656543970108,1.01250910758972,-2.78218579292297
0,0.354166676560001,-0.805555590452358,-0.408333338447267,1.22692286968231,1.05710232257843,-4.50849103927612
0,0.452777781463682,-1.11944452395763,-0.341666673922643,1.58336269855499,0.134695783257484,-3.71436619758606
0,0.555555586329055,-1.01805561097552,-0.325000019947452,1.89948546886444,0.137139245867729,-3.37777948379517
0,0.63888890482887,-0.998611124609959,-0.288888903918631,2.08030152320862,0.552833020687103,-3.76873302459717
0,0.590277786162692,-0.751388904253164,-0.308333341660331,1.04091441631317,0.545502662658691,-3.27057242393494
0,0.698611158561081,-0.715277812536273,-0.0944444474878658,-1.12704634666443,-0.0131336031481624,-2.50088238716125
0,0.700000001820477,-0.663888910103586,-0.170833336961321,-1.69026410579681,0.509767055511475,-3.11816167831421
0,0.797222239152834,-0.666666693870094,-0.188888894975731,-1.64750361442566,-0.0455094613134861,-3.21437287330627
0,0.712500028769764,-0.651388931778157,-0.170833336961321,-1.68385004997253,0.449902266263962,-3.69787287712097
0,0.647222256128395,-0.548611126912784,-0.193055558469529,-1.95293617248535,0.23304508626461,-3.85547590255737
0,0.715277812536273,-0.509722251429385,-0.215277779977737,-2.02624011039734,-0.238848313689232,-4.27422428131104
0,0.861111119910949,-0.301388906555989,-0.550000018796039,-0.350025773048401,-1.69912171363831,-4.33011817932129
0,0.815277785011279,-0.163888889701015,-0.63888890482887,0.898582756519318,-1.40437924861908,-4.65326595306396
0,0.715277812536273,0.0152777788063885,-0.413888905980283,-0.869566679000854,-0.711658000946045,-6.67003774642944
0,0.548611126912784,0.216666671860991,-0.287500012035377,-0.0128281703218818,5.29467439651489,-6.87986993789673
0,1.2013889505742,-0.03194444645704,-0.316666668647927,-0.981660425662994,4.29041194915771,-4.70610570907593
0,1.4555555817234,-0.03194444645704,-0.412500014097029,-0.326812893152237,1.29198002815247,-1.51464033126831
0,1.30416675543957,0.170833336961321,-0.301388906555989,-0.0827722400426865,0.715323209762573,-0.59650993347168
0,1.30416675543957,0.170833336961321,-0.301388906555989,-0.156686931848526,0.470671683549881,-0.242513507604599
0,0.95000000594378,0.126388893944906,-0.125000002061652,-0.187841057777405,0.0855211317539215,-0.281914323568344
0,0.915277806110144,0.126388893944906,-0.195833342236038,0.0916297882795334,0.310319542884827,0.114537231624126
0,0.915277806110144,0.126388893944906,-0.195833342236038,0.263588339090347,0.136528387665749,0.143553331494331
0,0.99583334084345,0.248611112240049,-0.230555566381603,0.0134390350431204,-0.101098194718361,0.335975885391235
0,1.1652778588573,0.144444451959316,-0.198611113846581,0.0241291765123606,-0.487470477819443,0.240070044994354
0,1.1652778588573,0.144444451959316,-0.198611113846581,0.263588339090347,-0.956920385360718,1.43095183372498
0,1.14305558872524,0.055555559848502,-0.348611133338914,0.340862810611725,-1.17927539348602,2.48866510391235
0,1.11666674019113,0.0194444453391775,-0.226388890731841,0.508545339107513,-0.541532039642334,1.45477557182312
0,0.788888936477167,0.18333333959868,-0.144444451959316,-0.141415297985077,-0.478918343782425,0.585208892822266
0,0.930555616825939,0.0930555616825939,-0.237500001485945,-0.126143679022789,-0.188146501779556,0.458454370498657
0,0.931944508709193,0.17361112072783,-0.265277790527169,-0.119118720293045,0.148134827613831,0.257785141468048
0,0.923611157409668,0.1194444466846,-0.233333350148112,0.0250454749912024,0.291993588209152,0.157908663153648
0,0.986111194908388,0.0458333348996699,-0.223611131277262,0.0326812900602817,0.255952537059784,0.0937678143382072
0,0.990277773310434,0.0125000003581147,-0.243055569018962,0.0143553335219622,0.215330004692078,0.207388743758202
0,0.952777789710289,0.029166668768514,-0.244444460902216,-0.0256563406437635,0.253509074449539,0.360715925693512
0,0.95000000594378,0.03194444645704,-0.24583335278547,-0.0131336031481624,0.301767438650131,0.425162196159363
0,0.986111194908388,0.029166668768514,-0.229166674498349,0.203723564743996,0.580321967601776,0.516486585140228
0,0.99583334084345,-0.0180555564949145,-0.175000000455119,0.420275300741196,0.988990843296051,0.745866477489471
0,0.813888941751883,0.0222222230277034,-0.187500003092477,0.286495804786682,1.06260013580322,1.19424152374268
0,0.863888903677457,0.030555557612777,-0.202777789496344,0.212275668978691,1.42942464351654,1.50761544704437
0,0.905555562927365,0.0388888906783549,-0.193055558469529,0.0470366254448891,1.79075145721436,1.78036677837372
0,1.03750000009336,0.00277777787846293,-0.17361112072783,-0.271835029125214,1.34359812736511,1.60443758964539
0,1.22361112345855,-0.202777789496344,-0.0750000036681839,0.013744467869401,0.884227454662323,0.944703102111816
0,1.29027783660703,-0.2194444556275,-0.033333335301303,0.23823744058609,0.543364644050598,0.275500237941742
0,1.2041667343407,-0.213888888094483,0.00555555575692586,0.310319542884827,0.0754418596625328,-0.0131336031481624
0,1.08194444310977,-0.200000005729836,-0.14722222356986,0.0946841165423393,0.521984338760376,-0.158824965357781
0,1.05694448645892,-0.186111123365188,-0.266666682410424,-0.61850106716156,1.6701055765152,-0.216246291995048
0,0.95000000594378,-0.0750000036681839,0.0250000007162294,-0.434936046600342,1.03663837909699,-0.155770644545555
0,0.979166735492117,-0.0833333367337618,0.0500000014324589,-0.355218142271042,0.531452775001526,-0.0488692186772823
0,0.968055600426084,-0.181944447715425,0.00416666691266287,-0.253509074449539,0.496633440256119,-0.113315500319004
0,1.01805561097552,-0.162500009973726,0.0583333375370279,-0.0513126812875271,0.208610475063324,-0.118813291192055
0,1.01527782720901,-0.154166670830166,0.00555555575692586,-0.128587126731873,0.275500237941742,-0.24312436580658
0,1.00277780025972,-0.150000007336368,0.0486111125881959,-0.0149661982432008,0.0473420582711697,-0.341168224811554
0,1.03888889197661,-0.111111119697004,0.0347222241455659,0.00671951752156019,-0.0103847095742822,-0.200974673032761
0,1.02916674604155,-0.0944444474878658,0.026388891079988,0.00183259579353034,-0.0348193198442459,-0.172569438815117
0,0.991666665193688,-0.118055554801345,0.0583333375370279,-0.204028993844986,0.394313514232635,-0.234877690672875
0,1.02916674604155,-0.101388894748172,0.0138888899621255,-0.125532805919647,0.194560587406159,-0.140804439783096
0,1.02500007039179,-0.108333335930496,0.0250000007162294,-0.0800233483314514,0.245567828416824,-0.353080123662949
0,0.95000000594378,-0.16527778158427,0.108333335930496,0.113620936870575,0.0757472887635231,-0.737619757652283
0,0.94305554652751,-0.159722226207217,0.0652777787193518,0.170125976204872,0.0427605658769607,-1.03572201728821
0,1.08750001064279,-0.03194444645704,0.055555559848502,0.0995710343122482,0.0885754600167274,-0.687223374843597
0,1.03194452980806,-0.0194444453391775,0.0458333348996699,0.0284052342176437,0.0452040284872055,-0.573297023773193
0,1.05416670269241,-0.0194444453391775,0.0361111129898289,0.0473420582711697,0.00366519158706069,-0.317649930715561
0,1.05972227022542,-0.00694444498106275,0.0388888906783549,0.0226020142436027,-0.0400116741657257,-0.0943786799907684
0,0.983333411141879,-0.0347222241455659,0.0472222237439329,-0.0433714315295219,-0.013744467869401,-0.32284227013588
0,1.00000001649321,-0.0194444453391775,0.0347222241455659,0.0409279726445675,-0.0394008085131645,-0.145385921001434
0,0.975000059842355,-0.0402777795226179,0.0250000007162294,0.104457959532738,0.04764748737216,-0.0647517144680023
0,0.940277860008718,-0.0250000007162294,0.0611111152255539,0.0995710343122482,0.081855945289135,-0.00122173049021512
0,1.0305556379248,-0.0222222230277034,0.029166668768514,0.0262672062963247,0.017409659922123,0.00366519158706069
0,1.00972225967599,-0.0250000007162294,0.0125000003581147,0.03176499158144,0.117896988987923,0.142026171088219
0,0.877777822509998,0.0138888899621255,0.0194444453391775,-0.0803287774324417,0.391870051622391,0.689361453056335
0,0.837500055143345,-0.030555557612777,0.0458333348996699,-0.111788339912891,0.621860802173615,0.83627450466156
0,0.887500065692777,-0.0750000036681839,0.126388893944906,-0.155465200543404,0.509767055511475,1.09833574295044
0,1.18750003174166,-0.138888896582264,0.0722222259796579,0.0952949747443199,0.586125195026398,0.774577140808105
0,1.2819444853075,-0.12777778582816,0.0750000036681839,0.181121543049812,0.394618958234787,0.0647517144680023
0,1.17361111290911,-0.111111119697004,0.0986111170596459,0.234266817569733,0.245262399315834,-0.122783914208412
0,1.08750001064279,-0.0930555616825939,0.118055554801345,0.143858760595322,0.0384845100343227,-0.0140499006956816
0,1.02916674604155,-0.0763888894734557,0.108333335930496,0.0638354197144508,0.0134390350431204,0.0708603709936142
0,1.01805561097552,-0.0902777839940679,0.112499999424294,0.08460483700037,0.00183259579353034,0.0583376325666905
0,1.01666671909226,-0.0930555616825939,0.120833338567854,0.0803287774324417,-0.00885754637420177,-0.0103847095742822
0,1.01527782720901,-0.0944444474878658,0.126388893944906,0.0302378293126821,-0.0241291765123606,-0.0910189226269722
0,1.00277780025972,-0.0777777813567098,0.1194444466846,0.0736092627048492,-0.13744467496872,0.00794124789535999
0,1.01805561097552,-0.0819444448505077,0.112499999424294,0.111788339912891,-0.198836639523506,0.00916297826915979
0,1.04166667574312,-0.0819444448505077,0.0388888906783549,0.081855945289135,-0.113926365971565,-0.0565050356090069
0,1.04166667574312,-0.0777777813567098,0.0402777795226179,-0.0503963828086853,0.177150920033455,-0.0540615729987621
0,1.04722224327614,-0.0583333375370279,0.0583333375370279,-0.182648703455925,0.397978693246841,-0.0302378293126821
0,1.03472221632685,-0.0597222233422998,0.0833333367337618,-0.150578290224075,0.375071257352829,-0.0332921557128429
0,0.98888888142718,-0.0777777813567098,0.143055560076062,-0.0332921557128429,0.208305045962334,0.015577063895762
0,0.998611124609959,-0.0902777839940679,0.154166670830166,0.00152716308366507,0.188146501779556,0.0363464802503586
0,1.01527782720901,-0.0847222225390337,0.112499999424294,-0.0146607663482428,0.266031801700592,0.0406225398182869
0,1.04722224327614,-0.0819444448505077,0.105555564319952,0.0222965814173222,0.32253685593605,-0.0100792767480016
0,1.0125000434425,-0.0791666671619817,0.151388899219622,0.0372627787292004,0.159741267561913,-0.00794124789535999
0,1.00555558402623,-0.0916666697993398,0.150000007336368,0.019547687843442,0.129503428936005,-0.011606439948082
0,1.06250005399193,-0.12916666555545,0.233333350148112,-0.00366519158706069,0.0620028227567673,0.0125227374956012
0,1.04027778385987,-0.0791666671619817,0.144444451959316,-0.121256753802299,0.0708603709936142,-0.0522289797663689
0,1.02916674604155,-0.0750000036681839,0.134722233088466,-0.156381502747536,0.107206851243973,-0.00122173049021512
0,1.00555558402623,-0.0777777813567098,0.163888889701015,-0.078801617026329,0.0488692186772823,-0.0192422550171614
0,1.06111116210868,-0.143055560076062,0.250000004123303,0.0922406539320946,0.0354301854968071,0.021685715764761
0,1.02222228662528,-0.108333335930496,0.179166676104882,0.140193566679955,0.0177150927484035,-0.0531452745199203
0,0.99583334084345,-0.0833333367337618,0.14583334384257,0.0201585534960032,0.0507018156349659,-0.0784961804747581
0,1.00972225967599,-0.0736111117849297,0.108333335930496,-0.0784961804747581,0.145691365003586,-0.0830776765942574
0,1.02222228662528,-0.0750000036681839,0.152777778946911,-0.0568104684352875,0.208305045962334,-0.0986547395586967
0,1.01527782720901,-0.0611111152255539,0.10972222781375,0.116675265133381,0.0897971913218498,-0.0442877300083637
0,1.02222228662528,-0.0750000036681839,0.143055560076062,0.102319926023483,-0.0027488935738802,-0.0543670058250427
0,1.00416669214298,-0.0583333375370279,0.15555556271342,0.0745255574584007,-0.102930791676045,-0.0387899428606033
0,1.01111115155925,-0.0736111117849297,0.175000000455119,0.0684169083833694,-0.212275668978691,-0.0342084541916847
0,1.01666671909226,-0.0819444448505077,0.169444445078067,0.0467311926186085,-0.309403240680695,-0.0180205255746841
0,1.01666671909226,-0.0819444448505077,0.169444445078067,0.0641408488154411,-0.262061178684235,0.0742201283574104
0,0.918055589876652,-0.0680555564078778,0.0972222251763917,0.0623082555830479,-0.132557764649391,0.15332718193531
0,0.980555627375371,-0.0791666671619817,0.0972222251763917,0.00641408516094089,-0.102319926023483,0.0613919571042061
0,0.980555627375371,-0.0791666671619817,0.0972222251763917,0.0256563406437635,0.0513126812875271,0.0531452745199203
0,1.06250005399193,-0.0708333340964038,0.0875000002275597,-0.0656680166721344,0.210443079471588,-0.0415388382971287
0,1.04166667574312,-0.0847222225390337,0.100000002864918,-0.0864374339580536,0.410501450300217,-0.0650571510195732
0,1.04166667574312,-0.0847222225390337,0.100000002864918,-0.211664810776711,0.344222575426102,0.027488935738802
0,1.01527782720901,-0.0791666671619817,0.163888889701015,-0.124311074614525,0.198531210422516,-0.0867428630590439
0,0.993055557076942,-0.055555559848502,0.162500009973726,-0.0189368221908808,0.210443079471588,-0.0488692186772823
0,0.993055557076942,-0.055555559848502,0.162500009973726,0.0815505087375641,-0.0134390350431204,-0.0109955742955208
0,0.969444492309338,-0.0680555564078778,0.202777789496344,0.0167987942695618,0.0177150927484035,-0.029626963660121
0,0.969444492309338,-0.0680555564078778,0.161111118090472,-0.058643065392971,0.273056775331497,-0.01191187184304
0,1.00000001649321,-0.0847222225390337,0.122222230451108,-0.154548913240433,0.253203630447388,-0.0384845100343227
0,1.0125000434425,-0.0750000036681839,0.181944447715425,-0.076052725315094,0.0256563406437635,-0.0357356183230877
0,1.02777785415829,-0.0750000036681839,0.187500003092477,-0.0280998013913631,-0.0558941699564457,-0.0167987942695618
0,1.0333333244436,-0.0722222259796579,0.175000000455119,-0.0027488935738802,-0.0357356183230877,0.00519235478714108
0,1.02083339474202,-0.0694444482911319,0.133333341205212,0.0436768643558025,0.0986547395586967,0.0390953756868839
0,1.00972225967599,-0.0708333340964038,0.163888889701015,0.0607810914516449,0.0360410511493683,0.027488935738802
0,1.00000001649321,-0.0736111117849297,0.193055558469529,0.0497855171561241,-0.130725160241127,-0.0128281703218818
0,0.994444448960196,-0.0750000036681839,0.195833342236038,0.096211276948452,-0.176234617829323,-0.0131336031481624
0,0.99583334084345,-0.0569444456537738,0.172222228844576,0.0134390350431204,-0.140193566679955,0.0326812900602817
0,1.00972225967599,-0.0666666706026059,0.120833338567854,-0.0888808965682983,0.0696386396884918,-0.021685715764761
0,1.01527782720901,-0.0722222259796579,0.161111118090472,-0.0510072484612465,0.0167987942695618,-0.0100792767480016
0,1.03194452980806,-0.0763888894734557,0.159722226207217,-0.0302378293126821,0.03176499158144,-0.01588249579072
0,0.991666665193688,-0.0416666683668809,0.18333333959868,-0.0873537287116051,-0.0363464802503586,0.0537561401724815
0,1.00972225967599,-0.0513888902767219,0.140277788465518,-0.134695783257484,-0.0125227374956012,0.0452040284872055
0,0.991666665193688,-0.0625000010308258,0.187500003092477,-0.16401731967926,-0.259312301874161,0.0482583530247212
0,1.00277780025972,-0.0708333340964038,0.184722231481934,-0.0974330082535744,-0.447764217853546,-0.00885754637420177
0,0.990277773310434,-0.0916666697993398,0.176388892338373,-0.0510072484612465,-0.529314756393433,-0.0372627787292004
0,1.00555558402623,-0.0930555616825939,0.176388892338373,0.0360410511493683,-0.579711139202118,-0.0210748501121998
0,1.04166667574312,-0.0819444448505077,0.0916666697993398,0.0381790772080422,-0.0662788823246956,-0.0369573459029198
0,1.02500007039179,-0.0750000036681839,-0.0236111118719664,0.0952949747443199,0.42363503575325,-0.0342084541916847
0,1.02222228662528,-0.0819444448505077,0.0958333393711199,0.0122173046693206,0.24342979490757,0.0247400421649218
0,1.04861113515939,-0.0847222225390337,0.0986111170596459,-0.170431405305862,-0.354607284069061,0.021685715764761
0,0.975000059842355,-0.0916666697993398,0.156944454596674,-0.0378736443817616,-0.466090172529221,-0.0561996027827263
0,1.05277781080915,-0.0944444474878658,0.0944444474878658,0.00855211354792118,-0.202807262539864,-0.0418442711234093
0,1.04583335139288,-0.0944444474878658,0.12777778582816,0.01191187184304,-0.769690215587616,-0.0635299831628799
0,1.06666672964169,-0.134722233088466,0.12777778582816,0.0766635909676552,-0.128281697630882,-0.0323758572340012
0,1.06388894587519,-0.113888891307548,0.0361111129898289,-0.0427605658769607,0.0894917547702789,0.104763388633728
0,1.03750000009336,-0.0388888906783549,0.0625000010308258,-0.110566608607769,0.280387133359909,0.213497400283814
0,1.02222228662528,-0.0652777787193518,0.0875000002275597,-0.256868839263916,0.297185927629471,0.145996794104576
0,1.0125000434425,-0.0763888894734557,0.116666675074056,-0.0314595587551594,0.30207285284996,0.0714712366461754
0,1.0333333244436,-0.118055554801345,0.123611110178398,-0.136222943663597,0.0867428630590439,-0.0262672062963247
0,0.972222276075846,-0.101388894748172,0.193055558469529,-0.0485637858510017,-0.00702495034784079,-0.0510072484612465
0,1.05277781080915,-0.0777777813567098,0.150000007336368,0.0161879286170006,-0.207083314657211,-0.0751364231109619
0,1.05555559457566,-0.113888891307548,0.180555567988136,0.159741267561913,-0.542448341846466,-0.150272846221924
0,1.01527782720901,-0.115277783190802,0.14583334384257,0.282525181770325,-0.589484989643097,-0.210748508572578
0,1.00138890837647,-0.100000002864918,0.125000002061652,0.384234249591827,-0.509156167507172,-0.170431405305862
0,1.00416669214298,-0.0430555572111439,0.0666666706026059,0.420580714941025,-0.191811680793762,-0.0458148941397667
0,1.03888889197661,-0.03194444645704,0.00972222266958873,0.222965821623802,0.0855211317539215,-0.00397062394768
0,1.05416670269241,-0.0222222230277034,-0.0180555564949145,-0.0384845100343227,0.207999616861343,0.017409659922123
0,1.02500007039179,-0.026388891079988,0.0541666679652478,-0.12675453722477,0.140193566679955,0.0369573459029198
0,0.993055557076942,-0.052777782159976,0.0847222225390337,-0.109955742955208,0.224187538027763,0.0339030213654041
0,1.00277780025972,-0.0541666679652478,0.0944444474878658,-0.119118720293045,0.330172657966614,0.0592539273202419
0,1.02083339474202,-0.0472222237439329,0.0750000036681839,-0.158214092254639,0.275500237941742,0.0549778714776039
0,0.980555627375371,-0.0486111125881959,0.118055554801345,-0.152105450630188,0.145385921001434,0.0433714315295219
0,1.00972225967599,-0.0847222225390337,0.118055554801345,-0.0882700309157372,0.129808858036995,0.000305432622553781
0,1.02916674604155,-0.0847222225390337,0.0541666679652478,-0.0839939713478088,0.292604446411133,-0.11087204515934
0,1.06527783775844,-0.101388894748172,0.0819444448505077,-0.0406225398182869,0.470366239547729,-0.122783914208412
0,1.0333333244436,-0.0847222225390337,0.102777780553444,0.0769690200686455,0.477696627378464,-0.0448985956609249
0,1.02222228662528,-0.0722222259796579,0.111111119697004,0.0687223374843597,0.499076902866364,0.00580321997404099
0,1.00555558402623,-0.055555559848502,0.161111118090472,0.0968221426010132,0.257785141468048,0.112704634666443
0,1.04305556762637,-0.0680555564078778,0.144444451959316,0.0100792767480016,0.0134390350431204,0.0873537287116051
0,1.02222228662528,-0.0638888929140799,0.100000002864918,0.0198531206697226,0.0140499006956816,0.0314595587551594
0,1.0361111082101,-0.0777777813567098,0.0944444474878658,0.148440256714821,0.569937288761139,0.03176499158144
0,1.00694447590948,-0.0250000007162294,0.150000007336368,0.161573857069016,0.576656818389893,-0.0592539273202419
0,1.00000001649321,-0.0194444453391775,0.162500009973726,-0.0241291765123606,0.281914323568344,0.111788339912891
0,1.0125000434425,-0.104166672436698,0.197222234119292,0.0265726372599602,0.230601623654366,0.0461203269660473
0,0.99583334084345,-0.111111119697004,0.215277779977737,-0.0027488935738802,0.146913096308708,-0.0583376325666905
0,0.99583334084345,-0.0777777813567098,0.193055558469529,0.0452040284872055,0.103236228227615,-0.0742201283574104
0,0.998611124609959,-0.0152777788063885,0.163888889701015,0.0891863256692886,0.0797179117798805,-0.0332921557128429
0,1.00555558402623,-0.0152777788063885,0.158333334323963,0.142942473292351,0.101709060370922,0.0360410511493683
5,1.00555558402623,-0.0402777795226179,0.19166667874224,0.188146501779556,0.0965167060494423,0.0812450796365738
5,0.998611124609959,-0.0152777788063885,0.233333350148112,0.414777487516403,-0.0687223374843597,0.139277279376984
5,0.933333400592447,-0.0833333367337618,0.331944455051793,0.576962232589722,-0.224187538027763,0.0986547395586967
5,1.0333333244436,-0.112499999424294,0.259722222994153,0.975857257843018,-0.299629390239716,0.115758962929249
5,1.04305556762637,-0.0763888894734557,0.140277788465518,-0.0192422550171614,0.0323758572340012,-0.0592539273202419
5,1.05555559457566,-0.0597222233422998,0.133333341205212,-0.248316720128059,0.153021737933159,-0.102930791676045
5,1.04166667574312,-0.0680555564078778,0.184722231481934,-0.292299032211304,0.0885754600167274,-0.123394779860973
5,0.973611167959101,-0.0652777787193518,0.17361112072783,-0.215024560689926,-0.103236228227615,-0.109650313854218
5,0.940277860008718,-0.0472222237439329,0.206944452990142,-0.101709060370922,-0.114842668175697,0.0164933614432812
5,0.979166735492117,-0.0513888902767219,0.176388892338373,-0.102625362575054,-0.264810085296631,0.0479529201984406
5,1.00138890837647,-0.0541666679652478,0.156944454596674,-0.0839939713478088,-0.220827788114548,0.10598511993885
5,1.02500007039179,-0.0888888921108138,0.172222228844576,-0.192727982997894,-0.22235494852066,-0.0131336031481624
5,1.0305556379248,-0.0986111170596459,0.161111118090472,-0.0897971913218498,-0.0458148941397667,-0.0439822971820831
5,1.00694447590948,-0.0958333393711199,0.161111118090472,-0.00152716308366507,-0.0222965814173222,-0.0302378293126821
5,0.987499989543926,-0.0875000002275597,0.16527778158427,0.0568104684352875,-0.0561996027827263,-0.000916297896765172
5,0.99583334084345,-0.0972222251763917,0.166666673467524,0.0305432621389627,-0.101709060370922,0.0290160998702049
5,0.99583334084345,-0.0972222251763917,0.166666673467524,0.0629191175103188,-0.0699440687894821,0.0497855171561241
5,1.00972225967599,-0.104166672436698,0.180555567988136,0.114231802523136,-0.0320704244077206,0.0424551330506802
5,1.00277780025972,-0.101388894748172,0.161111118090472,0.111482910811901,-0.00580321997404099,-0.017409659922123
5,1.00277780025972,-0.101388894748172,0.161111118090472,0.161879286170006,0.0910189226269722,0.0146607663482428
5,0.99583334084345,-0.0847222225390337,0.162500009973726,0.104152522981167,0.0146607663482428,0.0210748501121998
5,1.00555558402623,-0.0888888921108138,0.166666673467524,0.0696386396884918,0.00824668072164059,0.0125227374956012
5,1.00555558402623,-0.0888888921108138,0.166666673467524,0.117286130785942,0.0125227374956012,0.0299323964864016
5,0.991666665193688,-0.0777777813567098,0.190277786858986,0.176234617829323,0.0390953756868839,0.0458148941397667
5,0.986111194908388,-0.0777777813567098,0.169444445078067,0.12675453722477,-0.0726929605007172,0.029626963660121
5,0.986111194908388,-0.0777777813567098,0.169444445078067,0.165544480085373,-0.0693332031369209,0.0161879286170006
5,1.0125000434425,-0.0916666697993398,0.166666673467524,0.156076073646545,-0.0345138870179653,-0.0400116741657257
5,1.07361118905796,-0.0750000036681839,0.140277788465518,0.257785141468048,-0.0177150927484035,-0.0122173046693206
5,1.07361118905796,-0.0750000036681839,0.140277788465518,0.218384325504303,-0.0027488935738802,0.0189368221908808
5,1.01944450285877,-0.052777782159976,0.138888896582264,0.0623082555830479,-0.0635299831628799,0.00519235478714108
5,1.0125000434425,-0.0472222237439329,0.134722233088466,-0.01588249579072,-0.0372627787292004,-0.00763581553474069
5,0.993055557076942,-0.0416666683668809,0.152777778946911,0.0045814891345799,-0.117286130785942,-0.0280998013913631
5,1.00972225967599,-0.0638888929140799,0.156944454596674,-0.013744467869401,-0.087659165263176,-0.011606439948082
5,1.01944450285877,-0.0541666679652478,0.150000007336368,-0.123700208961964,-0.115148097276688,-0.0103847095742822
5,1.02500007039179,-0.0458333348996699,0.13750000469901,-0.167071640491486,-0.109955742955208,-0.0632245540618896
5,1.02222228662528,-0.0444444460554069,0.14583334384257,-0.117896988987923,-0.0901026204228401,-0.0332921557128429
5,1.04027778385987,-0.0500000014324589,0.150000007336368,0.0543670058250427,-0.0870482996106148,0.015577063895762
5,1.03750000009336,-0.0652777787193518,0.156944454596674,0.0613919571042061,-0.156686931848526,-0.029626963660121
5,1.0125000434425,-0.0583333375370279,0.14583334384257,-0.0949895456433296,-0.163101017475128,-0.0693332031369209
5,0.98888888142718,-0.0569444456537738,0.131944449321958,-0.162184715270996,-0.0757472887635231,-0.0629191175103188
5,1.00000001649321,-0.0666666706026059,0.143055560076062,-0.0503963828086853,-0.0366519130766392,-0.00733038317412138
5,1.02222228662528,-0.0750000036681839,0.156944454596674,0.100792765617371,-0.0439822971820831,0.0152716310694814
5,1.0333333244436,-0.0819444448505077,0.141666668192807,0.129808858036995,-0.076052725315094,-0.0103847095742822
5,1.01666671909226,-0.0750000036681839,0.134722233088466,0.0748309940099716,-0.0620028227567673,-0.011606439948082
5,1.00277780025972,-0.0694444482911319,0.141666668192807,0.0244346093386412,0.0442877300083637,-0.0027488935738802
5,1.0125000434425,-0.0763888894734557,0.136111112815755,0.0516181141138077,0.0552833043038845,0.0232128798961639
5,1.02916674604155,-0.0791666671619817,0.1194444466846,0.0287106670439243,0.288633823394775,-0.0152716310694814
5,1.02083339474202,-0.0694444482911319,0.136111112815755,0.0546724386513233,0.295353353023529,0.00702495034784079
5,1.02222228662528,-0.0652777787193518,0.161111118090472,0.0720821022987366,0.220827788114548,0.0561996027827263
5,1.00694447590948,-0.055555559848502,0.166666673467524,0.00610865233466029,0.15851953625679,0.0971275717020035
5,1.00000001649321,-0.0625000010308258,0.156944454596674,-0.0885754600167274,0.0653625801205635,0.0901026204228401
5,1.02500007039179,-0.0430555572111439,0.14722222356986,-0.179288953542709,0.0143553335219622,0.0565050356090069
5,1.04722224327614,-0.0819444448505077,0.144444451959316,-0.20616702735424,0.135001212358475,-0.0384845100343227
5,1.10694449700835,-0.0958333393711199,0.13750000469901,-0.133474051952362,0.129808858036995,-0.0769690200686455
5,1.04444445950963,-0.0625000010308258,0.200000005729836,0.021685715764761,0.087659165263176,-0.0314595587551594
5,1.00416669214298,-0.0875000002275597,0.154166670830166,-0.0149661982432008,0.133779495954514,-0.021685715764761
5,1.02222228662528,-0.108333335930496,0.123611110178398,-0.103541657328606,0.297796815633774,-0.111482910811901
5,0.968055600426084,-0.0611111152255539,0.20138889761309,-0.0491746515035629,0.0565050356090069,-0.0152716310694814
5,0.979166735492117,-0.0541666679652478,0.202777789496344,-0.02382374368608,0.0198531206697226,0.00824668072164059
5,1.00000001649321,-0.0666666706026059,0.187500003092477,-0.0485637858510017,0.0525344125926495,-0.0262672062963247
5,1.02083339474202,-0.0625000010308258,0.17361112072783,-0.00519235478714108,0.00733038317412138,0.0256563406437635
5,1.01388893532575,-0.0611111152255539,0.17361112072783,-0.0397062413394451,0.0384845100343227,0.0167987942695618
5,1.00138890837647,-0.0652777787193518,0.179166676104882,-0.0613919571042061,0.0314595587551594,0.0149661982432008
5,1.00555558402623,-0.0708333340964038,0.177777784221628,-0.0473420582711697,0.0360410511493683,0.0109955742955208
5,1.0125000434425,-0.0763888894734557,0.188888894975731,-0.0381790772080422,0.0415388382971287,0.0143553335219622
5,1.00694447590948,-0.0777777813567098,0.19166667874224,-0.0256563406437635,0.0348193198442459,0.0131336031481624
5,1.00277780025972,-0.0736111117849297,0.190277786858986,-0.019547687843442,0.0186313893646002,0.00977384392172098
5,1.00277780025972,-0.0722222259796579,0.19166667874224,-0.013744467869401,0.0106901414692402,0.015577063895762
5,1.00833336779274,-0.0750000036681839,0.19166667874224,-0.0103847095742822,0.00885754637420177,0.0259617734700441
5,1.00694447590948,-0.0819444448505077,0.195833342236038,-0.00885754637420177,0.0100792767480016,0.0204639863222837
5,1.00694447590948,-0.0805555590452358,0.186111123365188,0.000610865245107561,0.00244346098043024,0.0183259565383196
5,1.00972225967599,-0.0819444448505077,0.179166676104882,0.011606439948082,0.0027488935738802,0.0226020142436027
5,1.01527782720901,-0.0861111144222878,0.166666673467524,0.0143553335219622,0.00610865233466029,0.0259617734700441
5,1.0125000434425,-0.0875000002275597,0.180555567988136,0.0284052342176437,0.00183259579353034,0.0280998013913631
5,1.01388893532575,-0.0916666697993398,0.188888894975731,0.0430659987032413,0.00305432616733015,0.0290160998702049
5,1.00694447590948,-0.0916666697993398,0.181944447715425,0.0577267669141293,-0.00946841109544039,0.0430659987032413
5,1.00555558402623,-0.0930555616825939,0.184722231481934,0.0653625801205635,-0.0180205255746841,0.0503963828086853
5,1.00972225967599,-0.0930555616825939,0.187500003092477,0.0736092627048492,-0.0106901414692402,0.0485637858510017
5,1.00555558402623,-0.0958333393711199,0.18333333959868,0.0815505087375641,-0.0235183127224445,0.0455094613134861
5,1.00416669214298,-0.101388894748172,0.179166676104882,0.0946841165423393,-0.0164933614432812,0.0455094613134861
5,1.00555558402623,-0.0986111170596459,0.193055558469529,0.110261179506779,-0.00763581553474069,0.03176499158144
5,1.0125000434425,-0.0916666697993398,0.180555567988136,0.113010071218014,-0.00549778714776039,0.0311541277915239
5,1.01388893532575,-0.0875000002275597,0.190277786858986,0.112399205565453,0.00244346098043024,0.0229074470698834
5,1.01666671909226,-0.0875000002275597,0.184722231481934,0.112399205565453,0.0109955742955208,0.00885754637420177
5,1.00833336779274,-0.0833333367337618,0.184722231481934,0.100181899964809,0.00397062394768,0.0109955742955208
5,1.00972225967599,-0.0847222225390337,0.18333333959868,0.106901414692402,-0.00763581553474069,0.0128281703218818
5,1.00833336779274,-0.0819444448505077,0.180555567988136,0.113315500319004,-0.00183259579353034,0.00885754637420177
5,1.00972225967599,-0.0694444482911319,0.193055558469529,0.105374254286289,-0.00427605677396059,0.0027488935738802
5,1.00833336779274,-0.0625000010308258,0.180555567988136,0.0879645943641663,-0.0045814891345799,0.00671951752156019
5,1.01388893532575,-0.0583333375370279,0.18333333959868,0.0384845100343227,-0.00366519158706069,0.0033597587607801
5,1.0125000434425,-0.0611111152255539,0.194444450352783,0.011606439948082,-0.00122173049021512,0.00855211354792118
5,1.00555558402623,-0.055555559848502,0.19166667874224,-0.00794124789535999,-0.0693332031369209,0.00610865233466029
5,1.00277780025972,-0.0569444456537738,0.193055558469529,-0.04764748737216,-0.021685715764761,-0.00885754637420177
5,1.00000001649321,-0.0513888902767219,0.180555567988136,-0.0873537287116051,-0.0363464802503586,-0.00305432616733015
5,1.01805561097552,-0.0513888902767219,0.175000000455119,-0.110566608607769,-0.0177150927484035,-0.0177150927484035
5,1.01111115155925,-0.0583333375370279,0.190277786858986,-0.11606439948082,-0.0290160998702049,-0.01588249579072
5,1.00694447590948,-0.055555559848502,0.181944447715425,-0.157297804951668,-0.037568211555481,-0.01588249579072
5,1.00277780025972,-0.0458333348996699,0.186111123365188,-0.163101017475128,-0.0378736443817616,-0.00641408516094089
5,1.0125000434425,-0.0513888902767219,0.175000000455119,-0.189979091286659,-0.0470366254448891,0.00488692196086049
5,1.0125000434425,-0.0666666706026059,0.179166676104882,-0.226325571537018,-0.0320704244077206,-0.00122173049021512
5,1.01388893532575,-0.0777777813567098,0.194444450352783,-0.208610475063324,-0.0299323964864016,0.00610865233466029
5,1.00555558402623,-0.0916666697993398,0.184722231481934,-0.181426972150803,-0.0458148941397667,0.0219911485910416
5,1.00694447590948,-0.106944444047242,0.175000000455119,-0.138360977172852,-0.0723875313997269,0.019547687843442
5,1.00972225967599,-0.1194444466846,0.180555567988136,-0.107817716896534,-0.0696386396884918,0.0235183127224445
5,1.01111115155925,-0.122222230451108,0.188888894975731,-0.0720821022987366,-0.0595593601465225,0.0293215326964855
5,1.01111115155925,-0.133333341205212,0.18333333959868,-0.0161879286170006,-0.0497855171561241,0.0235183127224445
5,1.00972225967599,-0.125000002061652,0.18333333959868,0.0299323964864016,-0.0519235469400883,0.0183259565383196
5,1.01111115155925,-0.10972222781375,0.181944447715425,0.0616973899304867,-0.0546724386513233,0.0256563406437635
5,1.00972225967599,-0.108333335930496,0.18333333959868,0.0833831056952477,-0.0598647929728031,0.0287106670439243
5,1.01111115155925,-0.108333335930496,0.166666673467524,0.0946841165423393,-0.0629191175103188,0.0268780700862408
5,1.00972225967599,-0.0930555616825939,0.166666673467524,0.0949895456433296,-0.0482583530247212,0.0323758572340012
5,1.00972225967599,-0.0930555616825939,0.166666673467524,0.0995710343122482,-0.0433714315295219,0.0280998013913631
5,1.00833336779274,-0.0875000002275597,0.175000000455119,0.0946841165423393,-0.0351247526705265,0.0320704244077206
5,1.01388893532575,-0.0847222225390337,0.177777784221628,0.0751364231109619,-0.0400116741657257,0.027488935738802
5,1.01388893532575,-0.0847222225390337,0.177777784221628,0.0601702257990837,-0.0479529201984406,0.017409659922123
5,1.01388893532575,-0.0777777813567098,0.17361112072783,0.0485637858510017,-0.0439822971820831,0.0143553335219622
5,1.01388893532575,-0.0750000036681839,0.170833336961321,0.0247400421649218,-0.0485637858510017,0.021685715764761
5,1.01388893532575,-0.0750000036681839,0.170833336961321,0.00397062394768,-0.0531452745199203,0.0207694191485643
5,1.0125000434425,-0.0819444448505077,0.159722226207217,-0.0167987942695618,-0.0439822971820831,0.02382374368608
5,1.0125000434425,-0.0861111144222878,0.162500009973726,-0.0201585534960032,-0.0491746515035629,0.0180205255746841
5,1.0125000434425,-0.0861111144222878,0.162500009973726,-0.0180205255746841,-0.0516181141138077,0.0235183127224445
5,1.01805561097552,-0.0875000002275597,0.156944454596674,-0.00885754637420177,-0.0485637858510017,0.0207694191485643
5,1.01666671909226,-0.0888888921108138,0.15555556271342,-0.0152716310694814,-0.0537561401724815,0.0222965814173222
5,1.01111115155925,-0.0986111170596459,0.14722222356986,-0.0167987942695618,-0.0461203269660473,0.0167987942695618
5,1.0125000434425,-0.101388894748172,0.154166670830166,-0.0131336031481624,-0.0467311926186085,0.0183259565383196
5,1.00833336779274,-0.104166672436698,0.144444451959316,-0.0045814891345799,-0.0387899428606033,0.0201585534960032
5,1.0125000434425,-0.108333335930496,0.14722222356986,0.0125227374956012,-0.0332921557128429,0.0167987942695618
5,1.01388893532575,-0.112499999424294,0.14583334384257,0.0186313893646002,-0.0244346093386412,0.00855211354792118
5,1.01527782720901,-0.10972222781375,0.14583334384257,0.0259617734700441,-0.0244346093386412,0.00122173049021512
5,1.0125000434425,-0.10972222781375,0.14583334384257,0.0198531206697226,-0.0235183127224445,0.00183259579353034
5,1.01527782720901,-0.105555564319952,0.14722222356986,0.0125227374956012,-0.0268780700862408,0.00580321997404099
5,1.00555558402623,-0.0986111170596459,0.148611115453114,0.00610865233466029,-0.0219911485910416,0.00488692196086049
5,1.00972225967599,-0.104166672436698,0.152777778946911,0.00305432616733015,-0.0198531206697226,0.0125227374956012
5,1.01111115155925,-0.104166672436698,0.14722222356986,-0.00610865233466029,-0.0183259565383196,0.0113010071218014
5,1.0125000434425,-0.104166672436698,0.144444451959316,-0.0033597587607801,-0.0180205255746841,-0.00305432616733015
5,1.01527782720901,-0.108333335930496,0.150000007336368,-0.0027488935738802,-0.0198531206697226,0.00305432616733015
5,1.01805561097552,-0.105555564319952,0.144444451959316,-0.00641408516094089,-0.0244346093386412,-0.00397062394768
5,1.01805561097552,-0.0958333393711199,0.140277788465518,-0.0045814891345799,-0.0229074470698834,0.000305432622553781
5,1.01666671909226,-0.0986111170596459,0.13750000469901,-0.0125227374956012,-0.00427605677396059,-0.00244346098043024
5,1.01527782720901,-0.104166672436698,0.140277788465518,-0.00916297826915979,-0.00977384392172098,0.00549778714776039
5,1.01527782720901,-0.104166672436698,0.144444451959316,-0.000305432622553781,-0.00427605677396059,-0.0122173046693206
5,1.01944450285877,-0.101388894748172,0.141666668192807,0.0152716310694814,-0.0131336031481624,-0.00152716308366507
5,1.01805561097552,-0.0986111170596459,0.131944449321958,0.00305432616733015,-0.0299323964864016,-0.0027488935738802
5,1.0125000434425,-0.0986111170596459,0.143055560076062,-0.000305432622553781,-0.0207694191485643,-0.00183259579353034
5,1.0125000434425,-0.0944444474878658,0.140277788465518,-0.0100792767480016,-0.0219911485910416,0.01588249579072
5,1.01388893532575,-0.100000002864918,0.13750000469901,-0.00488692196086049,-0.0302378293126821,0.00824668072164059
5,1.01944450285877,-0.101388894748172,0.13750000469901,-0.00733038317412138,-0.0149661982432008,0.00519235478714108
5,1.02222228662528,-0.0972222251763917,0.134722233088466,-0.00488692196086049,-0.0167987942695618,0.00519235478714108
5,1.01944450285877,-0.102777780553444,0.12777778582816,-0.00366519158706069,-0.00946841109544039,-0.00610865233466029
5,1.01666671909226,-0.0986111170596459,0.134722233088466,-0.00488692196086049,-0.019547687843442,-0.000916297896765172
5,1.01527782720901,-0.101388894748172,0.134722233088466,-0.0100792767480016,-0.0241291765123606,-0.0021380283869803
5,1.00972225967599,-0.105555564319952,0.130555557438704,-0.00702495034784079,-0.0280998013913631,0.00152716308366507
5,1.01388893532575,-0.106944444047242,0.130555557438704,-0.00519235478714108,-0.0177150927484035,-0.0021380283869803
5,1.01527782720901,-0.102777780553444,0.130555557438704,0.0027488935738802,-0.0149661982432008,-0.00763581553474069
5,1.01805561097552,-0.102777780553444,0.136111112815755,0.00366519158706069,-0.00733038317412138,0.00580321997404099
5,1.01527782720901,-0.101388894748172,0.138888896582264,-0.00549778714776039,-0.0164933614432812,-0.00671951752156019
5,1.0125000434425,-0.101388894748172,0.130555557438704,0.000610865245107561,-0.0189368221908808,0.00397062394768
5,1.01944450285877,-0.104166672436698,0.140277788465518,0.00549778714776039,-0.00794124789535999,-0.0021380283869803
5,1.02083339474202,-0.104166672436698,0.154166670830166,0.00488692196086049,-0.00488692196086049,-0.00580321997404099
5,1.00972225967599,-0.0986111170596459,0.134722233088466,0.00549778714776039,-0.00580321997404099,-0.00427605677396059
5,1.01527782720901,-0.0944444474878658,0.143055560076062,-0.00671951752156019,-0.00610865233466029,-0.00427605677396059
5,1.01111115155925,-0.0958333393711199,0.13750000469901,-0.0100792767480016,0.0045814891345799,-0.000916297896765172
5,1.0125000434425,-0.0916666697993398,0.131944449321958,-0.011606439948082,0.015577063895762,0.013744467869401
5,1.0125000434425,-0.0944444474878658,0.134722233088466,-0.0241291765123606,0.0140499006956816,0.00183259579353034
5,1.01666671909226,-0.108333335930496,0.12777778582816,-0.0177150927484035,0.0222965814173222,0.00671951752156019
5,1.01805561097552,-0.112499999424294,0.140277788465518,-0.0113010071218014,0.02382374368608,0.00519235478714108
5,1.01527782720901,-0.111111119697004,0.130555557438704,0.00977384392172098,0.027488935738802,-0.00427605677396059
5,1.01527782720901,-0.104166672436698,0.14583334384257,-0.00183259579353034,0.0207694191485643,-0.00519235478714108
5,1.01111115155925,-0.0986111170596459,0.140277788465518,-0.0045814891345799,0.0180205255746841,-0.0027488935738802
5,1.01388893532575,-0.101388894748172,0.14583334384257,0.000610865245107561,0.00916297826915979,0.0106901414692402
5,1.01527782720901,-0.106944444047242,0.136111112815755,0.00763581553474069,0.0113010071218014,0.0045814891345799
5,1.0125000434425,-0.101388894748172,0.143055560076062,0.00763581553474069,0.00885754637420177,0.00610865233466029
5,1.00972225967599,-0.104166672436698,0.144444451959316,0.00305432616733015,0.00122173049021512,0.00519235478714108
5,1.0125000434425,-0.101388894748172,0.13750000469901,0.00855211354792118,-0.00122173049021512,0.00671951752156019
5,1.00972225967599,-0.101388894748172,0.134722233088466,0.000610865245107561,-0.0152716310694814,0.00763581553474069
5,1.01944450285877,-0.100000002864918,0.133333341205212,-0.00152716308366507,0.0103847095742822,0.00671951752156019
5,1.0125000434425,-0.0944444474878658,0.12777778582816,-0.00671951752156019,0.0284052342176437,0.00763581553474069
5,1.0125000434425,-0.100000002864918,0.13750000469901,-0.00702495034784079,0.0277943685650826,0.00488692196086049
5,1.01666671909226,-0.108333335930496,0.14722222356986,0.000610865245107561,0.0180205255746841,0.00610865233466029
5,1.0125000434425,-0.111111119697004,0.14722222356986,0.00763581553474069,0.0131336031481624,0.00549778714776039
5,1.01388893532575,-0.105555564319952,0.144444451959316,0.00488692196086049,-0.0027488935738802,0.00580321997404099
5,1.01111115155925,-0.101388894748172,0.136111112815755,0.00916297826915979,-0.00519235478714108,0.00671951752156019
5,1.01944450285877,-0.101388894748172,0.136111112815755,0.00122173049021512,0.00610865233466029,0.00855211354792118
5,1.01527782720901,-0.100000002864918,0.136111112815755,0.00488692196086049,0.0113010071218014,0.0027488935738802
5,1.01527782720901,-0.101388894748172,0.141666668192807,0.0122173046693206,0.013744467869401,-0.0027488935738802
5,1.01388893532575,-0.104166672436698,0.133333341205212,0.00580321997404099,0.00855211354792118,-0.000916297896765172
5,1.01388893532575,-0.102777780553444,0.143055560076062,0.00763581553474069,0.0045814891345799,-0.00580321997404099
5,1.01527782720901,-0.10972222781375,0.14583334384257,0.00855211354792118,0.00580321997404099,-0.00488692196086049
5,1.01805561097552,-0.105555564319952,0.141666668192807,0.00794124789535999,0.00702495034784079,-0.0113010071218014
5,1.01388893532575,-0.104166672436698,0.136111112815755,-0.00519235478714108,0.00305432616733015,0.000916297896765172
5,1.01666671909226,-0.102777780553444,0.140277788465518,-0.0125227374956012,0.00366519158706069,-0.00427605677396059
5,1.01805561097552,-0.105555564319952,0.140277788465518,-0.00366519158706069,0.0109955742955208,-0.00855211354792118
5,1.01944450285877,-0.0972222251763917,0.144444451959316,-0.00366519158706069,0.01191187184304,-0.00855211354792118
5,1.0125000434425,-0.0958333393711199,0.144444451959316,-0.00488692196086049,0.00946841109544039,-0.00855211354792118
5,1.01527782720901,-0.0819444448505077,0.152777778946911,-0.0113010071218014,0.00183259579353034,-0.00397062394768
5,1.0125000434425,-0.101388894748172,0.150000007336368,-0.00641408516094089,-0.00519235478714108,-0.00152716308366507
5,1.0125000434425,-0.101388894748172,0.14722222356986,-0.00366519158706069,-0.0033597587607801,0.00244346098043024
5,1.01944450285877,-0.101388894748172,0.131944449321958,0.0021380283869803,0.000916297896765172,-0.00549778714776039
5,1.01527782720901,-0.0986111170596459,0.134722233088466,0.00610865233466029,0.00427605677396059,-0.00794124789535999
5,1.01527782720901,-0.104166672436698,0.13750000469901,0.00122173049021512,-0.00244346098043024,-0.0027488935738802
5,1.01527782720901,-0.101388894748172,0.144444451959316,-0.0106901414692402,0.00305432616733015,-0.00885754637420177
5,1.01527782720901,-0.105555564319952,0.13750000469901,-0.0045814891345799,0.00580321997404099,-0.00977384392172098
5,1.01388893532575,-0.104166672436698,0.13750000469901,-0.00366519158706069,0.000305432622553781,-0.00824668072164059
5,1.00555558402623,-0.100000002864918,0.144444451959316,-0.00152716308366507,0.00916297826915979,-0.00855211354792118
5,1.0125000434425,-0.104166672436698,0.14583334384257,-0.0109955742955208,-0.00366519158706069,-0.00366519158706069
5,1.01527782720901,-0.101388894748172,0.148611115453114,-0.00855211354792118,0.00183259579353034,-0.00519235478714108
5,1.01527782720901,-0.101388894748172,0.148611115453114,-0.00885754637420177,0.00305432616733015,-0.00305432616733015
5,1.01527782720901,-0.111111119697004,0.144444451959316,-0.0045814891345799,0.000916297896765172,-0.00763581553474069
5,1.01527782720901,-0.108333335930496,0.141666668192807,-0.00366519158706069,0.00794124789535999,-0.00946841109544039
5,1.01527782720901,-0.108333335930496,0.141666668192807,0.0027488935738802,0.00366519158706069,-0.00733038317412138
5,1.00694447590948,-0.106944444047242,0.150000007336368,0.00824668072164059,0.000610865245107561,-0.0152716310694814
5,1.00833336779274,-0.101388894748172,0.14722222356986,0.0140499006956816,-0.0149661982432008,-0.00366519158706069
5,1.00833336779274,-0.101388894748172,0.14722222356986,0.01588249579072,-0.017409659922123,-0.00122173049021512
5,1.01805561097552,-0.105555564319952,0.134722233088466,0.00855211354792118,-0.00305432616733015,-0.0140499006956816
5,1.01666671909226,-0.100000002864918,0.140277788465518,0.000305432622553781,0.0103847095742822,-0.00946841109544039
5,1.01666671909226,-0.100000002864918,0.140277788465518,-0.00305432616733015,0.0171042270958424,-0.00397062394768
5,1.01527782720901,-0.101388894748172,0.14722222356986,0.00488692196086049,0.0106901414692402,-0.00244346098043024
5,1.01527782720901,-0.100000002864918,0.134722233088466,0.000305432622553781,0.00488692196086049,-0.00946841109544039
5,1.01527782720901,-0.100000002864918,0.134722233088466,0.00427605677396059,0.00152716308366507,-0.0027488935738802
5,1.01527782720901,-0.102777780553444,0.134722233088466,0.00610865233466029,-0.000610865245107561,-0.00702495034784079
5,1.01666671909226,-0.0944444474878658,0.134722233088466,0.00305432616733015,-0.00122173049021512,-0.0149661982432008
5,1.01527782720901,-0.0916666697993398,0.131944449321958,0.0045814891345799,0.00794124789535999,-0.0146607663482428
5,1.0125000434425,-0.100000002864918,0.138888896582264,0.00488692196086049,-0.00702495034784079,-0.0180205255746841
5,1.01527782720901,-0.0986111170596459,0.148611115453114,0.00916297826915979,-0.011606439948082,-0.0106901414692402
5,1.01666671909226,-0.101388894748172,0.138888896582264,0.00549778714776039,-0.011606439948082,-0.0143553335219622
5,1.02222228662528,-0.0930555616825939,0.130555557438704,0.00488692196086049,-0.00702495034784079,-0.00702495034784079
5,1.01944450285877,-0.0986111170596459,0.12777778582816,0.00244346098043024,0.00152716308366507,-0.0125227374956012
5,1.01944450285877,-0.0986111170596459,0.140277788465518,0.00702495034784079,0.0045814891345799,-0.0149661982432008
5,1.01944450285877,-0.0986111170596459,0.150000007336368,0.00366519158706069,-0.00549778714776039,-0.01588249579072
5,1.01805561097552,-0.0986111170596459,0.144444451959316,0.0109955742955208,-0.00671951752156019,-0.0125227374956012
5,1.01388893532575,-0.0958333393711199,0.134722233088466,0.00366519158706069,-0.00580321997404099,-0.0125227374956012
5,1.01944450285877,-0.0958333393711199,0.12916666555545,0.0033597587607801,-0.00824668072164059,-0.011606439948082
5,1.0125000434425,-0.0986111170596459,0.134722233088466,0.00580321997404099,-0.00794124789535999,-0.0122173046693206
5,1.01805561097552,-0.100000002864918,0.134722233088466,-0.000610865245107561,-0.00671951752156019,-0.0140499006956816
5,1.01805561097552,-0.101388894748172,0.138888896582264,0.00671951752156019,-0.000305432622553781,-0.0131336031481624
5,1.0125000434425,-0.100000002864918,0.14583334384257,0.00488692196086049,-0.00641408516094089,-0.0167987942695618
5,1.01527782720901,-0.102777780553444,0.138888896582264,0.00397062394768,-0.0125227374956012,-0.0152716310694814
5,1.01666671909226,-0.0986111170596459,0.144444451959316,0.00122173049021512,-0.00244346098043024,-0.0161879286170006
5,1.01805561097552,-0.0916666697993398,0.13750000469901,-0.00641408516094089,-0.00549778714776039,-0.00427605677396059
5,1.01805561097552,-0.0930555616825939,0.134722233088466,-0.00427605677396059,0.00366519158706069,-0.00824668072164059
5,1.01944450285877,-0.0930555616825939,0.140277788465518,-0.00427605677396059,0.000305432622553781,-0.0122173046693206
5,1.01805561097552,-0.0986111170596459,0.144444451959316,-0.00671951752156019,-0.00488692196086049,-0.00763581553474069
5,1.01527782720901,-0.101388894748172,0.144444451959316,-0.0027488935738802,0.00183259579353034,-0.0146607663482428
5,1.01527782720901,-0.0958333393711199,0.144444451959316,0.0033597587607801,0.00397062394768,-0.0146607663482428
5,1.01527782720901,-0.0972222251763917,0.14722222356986,0.00641408516094089,0.00122173049021512,-0.011606439948082
5,1.01388893532575,-0.0888888921108138,0.144444451959316,0.0045814891345799,0.00549778714776039,-0.00733038317412138
5,1.01527782720901,-0.0944444474878658,0.150000007336368,0.00763581553474069,0.00366519158706069,-0.00946841109544039
5,1.01527782720901,-0.0958333393711199,0.14722222356986,0.0109955742955208,-0.0033597587607801,-0.00946841109544039
5,1.01388893532575,-0.101388894748172,0.13750000469901,0.00580321997404099,-0.00794124789535999,-0.0109955742955208
5,1.01111115155925,-0.102777780553444,0.141666668192807,0.0103847095742822,-0.00885754637420177,-0.019547687843442
5,1.01111115155925,-0.0930555616825939,0.14722222356986,0.00580321997404099,-0.0143553335219622,-0.00427605677396059
5,1.01388893532575,-0.0916666697993398,0.131944449321958,0.00549778714776039,0.0027488935738802,-0.011606439948082
5,1.01527782720901,-0.0930555616825939,0.140277788465518,0.00641408516094089,0.0100792767480016,-0.0134390350431204
5,1.01111115155925,-0.0916666697993398,0.144444451959316,0.00244346098043024,0.00519235478714108,-0.00977384392172098
5,1.01527782720901,-0.0916666697993398,0.140277788465518,0.00305432616733015,0.000305432622553781,-0.0027488935738802
5,1.01805561097552,-0.0930555616825939,0.143055560076062,0.0033597587607801,-0.00152716308366507,-0.00183259579353034
5,1.01527782720901,-0.0972222251763917,0.141666668192807,0.01191187184304,-0.0106901414692402,-0.00427605677396059
5,1.0125000434425,-0.0944444474878658,0.134722233088466,0.00549778714776039,-0.00519235478714108,-0.0149661982432008
5,1.01527782720901,-0.0972222251763917,0.138888896582264,0.00152716308366507,-0.0021380283869803,-0.01191187184304
5,1.0125000434425,-0.0944444474878658,0.134722233088466,0.0122173046693206,-0.00183259579353034,-0.0189368221908808
5,1.0125000434425,-0.0944444474878658,0.130555557438704,0.0100792767480016,-0.0027488935738802,-0.0140499006956816
5,1.00972225967599,-0.0916666697993398,0.138888896582264,0.00885754637420177,-0.0152716310694814,-0.00794124789535999
5,1.00972225967599,-0.0930555616825939,0.143055560076062,0.0103847095742822,-0.0241291765123606,-0.0045814891345799
5,1.01805561097552,-0.0944444474878658,0.14722222356986,0.0122173046693206,-0.0201585534960032,0.0033597587607801
5,1.01666671909226,-0.0944444474878658,0.133333341205212,0.00885754637420177,-0.0241291765123606,0.00580321997404099
5,1.01527782720901,-0.0888888921108138,0.120833338567854,0.0109955742955208,-0.0244346093386412,0.00122173049021512
5,1.01666671909226,-0.0916666697993398,0.12777778582816,0.00977384392172098,-0.0244346093386412,-0.00183259579353034
5,1.01805561097552,-0.0888888921108138,0.138888896582264,0.0189368221908808,-0.0244346093386412,0.0045814891345799
5,1.02222228662528,-0.0847222225390337,0.138888896582264,0.0189368221908808,-0.0271835029125214,-0.00122173049021512
5,1.01944450285877,-0.0819444448505077,0.130555557438704,0.0106901414692402,-0.0253509078174829,0.00702495034784079
5,1.01944450285877,-0.0847222225390337,0.136111112815755,0.0033597587607801,-0.013744467869401,-0.00152716308366507
5,1.01944450285877,-0.0875000002275597,0.13750000469901,-0.00366519158706069,-0.0122173046693206,0.00610865233466029
5,1.01944450285877,-0.0861111144222878,0.138888896582264,0.00366519158706069,-0.00855211354792118,0.0027488935738802
5,1.01944450285877,-0.0861111144222878,0.131944449321958,0.00397062394768,-0.0113010071218014,-0.00244346098043024
5,1.01944450285877,-0.0888888921108138,0.131944449321958,0.00152716308366507,-0.0140499006956816,0.000305432622553781
5,1.01944450285877,-0.0916666697993398,0.134722233088466,0.00244346098043024,-0.0100792767480016,0.0122173046693206
5,1.01527782720901,-0.0847222225390337,0.12916666555545,0.00549778714776039,-0.00641408516094089,-0.00794124789535999
5,1.0125000434425,-0.0861111144222878,0.130555557438704,0.00519235478714108,-0.0131336031481624,-0.000916297896765172
5,1.0125000434425,-0.0944444474878658,0.134722233088466,0.00580321997404099,-0.00855211354792118,0.00641408516094089
5,1.01527782720901,-0.0847222225390337,0.130555557438704,0.00549778714776039,-0.01191187184304,0.000610865245107561
5,1.01805561097552,-0.0861111144222878,0.13750000469901,0.00916297826915979,-0.00885754637420177,0.00549778714776039
5,1.01666671909226,-0.0847222225390337,0.125000002061652,0.0027488935738802,-0.00763581553474069,0.00794124789535999
5,1.01527782720901,-0.0819444448505077,0.133333341205212,-0.000916297896765172,-0.00610865233466029,0.00610865233466029
5,1.01527782720901,-0.0847222225390337,0.130555557438704,-0.00488692196086049,-0.0106901414692402,0.00977384392172098
5,1.01388893532575,-0.0847222225390337,0.118055554801345,-0.00488692196086049,-0.00977384392172098,0.0106901414692402
5,1.01527782720901,-0.0902777839940679,0.120833338567854,0.00122173049021512,-0.0152716310694814,0.00824668072164059
5,1.01527782720901,-0.0902777839940679,0.12777778582816,0.0106901414692402,-0.021685715764761,0.00763581553474069
5,1.01666671909226,-0.0916666697993398,0.125000002061652,0.00916297826915979,-0.0171042270958424,0.00366519158706069
5,1.01666671909226,-0.0916666697993398,0.134722233088466,0.00641408516094089,-0.0189368221908808,0.00733038317412138
5,1.01944450285877,-0.0930555616825939,0.134722233088466,-0.00244346098043024,-0.0189368221908808,0.00702495034784079
5,1.01527782720901,-0.0888888921108138,0.12777778582816,-0.00488692196086049,-0.011606439948082,0.00824668072164059
5,1.01666671909226,-0.0902777839940679,0.12916666555545,-0.00733038317412138,-0.00977384392172098,0.0109955742955208
5,1.01666671909226,-0.0902777839940679,0.130555557438704,-0.00916297826915979,-0.00702495034784079,0.0171042270958424
5,1.01944450285877,-0.0916666697993398,0.12777778582816,-0.00183259579353034,-0.0125227374956012,0.0125227374956012
5,1.01944450285877,-0.0986111170596459,0.133333341205212,0.00183259579353034,-0.015577063895762,0.00397062394768
5,1.01944450285877,-0.0930555616825939,0.138888896582264,0.00122173049021512,-0.0106901414692402,0.00397062394768
5,1.01944450285877,-0.0944444474878658,0.131944449321958,-0.00427605677396059,-0.00885754637420177,0.01191187184304
5,1.01805561097552,-0.0986111170596459,0.125000002061652,0.000610865245107561,-0.00916297826915979,0.00671951752156019
5,1.01666671909226,-0.0972222251763917,0.125000002061652,0.000916297896765172,-0.00427605677396059,0.013744467869401
5,1.01805561097552,-0.0944444474878658,0.130555557438704,-0.000916297896765172,-0.00702495034784079,0.0021380283869803
5,1.01527782720901,-0.100000002864918,0.12777778582816,0.00366519158706069,-0.00946841109544039,0.00733038317412138
5,1.01527782720901,-0.100000002864918,0.12777778582816,0.000610865245107561,-0.0103847095742822,0.00397062394768
5,1.01527782720901,-0.102777780553444,0.130555557438704,-0.00244346098043024,-0.00305432616733015,0.00733038317412138
5,1.01388893532575,-0.0986111170596459,0.122222230451108,-0.00519235478714108,-0.0033597587607801,0.00855211354792118
5,1.0125000434425,-0.0986111170596459,0.12777778582816,-0.0033597587607801,-0.00183259579353034,0.000916297896765172
5,1.01944450285877,-0.104166672436698,0.125000002061652,0.00549778714776039,0.000916297896765172,0.00427605677396059
5,1.01527782720901,-0.104166672436698,0.12777778582816,0.013744467869401,-0.0033597587607801,0.00488692196086049
5,1.01527782720901,-0.0944444474878658,0.126388893944906,0.00641408516094089,-0.0171042270958424,0.00580321997404099
5,1.01666671909226,-0.0916666697993398,0.118055554801345,0.00610865233466029,-0.00855211354792118,0.0109955742955208
5,1.01805561097552,-0.101388894748172,0.122222230451108,0.00824668072164059,-0.00488692196086049,0.00885754637420177
5,1.02222228662528,-0.0986111170596459,0.126388893944906,0.00610865233466029,0.000305432622553781,0.000305432622553781
5,1.01944450285877,-0.101388894748172,0.134722233088466,0.00366519158706069,0.00397062394768,0.0033597587607801
5,1.01388893532575,-0.0986111170596459,0.131944449321958,0.0103847095742822,-0.00794124789535999,0.00183259579353034
5,1.01388893532575,-0.101388894748172,0.12777778582816,0.00152716308366507,-0.00488692196086049,-0.00366519158706069
5,1.01666671909226,-0.104166672436698,0.12916666555545,0.000610865245107561,-0.01191187184304,0.00916297826915979
5,1.02083339474202,-0.0972222251763917,0.133333341205212,-0.00122173049021512,-0.00183259579353034,0.00397062394768
5,1.02222228662528,-0.101388894748172,0.122222230451108,0.000610865245107561,0.00305432616733015,0.00152716308366507
5,1.01666671909226,-0.0986111170596459,0.12777778582816,0.0021380283869803,0.0033597587607801,0.00519235478714108
5,1.01666671909226,-0.101388894748172,0.133333341205212,0.0045814891345799,0.00122173049021512,0.000305432622553781
5,1.0125000434425,-0.101388894748172,0.12916666555545,0.00763581553474069,-0.00122173049021512,0.00885754637420177
5,1.01527782720901,-0.102777780553444,0.12777778582816,0.00641408516094089,-0.00610865233466029,0.00244346098043024
5,1.01666671909226,-0.0986111170596459,0.125000002061652,0.00519235478714108,-0.000305432622553781,-0.000610865245107561
5,1.01944450285877,-0.100000002864918,0.120833338567854,0.00946841109544039,0.00183259579353034,-0.0021380283869803
5,1.0125000434425,-0.0930555616825939,0.1194444466846,0.0113010071218014,0.00183259579353034,0.00427605677396059
5,1.01527782720901,-0.100000002864918,0.131944449321958,0.0027488935738802,0.00366519158706069,0.00183259579353034
5,1.01527782720901,-0.101388894748172,0.136111112815755,0.0100792767480016,-0.00427605677396059,-0.0033597587607801
5,1.01527782720901,-0.102777780553444,0.12777778582816,0.0122173046693206,-0.011606439948082,0.0131336031481624
5,1.01527782720901,-0.0986111170596459,0.134722233088466,0.0201585534960032,-0.0143553335219622,0.00305432616733015
5,1.02083339474202,-0.100000002864918,0.122222230451108,0.0122173046693206,-0.00794124789535999,-0.00916297826915979
5,1.01666671909226,-0.0986111170596459,0.131944449321958,0.0113010071218014,-0.00488692196086049,-0.00671951752156019
5,1.01666671909226,-0.0930555616825939,0.133333341205212,0.00641408516094089,0.00122173049021512,0.00366519158706069
5,1.01666671909226,-0.0944444474878658,0.130555557438704,-0.000916297896765172,0.00397062394768,0.000916297896765172
5,1.01527782720901,-0.0986111170596459,0.120833338567854,0.00152716308366507,-0.00183259579353034,0.00946841109544039
5,1.01527782720901,-0.0986111170596459,0.118055554801345,0.0021380283869803,-0.00305432616733015,0.0109955742955208
5,1.01527782720901,-0.104166672436698,0.1194444466846,0.00916297826915979,-0.0045814891345799,0.00183259579353034
5,1.01944450285877,-0.0972222251763917,0.118055554801345,0.00794124789535999,-0.00549778714776039,-0.00763581553474069
5,1.02361117850853,-0.0986111170596459,0.122222230451108,0.00794124789535999,0.0033597587607801,-0.00824668072164059
5,1.01944450285877,-0.0986111170596459,0.125000002061652,-0.000916297896765172,0.00702495034784079,-0.0027488935738802
5,1.01944450285877,-0.0916666697993398,0.13750000469901,0.00916297826915979,0.00122173049021512,0.00427605677396059
5,1.01527782720901,-0.101388894748172,0.144444451959316,0.00519235478714108,0.000610865245107561,0.00122173049021512
5,1.01111115155925,-0.0944444474878658,0.130555557438704,0.0131336031481624,-0.00916297826915979,0.00397062394768
5,1.01388893532575,-0.0986111170596459,0.130555557438704,0.0134390350431204,-0.00152716308366507,0.00366519158706069
5,1.01944450285877,-0.0958333393711199,0.125000002061652,0.00733038317412138,-0.00641408516094089,0.0106901414692402
5,1.01944450285877,-0.0958333393711199,0.125000002061652,0.00305432616733015,-0.000610865245107561,0.00977384392172098
5,1.02083339474202,-0.0958333393711199,0.130555557438704,0.00671951752156019,0.000305432622553781,0.00977384392172098
5,1.01944450285877,-0.0916666697993398,0.123611110178398,0.01191187184304,0.00305432616733015,-0.000610865245107561
5,1.01944450285877,-0.101388894748172,0.130555557438704,0.0140499006956816,0.00305432616733015,-0.0021380283869803
5,1.02083339474202,-0.0944444474878658,0.130555557438704,0.0021380283869803,-0.00366519158706069,0.00610865233466029
5,1.01805561097552,-0.0972222251763917,0.120833338567854,-0.0045814891345799,-0.00733038317412138,0.00977384392172098
5,1.01805561097552,-0.0986111170596459,0.126388893944906,-0.00305432616733015,-0.00763581553474069,0.0021380283869803
5,1.01388893532575,-0.101388894748172,0.118055554801345,-0.000305432622553781,-0.00794124789535999,0.00122173049021512
5,1.01388893532575,-0.0986111170596459,0.116666675074056,0.00427605677396059,-0.000610865245107561,-0.000305432622553781
5,1.01666671909226,-0.100000002864918,0.125000002061652,0.00397062394768,-0.0045814891345799,0.00702495034784079
5,1.01666671909226,-0.0986111170596459,0.118055554801345,0.00519235478714108,-0.00122173049021512,-0.00183259579353034
5,1.01527782720901,-0.0972222251763917,0.118055554801345,-0.00183259579353034,0.000916297896765172,0.0027488935738802
5,1.01666671909226,-0.101388894748172,0.115277783190802,0.00366519158706069,-0.00855211354792118,0.0027488935738802
5,1.02500007039179,-0.100000002864918,0.113888891307548,-0.00122173049021512,0.000610865245107561,-0.00366519158706069
5,1.02222228662528,-0.104166672436698,0.112499999424294,-0.00794124789535999,-0.00122173049021512,-0.0027488935738802
5,1.01388893532575,-0.0986111170596459,0.113888891307548,-0.00183259579353034,0.0045814891345799,-0.0045814891345799
5,1.01944450285877,-0.101388894748172,0.118055554801345,-0.00152716308366507,-0.0027488935738802,0.000916297896765172
5,1.01666671909226,-0.0944444474878658,0.126388893944906,-0.00183259579353034,-0.00397062394768,0.00244346098043024
5,1.01944450285877,-0.0986111170596459,0.125000002061652,-0.00794124789535999,-0.00549778714776039,-0.0033597587607801
5,1.01666671909226,-0.102777780553444,0.12777778582816,0.00519235478714108,-0.000305432622553781,-0.00122173049021512
5,1.01527782720901,-0.0944444474878658,0.130555557438704,0.000610865245107561,0.0027488935738802,-0.00152716308366507
5,1.01527782720901,-0.0972222251763917,0.125000002061652,0.00702495034784079,0.000916297896765172,-0.0021380283869803
5,1.02083339474202,-0.104166672436698,0.125000002061652,0.00733038317412138,0.000610865245107561,0.00488692196086049
5,1.01527782720901,-0.0972222251763917,0.115277783190802,0.0103847095742822,-0.00610865233466029,-0.00488692196086049
5,1.01388893532575,-0.0972222251763917,0.1194444466846,0.00641408516094089,-0.00427605677396059,-0.00488692196086049
5,1.01527782720901,-0.100000002864918,0.122222230451108,0.0131336031481624,-0.00366519158706069,-0.0125227374956012
5,1.01944450285877,-0.100000002864918,0.125000002061652,0.0186313893646002,-0.0100792767480016,-0.000916297896765172
5,1.01944450285877,-0.102777780553444,0.122222230451108,0.0103847095742822,-0.00641408516094089,0.00794124789535999
5,1.02083339474202,-0.102777780553444,0.125000002061652,0.00122173049021512,0.00977384392172098,-0.00152716308366507
5,1.01527782720901,-0.0930555616825939,0.126388893944906,-0.00488692196086049,0.00427605677396059,0.00397062394768
5,1.01111115155925,-0.0958333393711199,0.130555557438704,-0.00122173049021512,-0.00122173049021512,0.0045814891345799
5,1.01527782720901,-0.102777780553444,0.123611110178398,0.0134390350431204,-0.000305432622553781,0.00305432616733015
5,1.02361117850853,-0.102777780553444,0.125000002061652,0.0140499006956816,-0.00183259579353034,-0.00641408516094089
5,1.02222228662528,-0.102777780553444,0.113888891307548,0.00305432616733015,0.00488692196086049,-0.00763581553474069
5,1.01944450285877,-0.101388894748172,0.118055554801345,0.00183259579353034,0.000916297896765172,-0.0033597587607801
5,1.01527782720901,-0.101388894748172,0.125000002061652,-0.00580321997404099,0.0045814891345799,-0.00824668072164059
5,1.01527782720901,-0.100000002864918,0.126388893944906,0.00366519158706069,0.00641408516094089,0.00427605677396059
5,1.01527782720901,-0.101388894748172,0.125000002061652,0.013744467869401,-0.00366519158706069,-0.00183259579353034
5,1.01944450285877,-0.101388894748172,0.12777778582816,0.0140499006956816,-0.00549778714776039,-0.00824668072164059
5,1.02083339474202,-0.101388894748172,0.125000002061652,0.00733038317412138,-0.00610865233466029,-0.00580321997404099
5,1.01805561097552,-0.102777780553444,0.122222230451108,0.00885754637420177,0.00733038317412138,-0.00702495034784079
5,1.01805561097552,-0.0944444474878658,0.123611110178398,0.00427605677396059,-0.0021380283869803,-0.000305432622553781
5,1.01944450285877,-0.0944444474878658,0.133333341205212,0.00397062394768,-0.00183259579353034,-0.00580321997404099
5,1.01805561097552,-0.0972222251763917,0.123611110178398,0.00794124789535999,-0.000610865245107561,-0.00702495034784079
5,1.01805561097552,-0.100000002864918,0.125000002061652,0.0122173046693206,-0.00366519158706069,-0.00183259579353034
5,1.01944450285877,-0.0958333393711199,0.120833338567854,0.00763581553474069,-0.000916297896765172,-0.00519235478714108
5,1.02361117850853,-0.101388894748172,0.120833338567854,0.00244346098043024,-0.000916297896765172,0.0021380283869803
5,1.01944450285877,-0.0930555616825939,0.120833338567854,0.00580321997404099,-0.00152716308366507,-0.00427605677396059
5,1.01944450285877,-0.101388894748172,0.123611110178398,0.0109955742955208,0.000610865245107561,-0.0125227374956012
5,1.02083339474202,-0.0986111170596459,0.12777778582816,0.0128281703218818,0.00244346098043024,-0.0131336031481624
5,1.01527782720901,-0.102777780553444,0.131944449321958,0.00610865233466029,-0.00183259579353034,-0.00885754637420177
5,1.01944450285877,-0.0986111170596459,0.134722233088466,0.00977384392172098,-0.00122173049021512,-0.00824668072164059
5,1.01944450285877,-0.0930555616825939,0.125000002061652,0.00824668072164059,-0.0033597587607801,-0.00855211354792118
5,1.02083339474202,-0.0986111170596459,0.125000002061652,0.00122173049021512,0.00244346098043024,-0.000305432622553781
5,1.01527782720901,-0.0944444474878658,0.123611110178398,0.00641408516094089,0.0033597587607801,-0.000610865245107561
5,1.02083339474202,-0.0986111170596459,0.123611110178398,0.00671951752156019,0.0027488935738802,-0.00519235478714108
5,1.01944450285877,-0.0972222251763917,0.126388893944906,0.00946841109544039,0.00366519158706069,-0.00733038317412138
5,1.01805561097552,-0.100000002864918,0.115277783190802,0.0103847095742822,0.00580321997404099,-0.00244346098043024
5,1.01805561097552,-0.100000002864918,0.12777778582816,0.00671951752156019,0.00122173049021512,-0.00549778714776039
5,1.01805561097552,-0.100000002864918,0.12777778582816,0.00702495034784079,-0.0027488935738802,-0.00397062394768
5,1.01388893532575,-0.0986111170596459,0.12777778582816,0.0045814891345799,-0.00488692196086049,-0.000916297896765172
5,1.02083339474202,-0.0958333393711199,0.120833338567854,0.00885754637420177,-0.00549778714776039,-0.00580321997404099
5,1.02083339474202,-0.0958333393711199,0.120833338567854,0.0140499006956816,-0.00824668072164059,-0.00824668072164059
5,1.01805561097552,-0.0972222251763917,0.125000002061652,0.00977384392172098,-0.0143553335219622,-0.00122173049021512
5,1.01805561097552,-0.0972222251763917,0.125000002061652,0.00916297826915979,-0.019547687843442,-0.00610865233466029
5,1.01666671909226,-0.0972222251763917,0.122222230451108,0.00733038317412138,-0.0122173046693206,-0.00946841109544039
5,1.01666671909226,-0.0972222251763917,0.120833338567854,0.0125227374956012,-0.00641408516094089,-0.00946841109544039
5,1.01666671909226,-0.0972222251763917,0.125000002061652,-0.0027488935738802,-0.00916297826915979,-0.00549778714776039
5,1.01666671909226,-0.0944444474878658,0.126388893944906,-0.0033597587607801,-0.00244346098043024,-0.0021380283869803
5,1.01111115155925,-0.0944444474878658,0.133333341205212,-0.0033597587607801,0.0106901414692402,0.00671951752156019
5,1.01527782720901,-0.0972222251763917,0.12777778582816,0.00244346098043024,0.00763581553474069,0.00763581553474069
5,1.01666671909226,-0.101388894748172,0.12777778582816,0.0125227374956012,-0.00305432616733015,-0.00183259579353034
5,1.01944450285877,-0.0986111170596459,0.12777778582816,0.0189368221908808,-0.0106901414692402,0.00152716308366507
5,1.01527782720901,-0.0916666697993398,0.118055554801345,0.0113010071218014,-0.0109955742955208,0.000610865245107561
5,1.01388893532575,-0.0930555616825939,0.131944449321958,0.0177150927484035,-0.00152716308366507,0.000305432622553781
5,1.01944450285877,-0.0930555616825939,0.122222230451108,0.0128281703218818,0.0161879286170006,-0.01191187184304
5,1.01944450285877,-0.0944444474878658,0.125000002061652,0.00671951752156019,0.01588249579072,-0.0106901414692402
5,1.01944450285877,-0.0944444474878658,0.120833338567854,0.00305432616733015,0.0131336031481624,-0.00641408516094089
5,1.0125000434425,-0.0930555616825939,0.12777778582816,0.00122173049021512,-0.000916297896765172,-0.00305432616733015
5,1.01944450285877,-0.0875000002275597,0.115277783190802,0.00580321997404099,-0.00427605677396059,-0.00244346098043024
5,1.01805561097552,-0.0916666697993398,0.116666675074056,0.00885754637420177,0.00305432616733015,-0.00488692196086049
5,1.01944450285877,-0.0875000002275597,0.12777778582816,-0.00580321997404099,0.00427605677396059,-0.00733038317412138
5,1.02222228662528,-0.0916666697993398,0.115277783190802,-0.00427605677396059,0.00366519158706069,-0.0100792767480016
5,1.02222228662528,-0.100000002864918,0.1194444466846,-0.00824668072164059,0.00733038317412138,-0.01191187184304
5,1.01666671909226,-0.0972222251763917,0.12777778582816,0.00702495034784079,-0.0033597587607801,-0.0128281703218818
5,1.01527782720901,-0.0944444474878658,0.12777778582816,0.0140499006956816,-0.00244346098043024,-0.0131336031481624
5,1.01666671909226,-0.0972222251763917,0.12777778582816,0.0128281703218818,-0.000610865245107561,-0.0106901414692402
5,1.01666671909226,-0.0972222251763917,0.12777778582816,0.0128281703218818,0.00488692196086049,-0.01191187184304
5,1.01944450285877,-0.0986111170596459,0.118055554801345,0.0164933614432812,0.00397062394768,-0.00946841109544039
5,1.01944450285877,-0.0972222251763917,0.120833338567854,0.011606439948082,0.000916297896765172,-0.0152716310694814
5,1.01944450285877,-0.0986111170596459,0.130555557438704,0.00977384392172098,-0.000610865245107561,-0.0045814891345799
5,1.01527782720901,-0.0944444474878658,0.12777778582816,0.011606439948082,0.0033597587607801,-0.00824668072164059
5,1.01388893532575,-0.0916666697993398,0.123611110178398,0.0161879286170006,0.00244346098043024,-0.00305432616733015
5,1.01666671909226,-0.0930555616825939,0.120833338567854,-0.000305432622553781,0.00641408516094089,-0.000305432622553781
5,1.02083339474202,-0.0972222251763917,0.126388893944906,-0.00549778714776039,0.00916297826915979,-0.00610865233466029
5,1.01944450285877,-0.0944444474878658,0.125000002061652,0.000610865245107561,0.00671951752156019,-0.00763581553474069
5,1.01944450285877,-0.0958333393711199,0.123611110178398,0.00519235478714108,0.000305432622553781,-0.013744467869401
5,1.01666671909226,-0.0944444474878658,0.120833338567854,0.00366519158706069,-0.0113010071218014,-0.00519235478714108
5,1.01527782720901,-0.101388894748172,0.115277783190802,0.00671951752156019,-0.0131336031481624,-0.00366519158706069
5,1.01944450285877,-0.0958333393711199,0.123611110178398,0.017409659922123,-0.00794124789535999,-0.0100792767480016
5,1.01666671909226,-0.0986111170596459,0.120833338567854,0.0113010071218014,-0.00549778714776039,-0.00977384392172098
5,1.02222228662528,-0.0944444474878658,0.126388893944906,0.0164933614432812,0.0033597587607801,-0.0033597587607801
5,1.01944450285877,-0.0902777839940679,0.120833338567854,0.015577063895762,-0.000610865245107561,0.00824668072164059
5,1.01527782720901,-0.0902777839940679,0.126388893944906,0.0152716310694814,-0.0210748501121998,0.0134390350431204
5,1.01527782720901,-0.0875000002275597,0.136111112815755,0.0106901414692402,-0.0314595587551594,0.0143553335219622
5,1.01527782720901,-0.0875000002275597,0.13750000469901,0.000916297896765172,-0.0320704244077206,0.00763581553474069
5,1.01527782720901,-0.0902777839940679,0.120833338567854,-0.000610865245107561,-0.0433714315295219,0.0213802829384804
5,1.01944450285877,-0.0972222251763917,0.134722233088466,0.0128281703218818,-0.0311541277915239,0.011606439948082
5,1.02083339474202,-0.0930555616825939,0.12777778582816,0.0134390350431204,-0.0103847095742822,-0.000916297896765172
5,1.01527782720901,-0.0875000002275597,0.118055554801345,0.0134390350431204,-0.0021380283869803,0.00916297826915979
5,1.01944450285877,-0.0847222225390337,0.120833338567854,0.00855211354792118,0.00641408516094089,0.000916297896765172
5,1.01527782720901,-0.0833333367337618,0.138888896582264,-0.00916297826915979,0.00122173049021512,0.000305432622553781
5,1.01527782720901,-0.0902777839940679,0.122222230451108,-0.0143553335219622,0.00152716308366507,-0.0109955742955208
5,1.01527782720901,-0.0902777839940679,0.123611110178398,-0.00885754637420177,-0.0021380283869803,-0.00824668072164059
5,1.01944450285877,-0.0944444474878658,0.113888891307548,0.000610865245107561,0.0140499006956816,-0.011606439948082
5,1.02222228662528,-0.0916666697993398,0.120833338567854,-0.00122173049021512,0.01588249579072,-0.0210748501121998
5,1.02222228662528,-0.0916666697993398,0.120833338567854,-0.00763581553474069,-0.0177150927484035,-0.021685715764761
5,1.04166667574312,-0.0944444474878658,0.111111119697004,0.00671951752156019,-0.0497855171561241,-0.0424551330506802
5,1.03194452980806,-0.112499999424294,0.113888891307548,0.0122173046693206,-0.0302378293126821,-0.0766635909676552
5,1.01527782720901,-0.111111119697004,0.118055554801345,0.00824668072164059,0.00519235478714108,-0.0763581544160843
5,1.00555558402623,-0.101388894748172,0.118055554801345,0.00427605677396059,0.0455094613134861,-0.0455094613134861
5,1.00000001649321,-0.0888888921108138,0.111111119697004,0.00427605677396059,0.0482583530247212,-0.0219911485910416
5,1.00555558402623,-0.0819444448505077,0.113888891307548,-0.00610865233466029,0.027488935738802,-0.00427605677396059
5,1.01527782720901,-0.0875000002275597,0.113888891307548,-0.01191187184304,0.0033597587607801,0.0021380283869803
5,1.02500007039179,-0.0944444474878658,0.112499999424294,-0.00733038317412138,-0.00702495034784079,-0.00488692196086049
5,1.02777785415829,-0.0944444474878658,0.115277783190802,-0.00397062394768,0.00427605677396059,-0.00397062394768
5,1.01805561097552,-0.0916666697993398,0.118055554801345,-0.00305432616733015,0.0122173046693206,0.00366519158706069
5,1.00694447590948,-0.0888888921108138,0.126388893944906,0.00427605677396059,0.0100792767480016,0.00977384392172098
5,1.01527782720901,-0.0888888921108138,0.1194444466846,0.00397062394768,0.00610865233466029,0.00763581553474069
5,1.01944450285877,-0.0875000002275597,0.120833338567854,0.0125227374956012,-0.00427605677396059,-0.000305432622553781
5,1.02222228662528,-0.0819444448505077,0.118055554801345,0.0183259565383196,-0.00946841109544039,-0.00122173049021512
5,1.01944450285877,-0.0819444448505077,0.122222230451108,0.000610865245107561,0.00397062394768,-0.0027488935738802
5,1.0125000434425,-0.0819444448505077,0.120833338567854,0.00183259579353034,0.00183259579353034,0.00580321997404099
5,1.0125000434425,-0.0861111144222878,0.125000002061652,0.000916297896765172,-0.00549778714776039,0.00671951752156019
5,1.02361117850853,-0.0861111144222878,0.113888891307548,-0.00244346098043024,0.000916297896765172,-0.00519235478714108
5,1.01944450285877,-0.0819444448505077,0.113888891307548,-0.00549778714776039,0.00397062394768,-0.00549778714776039
5,1.01527782720901,-0.0888888921108138,0.126388893944906,-0.0149661982432008,0.01191187184304,0.00702495034784079
5,1.01527782720901,-0.0888888921108138,0.126388893944906,-0.0253509078174829,0.019547687843442,0.021685715764761
5,1.02222228662528,-0.0805555590452358,0.1194444466846,-0.0164933614432812,0.0125227374956012,0.0167987942695618
5,1.01944450285877,-0.0736111117849297,0.118055554801345,-0.017409659922123,0.00733038317412138,0.0045814891345799
5,1.01944450285877,-0.0736111117849297,0.118055554801345,-0.0125227374956012,-0.01588249579072,0.00305432616733015
5,1.03194452980806,-0.0833333367337618,0.111111119697004,-0.0113010071218014,-0.0522289797663689,0.00702495034784079
5,1.04583335139288,-0.102777780553444,0.118055554801345,-0.0045814891345799,-0.064446285367012,-0.019547687843442
5,1.04583335139288,-0.102777780553444,0.118055554801345,0.00397062394768,-0.0192422550171614,-0.0546724386513233
5,1.00416669214298,-0.104166672436698,0.1194444466846,0.017409659922123,0.0152716310694814,-0.0604756586253643
5,0.99583334084345,-0.0833333367337618,0.108333335930496,0.00733038317412138,0.0332921557128429,-0.0222965814173222
5,0.99583334084345,-0.0833333367337618,0.108333335930496,-0.0021380283869803,0.0271835029125214,-0.00366519158706069
5,1.00694447590948,-0.0847222225390337,0.118055554801345,-0.0207694191485643,0.0113010071218014,0.00519235478714108
5,1.02361117850853,-0.0972222251763917,0.101388894748172,-0.0186313893646002,0.00488692196086049,0.00366519158706069
5,1.01944450285877,-0.0972222251763917,0.101388894748172,-0.0198531206697226,0.00702495034784079,0.00977384392172098
5,1.01944450285877,-0.0972222251763917,0.101388894748172,0.00244346098043024,-0.0290160998702049,0.0219911485910416
5,1.02361117850853,-0.0861111144222878,0.122222230451108,0.0580321997404099,-0.0928515195846558,0.0378736443817616
5,1.03888889197661,-0.101388894748172,0.113888891307548,0.0763581544160843,-0.0671951770782471,0.0314595587551594
5,1.03888889197661,-0.101388894748172,0.113888891307548,0.106290549039841,-0.0201585534960032,0.0161879286170006
5,1.03194452980806,-0.120833338567854,0.111111119697004,0.115453533828259,0.0164933614432812,-0.00794124789535999
5,1.01944450285877,-0.113888891307548,0.0986111170596459,0.0956004112958908,0.0711658000946045,-0.0293215326964855
5,1.01666671909226,-0.100000002864918,0.0861111144222878,0.0766635909676552,0.0812450796365738,-0.0250454749912024
5,1.02083339474202,-0.0875000002275597,0.0986111170596459,0.0507018156349659,0.0803287774324417,-0.0412334054708481
5,1.02222228662528,-0.0875000002275597,0.100000002864918,0.0335975885391235,0.0827722400426865,-0.0357356183230877
5,1.01805561097552,-0.0944444474878658,0.118055554801345,0.0662788823246956,0.0659734457731247,-0.0287106670439243
5,1.0125000434425,-0.0916666697993398,0.133333341205212,0.106290549039841,0.0387899428606033,-0.0125227374956012
5,1.01388893532575,-0.0847222225390337,0.126388893944906,0.117591559886932,0.00671951752156019,-0.00916297826915979
5,1.01944450285877,-0.0944444474878658,0.113888891307548,0.122783914208412,0.00733038317412138,-0.0125227374956012
5,1.02361117850853,-0.101388894748172,0.10972222781375,0.112704634666443,0.0329867228865623,-0.00916297826915979
5,1.01805561097552,-0.0972222251763917,0.1194444466846,0.111788339912891,0.0222965814173222,-0.00488692196086049
5,1.01527782720901,-0.0944444474878658,0.125000002061652,0.0946841165423393,0.0345138870179653,-0.00305432616733015
5,1.00972225967599,-0.0861111144222878,0.143055560076062,0.0598647929728031,0.0183259565383196,0.0134390350431204
5,1.00138890837647,-0.0722222259796579,0.143055560076062,0.0421497002243996,0.000916297896765172,0.0241291765123606
5,1.00833336779274,-0.0680555564078778,0.140277788465518,0.0164933614432812,-0.0161879286170006,0.0406225398182869
5,1.0125000434425,-0.0638888929140799,0.140277788465518,-0.00519235478714108,-0.011606439948082,0.0430659987032413
5,1.01805561097552,-0.0708333340964038,0.143055560076062,-0.00610865233466029,-0.00122173049021512,0.0348193198442459
5,1.0125000434425,-0.0777777813567098,0.143055560076062,-0.0183259565383196,-0.00916297826915979,0.00824668072164059
5,1.02361117850853,-0.0805555590452358,0.140277788465518,-0.0167987942695618,-0.0113010071218014,-0.0134390350431204
5,1.03750000009336,-0.0875000002275597,0.12916666555545,-0.0143553335219622,-0.00244346098043024,-0.0604756586253643
5,1.03472221632685,-0.0944444474878658,0.12777778582816,-0.0143553335219622,0.0189368221908808,-0.0830776765942574
5,1.02083339474202,-0.0888888921108138,0.140277788465518,-0.0198531206697226,0.0256563406437635,-0.0897971913218498
5,0.997222232726705,-0.0750000036681839,0.14722222356986,-0.0516181141138077,0.0552833043038845,-0.0598647929728031
5,0.986111194908388,-0.0652777787193518,0.131944449321958,-0.0662788823246956,0.027488935738802,-0.00641408516094089
5,1.00138890837647,-0.0750000036681839,0.125000002061652,-0.0668897479772568,0.0152716310694814,0.00183259579353034
5,1.01666671909226,-0.0916666697993398,0.122222230451108,-0.0613919571042061,0.0198531206697226,0.000916297896765172
5,1.02361117850853,-0.0944444474878658,0.118055554801345,-0.0106901414692402,-0.0180205255746841,-0.0247400421649218
5,1.02916674604155,-0.0944444474878658,0.1194444466846,-0.00916297826915979,0.0149661982432008,-0.0351247526705265
5,1.02638896227504,-0.0944444474878658,0.111111119697004,-0.00671951752156019,0.0265726372599602,-0.0409279726445675
5,1.00972225967599,-0.0847222225390337,0.126388893944906,0.00427605677396059,0.0213802829384804,-0.03176499158144
5,1.01111115155925,-0.0819444448505077,0.120833338567854,-0.00977384392172098,0.0369573459029198,-0.021685715764761
5,1.01527782720901,-0.0694444482911319,0.125000002061652,-0.029626963660121,0.019547687843442,-0.00733038317412138
5,1.01805561097552,-0.0722222259796579,0.12916666555545,-0.0342084541916847,0.00580321997404099,-0.000610865245107561
5,1.01527782720901,-0.0722222259796579,0.12777778582816,-0.0256563406437635,0.00397062394768,0.0027488935738802
5,1.02083339474202,-0.0750000036681839,0.136111112815755,-0.0103847095742822,-0.00549778714776039,0.00427605677396059
5,1.0125000434425,-0.0805555590452358,0.140277788465518,0.0045814891345799,-0.0271835029125214,0.0106901414692402
5,1.01666671909226,-0.0861111144222878,0.12777778582816,-0.00122173049021512,-0.02382374368608,0.00610865233466029
5,1.01944450285877,-0.0805555590452358,0.130555557438704,0.0109955742955208,-0.019547687843442,0.00824668072164059
5,1.01388893532575,-0.0763888894734557,0.12777778582816,0.0207694191485643,-0.0189368221908808,0.0100792767480016
5,1.02222228662528,-0.0750000036681839,0.14583334384257,0.0207694191485643,-0.011606439948082,0.00977384392172098
5,1.01666671909226,-0.0680555564078778,0.126388893944906,0.00946841109544039,0.00855211354792118,0.0192422550171614
5,1.01666671909226,-0.0680555564078778,0.125000002061652,-0.00702495034784079,0.0140499006956816,0.015577063895762
5,1.0125000434425,-0.0680555564078778,0.136111112815755,-0.00946841109544039,-0.00122173049021512,0.0201585534960032
5,1.0125000434425,-0.0722222259796579,0.141666668192807,0.00183259579353034,-0.0226020142436027,0.0229074470698834
5,1.01527782720901,-0.0819444448505077,0.116666675074056,0.0152716310694814,-0.0222965814173222,0.0268780700862408
5,1.02222228662528,-0.0916666697993398,0.113888891307548,0.0177150927484035,-0.00580321997404099,0.0177150927484035
5,1.02361117850853,-0.104166672436698,0.118055554801345,0.02382374368608,0.0189368221908808,0.00671951752156019
5,1.02638896227504,-0.100000002864918,0.1194444466846,0.0387899428606033,0.0232128798961639,-0.0021380283869803
5,1.01944450285877,-0.0875000002275597,0.134722233088466,0.0464257597923279,0.0219911485910416,-0.0109955742955208
5,1.01388893532575,-0.0736111117849297,0.140277788465518,0.0503963828086853,0.00519235478714108,-0.00794124789535999
5,1.01388893532575,-0.0736111117849297,0.140277788465518,0.0442877300083637,-0.0226020142436027,0.00641408516094089
5,1.01805561097552,-0.0750000036681839,0.140277788465518,0.0323758572340012,-0.0320704244077206,0.00763581553474069
5,1.01944450285877,-0.0736111117849297,0.125000002061652,0.0189368221908808,-0.0171042270958424,0.0131336031481624
5,1.01944450285877,-0.0833333367337618,0.12777778582816,0.00610865233466029,-0.0125227374956012,0.0152716310694814
5,1.02083339474202,-0.0777777813567098,0.125000002061652,0.000916297896765172,-0.00549778714776039,0.00733038317412138
5,1.02500007039179,-0.0847222225390337,0.122222230451108,-0.00122173049021512,0.00671951752156019,-0.00305432616733015
5,1.02083339474202,-0.0875000002275597,0.12777778582816,-0.00183259579353034,0.00152716308366507,-0.00580321997404099
5,1.01666671909226,-0.0875000002275597,0.126388893944906,-0.00488692196086049,0.00305432616733015,-0.00702495034784079
5,1.0125000434425,-0.0847222225390337,0.12916666555545,-0.0033597587607801,-0.00733038317412138,0.00244346098043024
5,1.01527782720901,-0.0833333367337618,0.12777778582816,0.00183259579353034,-0.01588249579072,0.0045814891345799
5,1.01527782720901,-0.0847222225390337,0.130555557438704,0.00916297826915979,-0.0131336031481624,0.0106901414692402
5,1.01527782720901,-0.0888888921108138,0.130555557438704,0.01191187184304,-0.00610865233466029,-0.00122173049021512
5,1.02222228662528,-0.0916666697993398,0.130555557438704,0.011606439948082,-0.00671951752156019,-0.0033597587607801
5,1.02083339474202,-0.0888888921108138,0.131944449321958,0.0198531206697226,0.000610865245107561,0.000916297896765172
5,1.02083339474202,-0.0875000002275597,0.131944449321958,0.0140499006956816,-0.00152716308366507,0.00946841109544039
5,1.01805561097552,-0.0875000002275597,0.130555557438704,0.0152716310694814,0.0033597587607801,-0.00366519158706069
5,1.01388893532575,-0.0833333367337618,0.12777778582816,0.01191187184304,-0.013744467869401,0.0167987942695618
5,1.01527782720901,-0.0847222225390337,0.144444451959316,0.0131336031481624,-0.019547687843442,0.00519235478714108
5,1.01666671909226,-0.0902777839940679,0.13750000469901,0.0177150927484035,-0.013744467869401,0.00580321997404099
5,1.01944450285877,-0.0888888921108138,0.12777778582816,0.0271835029125214,-0.0149661982432008,-0.00641408516094089
5,1.02222228662528,-0.0875000002275597,0.122222230451108,0.0241291765123606,-0.0128281703218818,-0.0152716310694814
5,1.01944450285877,-0.0777777813567098,0.123611110178398,0.0045814891345799,-0.0128281703218818,-0.0171042270958424
5,1.01388893532575,-0.0722222259796579,0.126388893944906,-0.00946841109544039,-0.00122173049021512,0.000916297896765172
5,1.01944450285877,-0.0763888894734557,0.113888891307548,-0.00580321997404099,-0.0128281703218818,0.0311541277915239
5,1.01111115155925,-0.0777777813567098,0.131944449321958,0.0210748501121998,-0.0342084541916847,0.0397062413394451
5,1.00972225967599,-0.0930555616825939,0.12777778582816,0.0314595587551594,-0.0500909499824047,0.0445931628346443
5,1.01388893532575,-0.0944444474878658,0.122222230451108,0.0406225398182869,-0.0439822971820831,0.0326812900602817
5,1.02222228662528,-0.0958333393711199,0.120833338567854,0.0369573459029198,-0.01191187184304,0.00549778714776039
5,1.02361117850853,-0.0916666697993398,0.115277783190802,0.0332921557128429,0.0103847095742822,0.0027488935738802
5,1.02083339474202,-0.0805555590452358,0.125000002061652,0.0183259565383196,0.00702495034784079,-0.000916297896765172
5,1.01944450285877,-0.0791666671619817,0.125000002061652,0.0152716310694814,0.0103847095742822,0.0103847095742822
5,1.01805561097552,-0.0750000036681839,0.12777778582816,0.0106901414692402,0.0134390350431204,0.0149661982432008
5,1.0125000434425,-0.0750000036681839,0.126388893944906,-0.00305432616733015,0.00152716308366507,0.00916297826915979
5,1.01388893532575,-0.0791666671619817,0.130555557438704,-0.0189368221908808,-0.0106901414692402,0.01588249579072
5,1.01388893532575,-0.0819444448505077,0.125000002061652,-0.0198531206697226,-0.0143553335219622,0.0045814891345799
5,1.01805561097552,-0.0847222225390337,0.115277783190802,-0.0259617734700441,-0.0152716310694814,0.00488692196086049
5,1.01944450285877,-0.0916666697993398,0.120833338567854,-0.0290160998702049,-0.0192422550171614,-0.000610865245107561
5,1.01944450285877,-0.0916666697993398,0.120833338567854,-0.0268780700862408,-0.013744467869401,0.00885754637420177
5,1.02222228662528,-0.0930555616825939,0.120833338567854,-0.0210748501121998,-0.0122173046693206,0.0189368221908808
5,1.02083339474202,-0.0986111170596459,0.1194444466846,-0.00488692196086049,-0.0021380283869803,0.0149661982432008
5,1.01527782720901,-0.104166672436698,0.113888891307548,0.00824668072164059,-0.00519235478714108,0.0201585534960032
5,1.0125000434425,-0.101388894748172,0.126388893944906,0.0232128798961639,-0.0219911485910416,0.0284052342176437
5,1.01527782720901,-0.0916666697993398,0.125000002061652,0.0311541277915239,-0.01191187184304,0.0186313893646002
5,1.01527782720901,-0.0916666697993398,0.133333341205212,0.0271835029125214,-0.01191187184304,0.0140499006956816
5,1.01666671909226,-0.0888888921108138,0.130555557438704,0.0210748501121998,-0.0277943685650826,0.0164933614432812
5,1.02222228662528,-0.0916666697993398,0.125000002061652,0.0183259565383196,-0.0128281703218818,0.0131336031481624
5,1.02222228662528,-0.0916666697993398,0.12916666555545,0.0152716310694814,-0.00244346098043024,0.00122173049021512
5,1.01666671909226,-0.0958333393711199,0.134722233088466,0.017409659922123,-0.00641408516094089,0.00152716308366507
5,1.0125000434425,-0.0791666671619817,0.131944449321958,0.013744467869401,-0.0323758572340012,0.00488692196086049
5,1.01805561097552,-0.0791666671619817,0.1194444466846,-0.0027488935738802,-0.0259617734700441,0.00824668072164059
5,1.01944450285877,-0.0777777813567098,0.131944449321958,-0.0222965814173222,-0.0201585534960032,0.0161879286170006
5,1.02222228662528,-0.0875000002275597,0.112499999424294,-0.0357356183230877,-0.0149661982432008,0.0143553335219622
5,1.02083339474202,-0.0833333367337618,0.101388894748172,-0.0381790772080422,-0.0180205255746841,0.00916297826915979
5,1.02083339474202,-0.0916666697993398,0.101388894748172,-0.0540615729987621,-0.00641408516094089,-0.00244346098043024
5,1.02222228662528,-0.0888888921108138,0.113888891307548,-0.0452040284872055,0.00610865233466029,-0.00794124789535999
5,1.0125000434425,-0.0777777813567098,0.131944449321958,-0.0442877300083637,-0.00641408516094089,0.00366519158706069
5,1.0125000434425,-0.0777777813567098,0.131944449321958,-0.0549778714776039,-0.0452040284872055,0.0143553335219622
5,1.0125000434425,-0.0861111144222878,0.108333335930496,-0.0739146918058395,-0.0571159012615681,0.0247400421649218
5,1.0125000434425,-0.0861111144222878,0.108333335930496,-0.0736092627048492,-0.0507018156349659,0.0357356183230877
5,1.02361117850853,-0.104166672436698,0.10972222781375,-0.0589484944939613,-0.0409279726445675,0.0280998013913631
5,1.02222228662528,-0.112499999424294,0.102777780553444,-0.0421497002243996,-0.0342084541916847,0.0226020142436027
5,1.02222228662528,-0.118055554801345,0.0958333393711199,-0.0470366254448891,-0.0122173046693206,0.0122173046693206
5,1.02500007039179,-0.118055554801345,0.101388894748172,-0.0308486949652433,0.0027488935738802,0.00794124789535999
5,1.01527782720901,-0.10972222781375,0.122222230451108,-0.00794124789535999,-0.019547687843442,0.0128281703218818
5,1.0125000434425,-0.102777780553444,0.122222230451108,-0.0109955742955208,-0.03176499158144,0.0232128798961639
5,1.00972225967599,-0.0944444474878658,0.115277783190802,-0.0183259565383196,-0.0479529201984406,0.0372627787292004
5,1.01805561097552,-0.0944444474878658,0.116666675074056,-0.0293215326964855,-0.0415388382971287,0.0381790772080422
5,1.01944450285877,-0.0944444474878658,0.106944444047242,-0.027488935738802,-0.029626963660121,0.0430659987032413
5,1.01805561097552,-0.0986111170596459,0.102777780553444,-0.0256563406437635,-0.0302378293126821,0.0280998013913631
5,1.01944450285877,-0.106944444047242,0.105555564319952,-0.0241291765123606,-0.0232128798961639,0.0222965814173222
5,1.01944450285877,-0.10972222781375,0.101388894748172,-0.021685715764761,-0.0134390350431204,0.0213802829384804
5,1.01944450285877,-0.102777780553444,0.0944444474878658,-0.013744467869401,-0.01588249579072,0.0134390350431204
5,1.01666671909226,-0.104166672436698,0.105555564319952,-0.0167987942695618,-0.0210748501121998,0.01191187184304
5,1.02083339474202,-0.102777780553444,0.106944444047242,-0.0186313893646002,-0.0226020142436027,0.0201585534960032
5,1.01527782720901,-0.102777780553444,0.0986111170596459,-0.0192422550171614,-0.0381790772080422,0.0198531206697226
5,1.02361117850853,-0.101388894748172,0.0986111170596459,-0.01588249579072,-0.0369573459029198,0.0167987942695618
5,1.02083339474202,-0.113888891307548,0.0944444474878658,-0.0201585534960032,-0.0210748501121998,0.00610865233466029
5,1.0125000434425,-0.115277783190802,0.102777780553444,0.00122173049021512,-0.00702495034784079,0.0167987942695618
5,1.01111115155925,-0.113888891307548,0.112499999424294,0.0491746515035629,-0.0280998013913631,0.0323758572340012
5,1.02361117850853,-0.1194444466846,0.100000002864918,0.00763581553474069,-0.0299323964864016,0.0161879286170006
5,1.02638896227504,-0.1194444466846,0.0861111144222878,0.0265726372599602,0.00641408516094089,0.0134390350431204
5,1.02222228662528,-0.113888891307548,0.0750000036681839,0.0308486949652433,-0.00610865233466029,0.00397062394768
5,1.01527782720901,-0.1194444466846,0.0902777839940679,0.0491746515035629,-0.0106901414692402,0.0149661982432008
5,1.02222228662528,-0.123611110178398,0.0875000002275597,0.0531452745199203,-0.0134390350431204,0.0122173046693206
5,1.02222228662528,-0.118055554801345,0.0958333393711199,0.0549778714776039,-0.000916297896765172,0.00488692196086049
5,1.01666671909226,-0.105555564319952,0.0986111170596459,0.0519235469400883,0.00641408516094089,0.00946841109544039
5,1.02222228662528,-0.104166672436698,0.104166672436698,0.0494800843298435,-0.0109955742955208,0.00610865233466029
5,1.02500007039179,-0.101388894748172,0.0944444474878658,0.0473420582711697,-0.0106901414692402,0.00855211354792118
5,1.02222228662528,-0.0986111170596459,0.0972222251763917,0.02382374368608,-0.00244346098043024,0.00977384392172098
5,1.02222228662528,-0.0944444474878658,0.104166672436698,0.00183259579353034,0.00610865233466029,0.00183259579353034
5,1.02361117850853,-0.0958333393711199,0.101388894748172,0.00152716308366507,0.00824668072164059,-0.00122173049021512
5,1.01944450285877,-0.0902777839940679,0.104166672436698,-0.0177150927484035,0.0134390350431204,0.000916297896765172
5,1.01666671909226,-0.0958333393711199,0.100000002864918,-0.0339030213654041,0.00977384392172098,-0.00580321997404099
5,1.01666671909226,-0.0916666697993398,0.106944444047242,-0.0473420582711697,-0.0045814891345799,-0.0021380283869803
5,1.02083339474202,-0.0986111170596459,0.108333335930496,-0.0592539273202419,-0.00488692196086049,-0.00366519158706069
5,1.01805561097552,-0.101388894748172,0.101388894748172,-0.0607810914516449,0.0109955742955208,-0.00885754637420177
5,1.01527782720901,-0.101388894748172,0.100000002864918,-0.0549778714776039,0.00763581553474069,-0.0131336031481624
5,1.01666671909226,-0.104166672436698,0.0986111170596459,-0.0678060427308083,0.00763581553474069,-0.00763581553474069
5,1.01527782720901,-0.108333335930496,0.108333335930496,-0.0540615729987621,-0.0113010071218014,0.00519235478714108
5,1.01527782720901,-0.111111119697004,0.0986111170596459,-0.0445931628346443,-0.00549778714776039,0.0045814891345799
5,1.01805561097552,-0.118055554801345,0.0972222251763917,-0.0430659987032413,-0.0152716310694814,-0.00549778714776039
5,1.02083339474202,-0.116666675074056,0.100000002864918,-0.0210748501121998,0.00152716308366507,0.00366519158706069
5,1.01527782720901,-0.118055554801345,0.0986111170596459,-0.0180205255746841,-0.000305432622553781,-0.0027488935738802
5,1.02083339474202,-0.115277783190802,0.0944444474878658,-0.0201585534960032,-0.00152716308366507,-0.00549778714776039
5,1.02361117850853,-0.108333335930496,0.0944444474878658,-0.00855211354792118,-0.0045814891345799,-0.00671951752156019
5,1.01805561097552,-0.108333335930496,0.0916666697993398,-0.00397062394768,-0.0146607663482428,-0.00244346098043024
5,1.0125000434425,-0.108333335930496,0.0902777839940679,-0.00519235478714108,-0.0109955742955208,0.00366519158706069
5,1.02361117850853,-0.111111119697004,0.0944444474878658,0.00366519158706069,-0.011606439948082,-0.000610865245107561
5,1.02222228662528,-0.106944444047242,0.0930555616825939,0.0134390350431204,0.00305432616733015,-0.00397062394768
5,1.01944450285877,-0.104166672436698,0.0986111170596459,0.0122173046693206,-0.00366519158706069,-0.000916297896765172
5,1.01944450285877,-0.101388894748172,0.0916666697993398,0.00824668072164059,-0.00916297826915979,-0.000305432622553781
5,1.01805561097552,-0.106944444047242,0.0986111170596459,-0.00488692196086049,-0.00519235478714108,-0.00122173049021512
5,1.0125000434425,-0.105555564319952,0.0944444474878658,-0.00305432616733015,0.00855211354792118,0.011606439948082
5,1.01944450285877,-0.102777780553444,0.0930555616825939,-0.000916297896765172,-0.00794124789535999,0.00305432616733015
5,1.01944450285877,-0.105555564319952,0.0944444474878658,-0.00183259579353034,-0.00733038317412138,0.0033597587607801
5,1.01527782720901,-0.108333335930496,0.0944444474878658,0.0033597587607801,0.00152716308366507,-0.00122173049021512
5,1.02083339474202,-0.108333335930496,0.101388894748172,0.00122173049021512,-0.00244346098043024,-0.00885754637420177
5,1.02083339474202,-0.108333335930496,0.101388894748172,0.0033597587607801,-0.00855211354792118,-0.00305432616733015
5,1.01666671909226,-0.111111119697004,0.102777780553444,0.0128281703218818,-0.00366519158706069,0.000305432622553781
5,1.01527782720901,-0.10972222781375,0.0916666697993398,0.00763581553474069,0.00366519158706069,0.0033597587607801
5,1.01527782720901,-0.10972222781375,0.0916666697993398,0.0109955742955208,0.00671951752156019,0.00305432616733015
5,1.01527782720901,-0.105555564319952,0.0944444474878658,0.00733038317412138,0.00183259579353034,-0.0021380283869803
5,1.02361117850853,-0.111111119697004,0.104166672436698,0.00549778714776039,0.00152716308366507,0.00152716308366507
5,1.02083339474202,-0.104166672436698,0.0972222251763917,0.00549778714776039,0.0027488935738802,0.000610865245107561
5,1.01805561097552,-0.108333335930496,0.0972222251763917,0.00671951752156019,-0.00366519158706069,-0.0045814891345799
5,1.01527782720901,-0.105555564319952,0.0944444474878658,0.00824668072164059,0.00366519158706069,-0.00488692196086049
5,1.01944450285877,-0.112499999424294,0.0902777839940679,0.00549778714776039,0.0122173046693206,-0.00824668072164059
5,1.01944450285877,-0.106944444047242,0.0986111170596459,0.0143553335219622,0.0149661982432008,-0.00610865233466029
5,1.01666671909226,-0.104166672436698,0.108333335930496,0.0125227374956012,0.00702495034784079,-0.00122173049021512
5,1.01527782720901,-0.108333335930496,0.105555564319952,0.0106901414692402,-0.00427605677396059,0.00122173049021512
5,1.01805561097552,-0.108333335930496,0.0972222251763917,0.0103847095742822,-0.00977384392172098,0.0100792767480016
5,1.02222228662528,-0.108333335930496,0.0972222251763917,0.0226020142436027,0.00366519158706069,0.00244346098043024
5,1.02083339474202,-0.10972222781375,0.100000002864918,0.0143553335219622,0.00183259579353034,0.00366519158706069
5,1.01944450285877,-0.104166672436698,0.0958333393711199,0.013744467869401,-0.00152716308366507,0.00733038317412138
5,1.02083339474202,-0.108333335930496,0.0972222251763917,0.00519235478714108,-0.0045814891345799,0.00305432616733015
5,1.02222228662528,-0.105555564319952,0.0805555590452358,0.0100792767480016,0.00671951752156019,0.00641408516094089
5,1.01666671909226,-0.105555564319952,0.0944444474878658,0.0045814891345799,0.0045814891345799,0.0021380283869803
5,1.01805561097552,-0.0986111170596459,0.0916666697993398,0.00305432616733015,-0.000916297896765172,0.00488692196086049
5,1.01944450285877,-0.104166672436698,0.101388894748172,0.00122173049021512,-0.000610865245107561,0.00122173049021512
5,1.01805561097552,-0.104166672436698,0.101388894748172,0.0027488935738802,-0.000305432622553781,-0.000916297896765172
5,1.02083339474202,-0.101388894748172,0.0972222251763917,0.00580321997404099,-0.0021380283869803,-0.0027488935738802
5,1.02083339474202,-0.100000002864918,0.0986111170596459,0.011606439948082,0.00152716308366507,-0.000610865245107561
5,1.01944450285877,-0.104166672436698,0.0944444474878658,0.00916297826915979,-0.00122173049021512,0.00152716308366507
5,1.01944450285877,-0.104166672436698,0.0847222225390337,0.00580321997404099,-0.0045814891345799,0.00152716308366507
5,1.01805561097552,-0.108333335930496,0.0986111170596459,0.00885754637420177,0.00580321997404099,-0.00549778714776039
5,1.01666671909226,-0.104166672436698,0.101388894748172,0.0021380283869803,0.000610865245107561,-0.00183259579353034
5,1.01944450285877,-0.102777780553444,0.101388894748172,-0.00671951752156019,-0.00397062394768,-0.00641408516094089
5,1.02222228662528,-0.106944444047242,0.0986111170596459,-0.0106901414692402,-0.00824668072164059,0.000305432622553781
5,1.01527782720901,-0.111111119697004,0.0986111170596459,-0.000305432622553781,-0.00397062394768,0.00305432616733015
5,1.01527782720901,-0.10972222781375,0.100000002864918,-0.00641408516094089,0.00671951752156019,0.00305432616733015
5,1.01944450285877,-0.108333335930496,0.111111119697004,-0.00366519158706069,0.00519235478714108,-0.00152716308366507
5,1.02222228662528,-0.108333335930496,0.0986111170596459,-0.00580321997404099,-0.00397062394768,0.00488692196086049
5,1.01527782720901,-0.108333335930496,0.111111119697004,-0.00946841109544039,-0.00549778714776039,-0.000305432622553781
5,1.01805561097552,-0.112499999424294,0.102777780553444,-0.00397062394768,-0.00305432616733015,-0.0027488935738802
5,1.01944450285877,-0.115277783190802,0.0930555616825939,0.000916297896765172,-0.0021380283869803,0.00977384392172098
5,1.02222228662528,-0.118055554801345,0.0986111170596459,0.00427605677396059,-0.0021380283869803,0.0033597587607801
5,1.01944450285877,-0.113888891307548,0.0958333393711199,0.0131336031481624,-0.00977384392172098,0.00519235478714108
5,1.02083339474202,-0.116666675074056,0.101388894748172,0.00824668072164059,0.00183259579353034,0.0128281703218818
5,1.01805561097552,-0.111111119697004,0.0875000002275597,0.00305432616733015,0.0021380283869803,0.00305432616733015
5,1.01944450285877,-0.108333335930496,0.0861111144222878,-0.00488692196086049,-0.00244346098043024,0.00122173049021512
5,1.02500007039179,-0.113888891307548,0.0958333393711199,-0.000916297896765172,-0.00610865233466029,0.0113010071218014
5,1.01944450285877,-0.115277783190802,0.0888888921108138,0.0021380283869803,-0.00946841109544039,0.00794124789535999
5,1.01805561097552,-0.118055554801345,0.0875000002275597,0.00794124789535999,-0.00580321997404099,0.011606439948082
5,1.01805561097552,-0.112499999424294,0.0986111170596459,0.00763581553474069,-0.00305432616733015,0.00641408516094089
5,1.01666671909226,-0.118055554801345,0.0902777839940679,0.00671951752156019,0.00519235478714108,0.00122173049021512
5,1.01944450285877,-0.120833338567854,0.104166672436698,0.00794124789535999,-0.0021380283869803,0.00366519158706069
5,1.01666671909226,-0.1194444466846,0.104166672436698,0.0103847095742822,-0.00152716308366507,-0.000916297896765172
5,1.01805561097552,-0.113888891307548,0.0916666697993398,0.0113010071218014,-0.00488692196086049,0.00366519158706069
5,1.01527782720901,-0.10972222781375,0.0958333393711199,0.00610865233466029,-0.00183259579353034,0.00824668072164059
5,1.01527782720901,-0.111111119697004,0.0944444474878658,0.00885754637420177,-0.00610865233466029,0.000305432622553781
5,1.01944450285877,-0.10972222781375,0.0944444474878658,0.013744467869401,0.00397062394768,0.00427605677396059
5,1.02222228662528,-0.111111119697004,0.101388894748172,0.0143553335219622,0.00122173049021512,0.00519235478714108
