Activity,acc_x,acc_y,acc_z,gyro_x,gyro_y,gyro_z
0,0.402777795226179,0.200000005729836,0.925000049292922,-0.0406225398182869,-0.0152716310694814,0.173791155219078
0,0.462500024646461,0.195833342236038,0.861111119910949,0.0665843114256859,0.0409279726445675,0.541837453842163
0,0.400000011459671,0.176388892338373,0.863888903677457,0.222965821623802,0.160046696662903,0.900109946727753
0,0.400000011459671,0.176388892338373,0.863888903677457,0.272140473127365,0.193644285202026,0.798095464706421
0,0.17361112072783,0.118055554801345,0.956944465360051,0.299018532037735,0.0827722400426865,0.344222575426102
0,0.12777778582816,0.1194444466846,1.00555558402623,0.269391566514969,-0.0546724386513233,-0.306043475866318
0,0.12777778582816,0.1194444466846,1.00555558402623,0.13225232064724,-0.0946841165423393,-0.893695831298828
0,0.161111118090472,0.116666675074056,1.04583335139288,-0.116980694234371,-0.192422553896904,-0.947146534919739
0,0.320833344297689,0.140277788465518,1.00416669214298,-0.313068449497223,-0.156992360949516,-0.77640974521637
0,0.320833344297689,0.140277788465518,1.00416669214298,-0.414472073316574,-0.113620936870575,-0.436768651008606
0,0.390277792588821,0.163888889701015,0.94305554652751,-0.344222575426102,-0.0326812900602817,-0.0378736443817616
0,0.443055586904762,0.180555567988136,0.86805557932722,-0.122783914208412,0.0965167060494423,0.404392778873444
0,0.451388889580428,0.17361112072783,0.82222224442755,0.100181899964809,0.156381502747536,0.68630713224411
0,0.380555573717971,0.163888889701015,0.833333379493583,0.329867243766785,0.029626963660121,0.56657749414444
0,0.263888898643915,0.148611115453114,0.89166674134254,0.417831838130951,-0.0766635909676552,0.0757472887635231
0,0.156944454596674,0.144444451959316,0.956944465360051,0.347582310438156,-0.115453533828259,-0.59315013885498
0,0.14722222356986,0.13750000469901,1.02916674604155,0.0665843114256859,-0.0534507073462009,-1.01525807380676
0,0.226388890731841,0.134722233088466,1.06527783775844,-0.323453158140182,-0.0855211317539215,-0.962112784385681
0,0.29166668768514,0.141666668192807,1.04722224327614,-0.533896207809448,-0.0821613743901253,-0.764192402362823
0,0.351388892793493,0.154166670830166,0.994444448960196,-0.578183948993683,-0.0815505087375641,-0.469449937343597
0,0.415277797863537,0.176388892338373,0.916666697993398,-0.33841934800148,0.0192422550171614,0.0574213340878487
0,0.440277803138253,0.184722231481934,0.866666687443965,-0.0561996027827263,0.0894917547702789,0.426994800567627
0,0.400000011459671,0.194444450352783,0.844444514559616,0.143247902393341,0.0427605658769607,0.561079740524292
0,0.340277782039389,0.195833342236038,0.876388930626744,0.22785273194313,-0.0241291765123606,0.433408886194229
0,0.286111120152123,0.187500003092477,0.919444481759906,0.183565005660057,-0.0424551330506802,0.189979091286659
0,0.25555557165632,0.18333333959868,0.956944465360051,0.130114302039146,-0.0455094613134861,-0.0171042270958424
0,0.265277790527169,0.177777784221628,0.981944519258625,0.00427605677396059,0.0125227374956012,-0.200363799929619
0,0.295833339022973,0.154166670830166,0.979166735492117,-0.0864374339580536,0.00152716308366507,-0.123089343309402
0,0.312500017310094,0.143055560076062,0.969444492309338,-0.103236228227615,0.0232128798961639,-0.0164933614432812
0,0.308333341660331,0.144444451959316,0.962500032893068,-0.119729585945606,0.0522289797663689,0.0146607663482428
0,0.304166666010569,0.150000007336368,0.948611114060526,-0.11606439948082,0.0757472887635231,-0.00733038317412138
0,0.304166666010569,0.144444451959316,0.945833330294018,-0.114231802523136,0.0589484944939613,-0.00122173049021512
0,0.306944449777077,0.144444451959316,0.93750007624221,-0.107206851243973,0.0491746515035629,0.00702495034784079
0,0.302777798439244,0.150000007336368,0.938888968125464,-0.0678060427308083,0.0323758572340012,-0.00122173049021512
0,0.305555557893823,0.14722222356986,0.930555616825939,-0.0775798857212067,0.0323758572340012,-0.0207694191485643
0,0.309722233543585,0.14722222356986,0.933333400592447,-0.0607810914516449,-0.00519235478714108,-0.0406225398182869
0,0.315277801076602,0.140277788465518,0.923611157409668,-0.0229074470698834,-0.0222965814173222,-0.017409659922123
0,0.312500017310094,0.144444451959316,0.934722292475701,0.0247400421649218,-0.00244346098043024,-0.000305432622553781
0,0.313888909193348,0.141666668192807,0.93750007624221,0.0134390350431204,0.000610865245107561,0.0482583530247212
0,0.318055560531181,0.14722222356986,0.948611114060526,-0.0180205255746841,0.017409659922123,0.106290549039841
0,0.316666668647927,0.13750000469901,0.952777789710289,-0.0372627787292004,0.00397062394768,0.144469633698463
0,0.302777798439244,0.13750000469901,0.962500032893068,-0.0455094613134861,0.0461203269660473,0.165544480085373
0,0.302777798439244,0.13750000469901,0.962500032893068,-0.0769690200686455,0.0675006061792374,0.140193566679955
0,0.295833339022973,0.134722233088466,0.958333357243305,-0.102014496922493,0.0882700309157372,0.117591559886932
0,0.302777798439244,0.112499999424294,0.94305554652751,-0.0821613743901253,0.0287106670439243,0.120951317250729
0,0.295833339022973,0.111111119697004,0.940277860008718,0.0033597587607801,-0.0152716310694814,0.116980694234371
0,0.288888903918631,0.112499999424294,0.938888968125464,0.0439822971820831,-0.021685715764761,0.0568104684352875
0,0.286111120152123,0.106944444047242,0.941666654644256,0.0540615729987621,-0.0372627787292004,-0.0287106670439243
0,0.288888903918631,0.108333335930496,0.941666654644256,0.0265726372599602,-0.0363464802503586,-0.0287106670439243
0,0.306944449777077,0.111111119697004,0.948611114060526,0.019547687843442,-0.0262672062963247,0.0152716310694814
0,0.305555557893823,0.111111119697004,0.947222222177272,0.0027488935738802,-0.0177150927484035,0.00671951752156019
0,0.302777798439244,0.113888891307548,0.940277860008718,0.0186313893646002,-0.000610865245107561,0.00763581553474069
0,0.305555557893823,0.118055554801345,0.95000000594378,0.000916297896765172,0.0171042270958424,-0.0213802829384804
0,0.308333341660331,0.113888891307548,0.956944465360051,-0.00183259579353034,0.00519235478714108,-0.0299323964864016
0,0.301388906555989,0.100000002864918,0.95000000594378,0.0620028227567673,0.00366519158706069,-0.117286130785942
0,0.281944444502361,0.123611110178398,0.945833330294018,0.0708603709936142,0.127365410327911,-0.175929188728332
0,0.295833339022973,0.131944449321958,0.956944465360051,-0.0351247526705265,-0.106595985591412,-0.130419731140137
0,0.312500017310094,0.116666675074056,0.961111141009813,-0.0684169083833694,-0.104152522981167,-0.0806342139840126
0,0.312500017310094,0.13750000469901,0.951388897827035,-0.0629191175103188,0.0577267669141293,-0.0714712366461754
0,0.308333341660331,0.133333341205212,0.947222222177272,-0.106290549039841,0.02382374368608,-0.0613919571042061
0,0.312500017310094,0.130555557438704,0.947222222177272,-0.120645888149738,0.0259617734700441,-0.0366519130766392
0,0.308333341660331,0.12777778582816,0.947222222177272,-0.0794124826788902,0.0198531206697226,0.00427605677396059
0,0.301388906555989,0.123611110178398,0.95000000594378,-0.0232128798961639,-0.0448985956609249,0.0201585534960032
0,0.297222230906227,0.133333341205212,0.95000000594378,0.0256563406437635,-0.0574213340878487,-0.0510072484612465
0,0.308333341660331,0.134722233088466,0.905555562927365,0.204028993844986,0.00977384392172098,-0.0629191175103188
0,0.308333341660331,0.134722233088466,0.905555562927365,0.132863193750381,-0.115148097276688,0.00152716308366507
0,0.308333341660331,0.150000007336368,0.936111184358955,0.0571159012615681,0.0152716310694814,-0.00519235478714108
0,0.301388906555989,0.14722222356986,0.93750007624221,0.0140499006956816,-0.0021380283869803,-0.019547687843442
0,0.301388906555989,0.144444451959316,0.945833330294018,0.0122173046693206,0.0183259565383196,-0.029626963660121
0,0.305555557893823,0.143055560076062,0.936111184358955,0.0106901414692402,0.0384845100343227,-0.0290160998702049
0,0.313888909193348,0.126388893944906,0.923611157409668,0.0201585534960032,-0.0210748501121998,-0.00427605677396059
0,0.305555557893823,0.126388893944906,0.933333400592447,0.0568104684352875,0.0167987942695618,0.00733038317412138
0,0.295833339022973,0.123611110178398,0.947222222177272,0.0525344125926495,0.0311541277915239,0.0219911485910416
0,0.297222230906227,0.125000002061652,0.94305554652751,0.0128281703218818,-0.0045814891345799,0.00610865233466029
0,0.301388906555989,0.133333341205212,0.947222222177272,-0.0128281703218818,0.0412334054708481,0.00610865233466029
0,0.298611122789481,0.12916666555545,0.951388897827035,-0.00946841109544039,0.0201585534960032,-0.0033597587607801
0,0.298611122789481,0.125000002061652,0.952777789710289,0.00946841109544039,0.0235183127224445,-0.0045814891345799
0,0.300000014672736,0.1194444466846,0.956944465360051,-0.00671951752156019,-0.000916297896765172,-0.0192422550171614
0,0.304166666010569,0.125000002061652,0.954166681593543,-0.0360410511493683,0.0122173046693206,-0.0351247526705265
0,0.305555557893823,0.120833338567854,0.947222222177272,-0.037568211555481,-0.00427605677396059,-0.0360410511493683
0,0.300000014672736,0.125000002061652,0.95000000594378,0.00916297826915979,0.00122173049021512,-0.00946841109544039
0,0.298611122789481,0.12777778582816,0.951388897827035,0.01588249579072,-0.0345138870179653,-0.01588249579072
0,0.306944449777077,0.138888896582264,0.956944465360051,0.0229074470698834,-0.0409279726445675,-0.0464257597923279
0,0.306944449777077,0.144444451959316,0.955555573476797,-0.0021380283869803,-0.0409279726445675,-0.0537561401724815
0,0.306944449777077,0.144444451959316,0.955555573476797,-0.0247400421649218,-0.0491746515035629,-0.0320704244077206
0,0.327777779402031,0.140277788465518,0.951388897827035,-0.0332921557128429,-0.0268780700862408,0.037568211555481
0,0.325000019947452,0.136111112815755,0.95000000594378,-0.037568211555481,-0.00549778714776039,0.0949895456433296
0,0.320833344297689,0.136111112815755,0.948611114060526,-0.0366519130766392,0.0131336031481624,0.0980438739061356
0,0.305555557893823,0.12777778582816,0.959722249126559,-0.0571159012615681,0.0244346093386412,0.0696386396884918
0,0.293055555256465,0.12777778582816,0.963888924776322,-0.0668897479772568,-0.0164933614432812,0.0293215326964855
0,0.295833339022973,0.115277783190802,0.955555573476797,-0.0430659987032413,-0.0687223374843597,0.0384845100343227
0,0.304166666010569,0.10972222781375,0.959722249126559,-0.017409659922123,-0.0916297882795334,0.0711658000946045
0,0.312500017310094,0.112499999424294,0.940277860008718,-0.000305432622553781,-0.106595985591412,0.098960168659687
0,0.302777798439244,0.120833338567854,0.95000000594378,-0.00641408516094089,-0.0729983970522881,0.0781907513737679
0,0.305555557893823,0.125000002061652,0.940277860008718,-0.00794124789535999,-0.10598511993885,0.0427605658769607
0,0.313888909193348,0.120833338567854,0.930555616825939,0.0241291765123606,-0.123394779860973,0.0287106670439243
0,0.316666668647927,0.123611110178398,0.922222265526414,0.0455094613134861,-0.10567969083786,0.0210748501121998
0,0.322222236180943,0.130555557438704,0.936111184358955,0.0461203269660473,-0.0824668109416962,-0.0131336031481624
0,0.319444452414435,0.12916666555545,0.95000000594378,-0.0479529201984406,-0.0452040284872055,-0.0390953756868839
0,0.318055560531181,0.12777778582816,0.941666654644256,-0.0601702257990837,-0.0372627787292004,-0.0394008085131645
0,0.325000019947452,0.133333341205212,0.933333400592447,-0.0320704244077206,-0.0311541277915239,-0.0445931628346443
0,0.327777779402031,0.12777778582816,0.933333400592447,0.000305432622553781,-0.0381790772080422,-0.0186313893646002
0,0.340277782039389,0.1194444466846,0.926388941176177,0.0452040284872055,-0.0146607663482428,0.0335975885391235
0,0.333333346935047,0.123611110178398,0.933333400592447,0.0723875313997269,-0.0250454749912024,0.0824668109416962
0,0.322222236180943,0.12916666555545,0.94305554652751,0.0531452745199203,-0.0161879286170006,0.0513126812875271
0,0.322222236180943,0.12916666555545,0.94305554652751,-0.00549778714776039,0.01191187184304,-0.011606439948082
0,0.318055560531181,0.12916666555545,0.955555573476797,-0.0351247526705265,0.00916297826915979,-0.0253509078174829
0,0.331944455051793,0.120833338567854,0.955555573476797,-0.0253509078174829,-0.029626963660121,0.0164933614432812
0,0.329166671285285,0.10972222781375,0.952777789710289,0.0180205255746841,-0.0470366254448891,0.0400116741657257
0,0.327777779402031,0.111111119697004,0.95000000594378,0.0256563406437635,-0.0595593601465225,0.0363464802503586
0,0.327777779402031,0.105555564319952,0.959722249126559,-0.00977384392172098,-0.0604756586253643,0.0210748501121998
0,0.327777779402031,0.112499999424294,0.947222222177272,-0.017409659922123,-0.0693332031369209,0.0244346093386412
0,0.330555563168539,0.118055554801345,0.93750007624221,-0.017409659922123,-0.0815505087375641,0.0229074470698834
0,0.330555563168539,0.118055554801345,0.93750007624221,-0.0552833043038845,-0.110261179506779,0.0045814891345799
0,0.323611128064198,0.113888891307548,0.944444438410764,-0.0717766657471657,-0.0913243517279625,-0.0534507073462009
0,0.323611128064198,0.113888891307548,0.944444438410764,-0.0497855171561241,-0.0775798857212067,-0.0467311926186085
0,0.344444457689151,0.120833338567854,0.930555616825939,-0.00946841109544039,-0.0797179117798805,0.00855211354792118
0,0.355555568443255,0.118055554801345,0.925000049292922,0.00794124789535999,-0.0653625801205635,0.0616973899304867
0,0.354166676560001,0.125000002061652,0.933333400592447,0.0027488935738802,-0.0247400421649218,0.0452040284872055
0,0.338888890156135,0.12777778582816,0.933333400592447,-0.0342084541916847,-0.0226020142436027,0.0140499006956816
0,0.334722238818301,0.125000002061652,0.933333400592447,-0.05283984541893,-0.0403171069920063,-0.00763581553474069
0,0.327777779402031,0.118055554801345,0.929166724942685,-0.0329867228865623,-0.0445931628346443,-0.0403171069920063
0,0.331944455051793,0.111111119697004,0.936111184358955,0.017409659922123,-0.0271835029125214,-0.0458148941397667
0,0.340277782039389,0.104166672436698,0.933333400592447,0.0244346093386412,-0.0357356183230877,0.00916297826915979
0,0.344444457689151,0.0986111170596459,0.933333400592447,0.0204639863222837,-0.01191187184304,0.0290160998702049
0,0.340277782039389,0.0986111170596459,0.933333400592447,0.0259617734700441,-0.0235183127224445,-0.0122173046693206
0,0.334722238818301,0.0958333393711199,0.93750007624221,0.00580321997404099,-0.02382374368608,-0.0271835029125214
0,0.341666673922643,0.0916666697993398,0.940277860008718,-0.0149661982432008,0.00580321997404099,-0.00183259579353034
0,0.350000000910239,0.0916666697993398,0.933333400592447,0.00397062394768,0.0033597587607801,0.0497855171561241
0,0.347222241455659,0.0944444474878658,0.927777833059431,0.0516181141138077,-0.0363464802503586,0.0546724386513233
0,0.338888890156135,0.111111119697004,0.929166724942685,0.0204639863222837,-0.0268780700862408,-0.00824668072164059
0,0.330555563168539,0.111111119697004,0.936111184358955,-0.0235183127224445,-0.00519235478714108,-0.0888808965682983
0,0.341666673922643,0.1194444466846,0.941666654644256,-0.0665843114256859,0.015577063895762,-0.0901026204228401
0,0.358333352209763,0.10972222781375,0.934722292475701,-0.0580321997404099,-0.000305432622553781,-0.0277943685650826
0,0.362500003547597,0.108333335930496,0.93750007624221,-0.0601702257990837,-0.00977384392172098,0.0167987942695618
0,0.358333352209763,0.111111119697004,0.941666654644256,-0.0794124826788902,-0.0204639863222837,0.0418442711234093
0,0.362500003547597,0.108333335930496,0.95000000594378,-0.0894917547702789,-0.0183259565383196,0.0714712366461754
0,0.363888895430851,0.116666675074056,0.951388897827035,-0.0687223374843597,-0.0207694191485643,0.11087204515934
0,0.361111135976272,0.116666675074056,0.938888968125464,-0.0494800843298435,-0.0861319974064827,0.101098194718361
0,0.359722244093018,0.111111119697004,0.940277860008718,-0.0430659987032413,-0.0842994004487991,0.107206851243973
0,0.361111135976272,0.105555564319952,0.948611114060526,-0.136222943663597,-0.130419731140137,0.102014496922493
0,0.361111135976272,0.111111119697004,0.956944465360051,-0.173791155219078,-0.135306656360626,0.0992656052112579
0,0.368055571080613,0.104166672436698,0.947222222177272,-0.163101017475128,-0.183870434761047,0.101403631269932
0,0.379166681834717,0.0944444474878658,0.933333400592447,-0.128587126731873,-0.23304508626461,0.135001212358475
0,0.377777789951463,0.0847222225390337,0.899999995394348,-0.00122173049021512,-0.357967019081116,0.155159771442413
0,0.379166681834717,0.0888888921108138,0.888888957576031,0.203112691640854,-0.374765813350677,0.159435823559761
0,0.377777789951463,0.0847222225390337,0.884722281926269,0.386677712202072,-0.425162196159363,0.128587126731873
0,0.380555573717971,0.0902777839940679,0.890277849459286,0.42852196097374,-0.388204872608185,0.10567969083786
0,0.390277792588821,0.0916666697993398,0.894444525109048,0.359188765287399,-0.352163821458816,0.136528387665749
0,0.416666689746791,0.0916666697993398,0.904166671044111,0.237015709280968,-0.22693644464016,0.205861583352089
0,0.420833365396554,0.0944444474878658,0.906944454810619,0.137139245867729,-0.0858265683054924,0.242208063602448
0,0.412500014097029,0.105555564319952,0.904166671044111,0.0717766657471657,-0.0360410511493683,0.228158175945282
0,0.400000011459671,0.111111119697004,0.911111130460381,0.0778853222727776,-0.0305432621389627,0.195476874709129
0,0.400000011459671,0.105555564319952,0.911111130460381,0.108428582549095,-0.0427605658769607,0.151189148426056
0,0.405555578992687,0.102777780553444,0.923611157409668,0.132863193750381,-0.0629191175103188,0.11606439948082
0,0.405555578992687,0.0958333393711199,0.92083337364316,0.0971275717020035,-0.0482583530247212,0.107206851243973
0,0.409722230330521,0.0888888921108138,0.916666697993398,0.0592539273202419,0.0418442711234093,0.113926365971565
0,0.411111122213775,0.0875000002275597,0.92083337364316,-0.0345138870179653,-0.0152716310694814,0.107512280344963
0,0.406944470875941,0.0888888921108138,0.918055589876652,-0.0345138870179653,-0.0323758572340012,0.0708603709936142
0,0.402777795226179,0.0916666697993398,0.918055589876652,-0.0164933614432812,0.01191187184304,0.0198531206697226
0,0.404166687109433,0.0986111170596459,0.923611157409668,-0.126143679022789,0.0595593601465225,-0.0192422550171614
0,0.416666689746791,0.104166672436698,0.941666654644256,-0.309403240680695,0.114842668175697,0.00763581553474069
0,0.433333343721983,0.113888891307548,0.955555573476797,-0.569020986557007,0.186313897371292,0.0797179117798805
0,0.431944451838729,0.0986111170596459,0.954166681593543,-0.700357019901276,0.209832206368446,0.108734011650086
0,0.4194444735133,0.0819444448505077,0.927777833059431,-0.565661191940308,0.226325571537018,0.0626136884093285
0,0.400000011459671,0.0680555564078778,0.909722238577127,-0.335365027189255,0.142331600189209,0.0271835029125214
0,0.390277792588821,0.0458333348996699,0.913888914226889,-0.119118720293045,0.103847093880177,-0.000916297896765172
0,0.387500008822313,0.0416666683668809,0.92083337364316,-0.0668897479772568,0.0507018156349659,-0.0256563406437635
0,0.394444468238583,0.0500000014324589,0.930555616825939,-0.0995710343122482,0.0360410511493683,-0.0277943685650826
0,0.394444468238583,0.0513888902767219,0.933333400592447,-0.158824965357781,0.108428582549095,-0.00641408516094089
0,0.387500008822313,0.0388888906783549,0.926388941176177,-0.205861583352089,0.149661988019943,0.021685715764761
0,0.377777789951463,0.0222222230277034,0.919444481759906,-0.246484130620956,0.180510684847832,0.0143553335219622
0,0.358333352209763,0.0236111118719664,0.929166724942685,-0.280998021364212,0.128892570734024,-0.00885754637420177
0,0.354166676560001,0.026388891079988,0.909722238577127,-0.273973047733307,0.0323758572340012,-0.0537561401724815
0,0.361111135976272,0.00972222266958873,0.913888914226889,-0.22235494852066,-0.0384845100343227,-0.11087204515934
0,0.363888895430851,0.00972222266958873,0.916666697993398,-0.135917514562607,0.0632245540618896,-0.12675453722477
0,0.368055571080613,0.00972222266958873,0.911111130460381,-0.137750118970871,0.02382374368608,-0.136222943663597
0,0.380555573717971,0.00555555575692586,0.906944454810619,-0.129503428936005,0.0113010071218014,-0.139888137578964
0,0.384722225055805,0.00138888893923146,0.909722238577127,-0.0305432621389627,0.0616973899304867,-0.0901026204228401
0,0.386111116939059,0.0111111115138517,0.913888914226889,0.08460483700037,0.0027488935738802,-0.0461203269660473
0,0.377777789951463,0.0152777788063885,0.919444481759906,0.128281697630882,-0.0708603709936142,-0.0439822971820831
0,0.388888900705567,0.0388888906783549,0.940277860008718,0.143553331494331,-0.124921940267086,-0.115758962929249
0,0.387500008822313,0.0375000018340919,0.915277806110144,0.204334422945976,-0.347276896238327,-0.117591559886932
0,0.418055581630046,0.0250000007162294,0.901388887277602,0.359188765287399,-0.520151734352112,-0.0189368221908808
0,0.434722235605237,0.0152777788063885,0.901388887277602,0.573907911777496,-0.423940479755402,0.0797179117798805
0,0.436111127488491,0.0152777788063885,0.925000049292922,0.72418075799942,-0.218078896403313,-0.0280998013913631
0,0.381944465601225,0.0652777787193518,0.909722238577127,0.712268888950348,-0.22174409031868,-0.0620028227567673
0,0.372222246730376,0.104166672436698,0.890277849459286,0.458759784698486,-0.435241490602493,-0.155465200543404
0,0.387500008822313,0.0986111170596459,0.887500065692777,0.189979091286659,-0.562606871128082,-0.278859972953796
0,0.416666689746791,0.0888888921108138,0.894444525109048,0.0222965814173222,-0.386677712202072,-0.283136039972305
0,0.456944457113445,0.10972222781375,0.906944454810619,-0.0977384373545647,0.0442877300083637,-0.208915919065475
0,0.49444444071359,0.0791666671619817,0.886111173809523,-0.230907067656517,0.359188765287399,-0.0171042270958424
0,0.49444444071359,0.0638888929140799,0.863888903677457,-0.164933621883392,0.574213325977325,0.2165517359972
0,0.462500024646461,0.0625000010308258,0.884722281926269,0.0290160998702049,0.584292590618134,0.270613312721252
0,0.462500024646461,0.0625000010308258,0.884722281926269,0.0262672062963247,0.468533635139465,0.203418120741844
0,0.356944460326509,0.0361111129898289,0.899999995394348,-0.104457959532738,0.607810914516449,0.199752941727638
0,0.358333352209763,0.0152777788063885,0.898611103511094,-0.149051114916802,0.926682591438293,0.271224170923233
0,0.350000000910239,0.0416666683668809,0.906944454810619,-0.11606439948082,1.34665238857269,0.276111096143722
0,0.308333341660331,0.0916666697993398,0.873611146860236,-0.200058370828629,1.62581789493561,0.241902634501457
0,0.298611122789481,0.105555564319952,0.93750007624221,-0.133168622851372,1.18966007232666,0.148134827613831
0,0.262500006760661,0.0777777813567098,0.969444492309338,-0.00610865233466029,0.731511116027832,0.130114302039146
0,0.262500006760661,0.0777777813567098,0.969444492309338,0.00427605677396059,0.586125195026398,0.142942473292351
0,0.281944444502361,0.0569444456537738,1.00972225967599,0.00763581553474069,0.596204459667206,0.122173048555851
0,0.295833339022973,0.0875000002275597,1.02916674604155,0.0152716310694814,0.625831425189972,0.0232128798961639
0,0.295833339022973,0.0875000002275597,1.02916674604155,0.0574213340878487,0.401033043861389,-0.0574213340878487
0,0.280555576931036,0.0916666697993398,1.0333333244436,0.0699440687894821,-0.0335975885391235,-0.109039448201656
0,0.269444466176932,0.0861111144222878,1.02083339474202,0.10048733651638,-0.353385537862778,-0.184481307864189
0,0.269444466176932,0.0861111144222878,1.02083339474202,0.096211276948452,-0.479223787784576,-0.24862214922905
0,0.262500006760661,0.108333335930496,0.990277773310434,0.0934623852372169,-0.610254406929016,-0.297185927629471
0,0.202777789496344,0.052777782159976,1.00277780025972,0.108123145997524,-0.611781537532806,-0.303905457258224
0,0.202777789496344,0.052777782159976,1.00277780025972,0.021685715764761,-0.145385921001434,-0.379347324371338
0,0.312500017310094,0.104166672436698,1.02222228662528,0.153632611036301,-0.133168622851372,-0.361021369695664
0,0.247222220356795,0.104166672436698,0.987499989543926,0.102014496922493,-0.282525181770325,-0.289855569601059
0,0.247222220356795,0.104166672436698,0.987499989543926,0.101403631269932,-0.478918343782425,-0.200058370828629
0,0.254166679773066,0.0875000002275597,1.00000001649321,0.139888137578964,-0.570242702960968,-0.176845490932465
0,0.304166666010569,0.0972222251763917,0.962500032893068,0.113620936870575,-0.432492583990097,-0.217162594199181
0,0.333333346935047,0.104166672436698,0.970833384192592,-0.0210748501121998,-0.400727599859238,-0.245567828416824
0,0.322222236180943,0.0986111170596459,0.934722292475701,-0.139888137578964,-0.536645114421844,-0.255952537059784
0,0.333333346935047,0.0777777813567098,0.904166671044111,-0.248011291027069,-0.605672895908356,-0.291993588209152
0,0.365277787314105,0.0361111129898289,0.873611146860236,-0.168293371796608,-0.592233836650848,-0.212886542081833
0,0.354166676560001,0.0416666683668809,0.89166674134254,-0.148745685815811,-0.584292590618134,-0.180816113948822
0,0.348611133338914,0.0513888902767219,0.894444525109048,-0.151800006628036,-0.467311918735504,-0.145996794104576
0,0.348611133338914,0.0486111125881959,0.911111130460381,-0.135612085461616,-0.314595609903336,-0.11606439948082
0,0.358333352209763,0.0625000010308258,0.888888957576031,-0.141109868884087,-0.124311074614525,-0.0998764708638191
0,0.375000006184955,0.0430555572111439,0.913888914226889,-0.0708603709936142,-0.078801617026329,-0.058643065392971
0,0.345833349572405,0.0152777788063885,0.923611157409668,-0.00824668072164059,-0.0925460830330849,-0.0855211317539215
0,0.380555573717971,0.0583333375370279,0.913888914226889,0.0772744566202164,-0.0177150927484035,-0.0858265683054924
0,0.384722225055805,0.0611111152255539,0.927777833059431,0.0800233483314514,0.0604756586253643,-0.0968221426010132
0,0.387500008822313,0.0625000010308258,0.938888968125464,0.0800233483314514,-0.0106901414692402,-0.0855211317539215
0,0.391666684472075,0.0680555564078778,0.944444438410764,0.0925460830330849,-0.141109868884087,-0.0675006061792374
0,0.386111116939059,0.0916666697993398,0.940277860008718,0.109955742955208,-0.197309479117393,-0.0668897479772568
0,0.393055576355329,0.0986111170596459,0.941666654644256,0.08460483700037,-0.207694187760353,-0.0745255574584007
0,0.406944470875941,0.0944444474878658,0.936111184358955,-0.00580321997404099,-0.415999233722687,-0.0555887371301651
0,0.413888905980283,0.0791666671619817,0.973611167959101,-0.153021737933159,-0.7305948138237,0.0229074470698834
0,0.427777776188966,0.0833333367337618,0.986111194908388,-0.205556154251099,-0.79351395368576,0.0668897479772568
0,0.42916666807222,0.0875000002275597,0.977777843608863,-0.265115529298782,-0.60903263092041,0.0464257597923279
0,0.447222262554524,0.0875000002275597,0.926388941176177,-0.234266817569733,-0.356745302677154,0.0131336031481624
0,0.472222219205382,0.0847222225390337,0.886111173809523,-0.184481307864189,-0.167377084493637,0.0149661982432008
0,0.466666700296224,0.0750000036681839,0.858333336144441,-0.12156218290329,-0.0827722400426865,0.0265726372599602
0,0.454166673346937,0.0638888929140799,0.854166660494678,-0.0323758572340012,-0.0910189226269722,0.0329867228865623
0,0.447222262554524,0.0472222237439329,0.847222298326124,0.0348193198442459,-0.0406225398182869,0.0372627787292004
0,0.437500019371745,0.0472222237439329,0.854166660494678,0.0971275717020035,-0.00763581553474069,0.0314595587551594
0,0.444444478788016,0.0611111152255539,0.876388930626744,0.116980694234371,0.078801617026329,0.0287106670439243
0,0.443055586904762,0.0763888894734557,0.887500065692777,0.120645888149738,0.215940862894058,0.0247400421649218
0,0.437500019371745,0.0847222225390337,0.86805557932722,0.106901414692402,0.329256355762482,-0.00885754637420177
0,0.430555559955475,0.0944444474878658,0.863888903677457,0.124616511166096,0.611476123332977,-0.0723875313997269
0,0.413888905980283,0.100000002864918,0.838888947026599,0.108123145997524,0.878118813037872,-0.0952949747443199
0,0.402777795226179,0.0680555564078778,0.82916670384382,0.135612085461616,1.28098440170288,-0.15851953625679
0,0.370833354847121,0.052777782159976,0.837500055143345,0.206472456455231,1.60260498523712,-0.199752941727638
0,0.334722238818301,0.0805555590452358,0.866666687443965,0.162490159273148,1.63131558895111,-0.193033412098885
0,0.298611122789481,0.111111119697004,0.901388887277602,0.170125976204872,1.34023833274841,-0.172874867916107
0,0.270833333748257,0.12777778582816,0.926388941176177,0.153938040137291,0.913548946380615,-0.145996794104576
0,0.269444466176932,0.111111119697004,0.952777789710289,0.159130394458771,0.489303052425385,-0.0891863256692886
0,0.286111120152123,0.0916666697993398,0.970833384192592,0.152410879731178,0.290160983800888,-0.0806342139840126
0,0.286111120152123,0.0847222225390337,1.02916674604155,0.0894917547702789,0.112399205565453,-0.0103847095742822
0,0.270833333748257,0.112499999424294,1.07222229717471,0.00794124789535999,-0.0772744566202164,0.0595593601465225
0,0.277777793164528,0.131944449321958,1.0902777944093,-0.102014496922493,-0.204639852046967,0.110261179506779
0,0.283333336385615,0.120833338567854,1.06805562152495,-0.119424156844616,-0.296269655227661,0.130419731140137
0,0.302777798439244,0.0888888921108138,1.00972225967599,-0.112704634666443,-0.419358998537064,0.142942473292351
0,0.315277801076602,0.0833333367337618,0.986111194908388,-0.0262672062963247,-0.595593631267548,0.141720741987228
0,0.330555563168539,0.0972222251763917,0.968055600426084,0.0833831056952477,-0.669202864170074,0.149051114916802
0,0.322222236180943,0.126388893944906,0.959722249126559,0.131336033344269,-0.607200026512146,0.246484130620956
0,0.340277782039389,0.140277788465518,0.947222222177272,0.00244346098043024,-0.762665271759033,0.272445887327194
0,0.329166671285285,0.101388894748172,0.948611114060526,-0.123089343309402,-0.659734487533569,0.153632611036301
0,0.348611133338914,0.0847222225390337,0.925000049292922,-0.161268427968025,-0.508850753307343,0.0565050356090069
0,0.348611133338914,0.0847222225390337,0.925000049292922,-0.141720741987228,-0.506712734699249,0.0421497002243996
0,0.406944470875941,0.0722222259796579,0.894444525109048,-0.11117747426033,-0.493884563446045,0.0824668109416962
0,0.406944470875941,0.0722222259796579,0.894444525109048,-0.0696386396884918,-0.365908294916153,0.0607810914516449
0,0.395833335809908,0.0166666676506515,0.861111119910949,-0.0180205255746841,-0.21685716509819,0.0100792767480016
0,0.409722230330521,0.00972222266958873,0.858333336144441,0.0626136884093285,-0.0436768643558025,-0.0351247526705265
0,0.42916666807222,0.00972222266958873,0.841666730793107,0.16920967400074,0.0778853222727776,-0.0513126812875271
0,0.42916666807222,0.00972222266958873,0.841666730793107,0.250454753637314,-0.00580321997404099,-0.0485637858510017
0,0.408333338447267,0.0222222230277034,0.804166698569104,0.248927593231201,-0.139888137578964,-0.0980438739061356
0,0.330555563168539,0.027777779924251,0.75000001236991,-0.000305432622553781,0.0940732508897781,-0.167987942695618
0,0.330555563168539,0.027777779924251,0.75000001236991,-0.391564607620239,0.317649930715561,-0.146913096308708
0,0.406944470875941,0.0708333340964038,0.625000034620187,-0.916908740997314,1.01831233501434,-0.284052342176437
0,0.331944455051793,0.00277777787846293,0.754166688019672,-1.69331848621368,-1.44347453117371,-0.0485637858510017
0,0.265277790527169,-0.0152777788063885,0.904166671044111,-1.48776233196259,-0.770606517791748,0.31154128909111
0,0.265277790527169,-0.0152777788063885,0.904166671044111,-1.22661745548248,0.156076073646545,0.437379509210587
0,0.327777779402031,0.026388891079988,0.961111141009813,-1.0656543970108,0.254730820655823,0.4758640229702
0,0.400000011459671,0.0152777788063885,1.06527783775844,-0.709825396537781,-0.178678080439568,0.331088960170746
0,0.400000011459671,0.0152777788063885,1.06527783775844,-0.0849102661013603,-0.303905457258224,0.165849909186363
0,0.477777786738398,-0.0763888894734557,1.14583337249175,0.531758189201355,-0.0983493030071259,-0.0610865242779255
0,0.522222229754814,-0.0805555590452358,1.09166668629255,1.01709067821503,0.0247400421649218,-0.320704251527786
0,0.551388910679293,-0.0902777839940679,0.983333411141879,0.868039488792419,0.021685715764761,-0.722348153591156
0,0.551388910679293,-0.0902777839940679,0.983333411141879,0.941037893295288,-1.3167200088501,-0.627969443798065
0,0.394444468238583,-0.00694444498106275,0.906944454810619,0.526260435581207,-1.84756195545197,-0.387593984603882
0,0.54027777561326,0.03194444645704,0.95000000594378,0.84085601568222,-2.42269158363342,-0.438295811414719
0,0.541666667496514,0.193055558469529,1.13611112930897,0.0372627787292004,-1.70675754547119,-0.382096201181412
0,0.656944450687316,0.10972222781375,0.672222261403111,-0.750753402709961,-0.940121591091156,-0.958447575569153
0,0.668055585753349,0.0180555564949145,0.784722260827405,-0.38576140999794,-1.31061136722565,-1.31977438926697
0,0.613888899554154,0.0763888894734557,0.858333336144441,0.125838235020638,-1.189049243927,-0.906829476356506
0,0.686111131611794,0.141666668192807,0.773611125761372,0.28008171916008,-0.348498612642288,0.226020142436027
0,0.752777796136418,0.0638888929140799,0.738888925927735,0.186008468270302,-0.224798411130905,0.816115975379944
0,0.759722255552688,0.0708333340964038,0.695833374794573,-0.39675697684288,-1.80419051647186,0.737314343452454
0,0.826388920077312,0.0694444482911319,0.683333347845286,-0.797789990901947,-3.24064016342163,0.0934623852372169
0,0.834722271376837,0.0652777787193518,0.694444482911319,-0.868344962596893,-3.63159394264221,-0.453262001276016
0,0.806944482335612,-0.0486111125881959,0.712500028769764,-0.557414531707764,-3.30600261688232,-0.93554013967514
0,0.805555590452358,-0.0722222259796579,0.725000007095193,-0.34880405664444,-3.0469958782196,-1.25716066360474
0,0.877777822509998,-0.0680555564078778,0.705555569353494,-0.386066824197769,-3.54026961326599,-1.24921941757202
0,0.980555627375371,-0.0861111144222878,0.663888910103586,-0.694553792476654,-4.41136360168457,-0.917214155197144
0,0.959722249126559,-0.0708333340964038,0.584722267253534,-1.31885802745819,-4.96541833877563,-0.630412936210632
0,0.918055589876652,-0.122222230451108,0.572222240304247,-1.95690679550171,-4.69816446304321,-0.653320372104645
0,0.936111184358955,-0.101388894748172,0.531944472937593,-2.41719388961792,-3.62884497642517,-0.365602850914002
0,0.866666687443965,-0.113888891307548,0.386111116939059,-2.60442399978638,-3.57753229141235,0.215024560689926
0,1.04861113515939,-0.0444444460554069,0.254166679773066,-2.18292689323425,-3.37044906616211,0.283746898174286
0,1.00138890837647,-0.0152777788063885,0.17361112072783,-1.40743350982666,-3.30691909790039,0.717155814170837
0,1.06527783775844,-0.0347222241455659,0.0902777839940679,-0.737925231456757,-3.60990810394287,0.42271876335144
0,1.03194452980806,-0.0347222241455659,0.0777777813567098,-0.671035468578339,-3.44008755683899,0.119729585945606
0,1.0125000434425,0.0208333341834404,0.10972222781375,-0.399200439453125,-1.33687853813171,-0.198225766420364
0,0.981944519258625,0.0402777795226179,0.0458333348996699,-0.0455094613134861,0.266948103904724,-0.448680520057678
0,0.947222222177272,-0.00833333382532574,-0.0361111129898289,0.165239050984383,0.463035851716995,-0.372322380542755
0,0.893055633225794,-0.033333335301303,-0.0694444482911319,0.0189368221908808,0.181121543049812,-0.0448985956609249
0,0.908333346693873,0.0152777788063885,-0.0819444448505077,-0.30695977807045,-1.32313406467438,-0.127976268529892
0,1.04166667574312,0.0402777795226179,-0.0944444474878658,-0.643241107463837,-2.7791314125061,-0.530231058597565
0,1.1083333888916,0.0194444453391775,-0.0180555564949145,-1.40315747261047,-1.38605320453644,0.339946508407593
0,1.02083339474202,0.0361111129898289,-0.156944454596674,-0.990212559700012,-1.01281452178955,0.781296670436859
0,0.927777833059431,0.0444444460554069,-0.190277786858986,-0.736092627048492,-0.510683357715607,0.987158238887787
0,0.879166714393253,0.0388888906783549,-0.170833336961321,-0.586430609226227,-0.211053937673569,1.21959245204925
0,1.10000003759208,0.0819444448505077,-0.120833338567854,-1.22264683246613,-1.03114056587219,0.160962998867035
0,0.975000059842355,-0.029166668768514,-0.166666673467524,-1.48715138435364,-2.13283610343933,0.0907134860754013
0,0.82916670384382,0.030555557612777,-0.202777789496344,-1.21837067604065,-1.55495750904083,-0.0314595587551594
0,0.645833364245141,0.14583334384257,-0.287500012035377,-1.13040614128113,-1.07176303863525,-0.746782779693604
0,0.630555602153203,0.259722222994153,-0.258333331110899,-0.944397687911987,0.120035022497177,-1.5357152223587
0,1.30833333384161,0.0597222233422998,-0.497222224480098,0.0265726372599602,0.768468499183655,0.510072469711304
0,0.944444438410764,0.24583335278547,-0.397222227693163,0.927904307842255,1.75135064125061,1.89856922626495
0,1.16805564262381,0.336111130701556,-0.298611122789481,0.513432264328003,1.44316911697388,1.84634017944336
0,1.13472223742571,0.224999998848587,-0.187500003092477,-0.197004035115242,0.225103840231896,1.50547742843628
0,1.00833336779274,-0.00277777787846293,-0.148611115453114,0.224798411130905,0.787710726261139,1.26571273803711
0,0.951388897827035,-0.14722222356986,-0.120833338567854,0.183870434761047,0.133779495954514,1.35062301158905
0,1.05694448645892,-0.0944444474878658,-0.202777789496344,-0.0665843114256859,-0.698524415493011,1.35642623901367
0,1.09305557817581,-0.0430555572111439,-0.229166674498349,-0.394618958234787,-0.699746131896973,1.07909345626831
0,1.09305557817581,-0.0430555572111439,-0.229166674498349,0.02382374368608,-0.109344877302647,0.403171062469482
0,1.15833339944103,-0.0916666697993398,-0.316666668647927,0.307265222072601,-0.013744467869401,-0.0329867228865623
0,0.973611167959101,-0.233333350148112,-0.259722222994153,0.23273965716362,0.0320704244077206,0.18509216606617
0,0.994444448960196,-0.130555557438704,-0.230555566381603,0.081855945289135,-0.336586743593216,0.446847915649414
0,0.994444448960196,-0.130555557438704,-0.230555566381603,0.0717766657471657,-0.0400116741657257,-0.122478485107422
0,1.06527783775844,-0.154166670830166,-0.309722233543585,0.120340451598167,0.435241490602493,-1.48990035057068
0,0.997222232726705,-0.444444478788016,-0.194444450352783,0.188757359981537,0.629191219806671,-1.1734721660614
0,0.969444492309338,-0.426388884305712,-0.197222234119292,0.133779495954514,0.0574213340878487,-0.617279350757599
0,0.969444492309338,-0.426388884305712,-0.197222234119292,-0.148134827613831,-0.386983126401901,-0.139582708477974
0,0.959722249126559,-0.166666673467524,-0.238888893369199,-0.011606439948082,-0.24312436580658,-0.307876080274582
0,0.962500032893068,-0.166666673467524,-0.250000004123303,-0.0262672062963247,-0.215635433793068,-0.453567445278168
0,0.929166724942685,-0.0972222251763917,-0.258333331110899,-0.124311074614525,-0.0113010071218014,-0.442877292633057
0,0.934722292475701,-0.0625000010308258,-0.247222220356795,-0.583070874214172,-0.514653980731964,-0.602923989295959
0,0.847222298326124,-0.0791666671619817,-0.180555567988136,-1.45752441883087,-1.02869701385498,-1.04763388633728
0,0.809722266102121,-0.0944444474878658,-0.33750002258481,0.0678060427308083,0.186313897371292,-1.13559854030609
0,1.15416672379127,-0.0458333348996699,-0.398611119576417,-0.232128798961639,0.549473285675049,-0.641408503055573
0,1.18333335609189,-0.0513888902767219,-0.395833335809908,-0.0781907513737679,0.613003253936768,-0.709214568138123
0,1.10138892947533,-0.033333335301303,-0.327777779402031,-0.110566608607769,0.649349749088287,-0.52228981256485
0,1.03472221632685,-0.00277777787846293,-0.298611122789481,0.0784961804747581,1.03144598007202,-0.0827722400426865
0,0.993055557076942,0.0611111152255539,-0.270833333748257,-0.087659165263176,1.02991878986359,0.211970239877701
0,0.916666697993398,0.055555559848502,-0.233333350148112,0.0299323964864016,1.13071155548096,0.66737025976181
0,0.959722249126559,-0.154166670830166,-0.113888891307548,0.129503428936005,0.518319189548492,0.647211730480194
0,1.04166667574312,0.0208333341834404,-0.100000002864918,0.130114302039146,-0.409585148096085,0.535728812217712
0,1.05277781080915,-0.030555557612777,-0.101388894748172,0.16920967400074,-0.772744536399841,0.497549742460251
0,1.00277780025972,-0.0486111125881959,-0.218055563744246,0.146302223205566,-0.702800452709198,0.509767055511475
0,1.12499999424293,-0.0569444456537738,-0.288888903918631,0.0910189226269722,-0.240680903196335,0.145080491900444
0,1.07916665934326,-0.0347222241455659,-0.344444457689151,-0.142942473292351,0.324980318546295,0.0332921557128429
0,1.07916665934326,-0.0347222241455659,-0.344444457689151,-0.198531210422516,1.05557513236999,-0.105068825185299
0,1.04305556762637,-0.0416666683668809,-0.298611122789481,-0.270918726921081,1.52410876750946,-0.0659734457731247
0,0.99583334084345,-0.120833338567854,-0.426388884305712,-0.678060412406921,3.13251686096191,-0.160352125763893
0,0.99583334084345,-0.120833338567854,-0.426388884305712,-0.359494209289551,3.87410736083984,-0.346360594034195
0,0.798611131036088,-0.168055565350778,0.0166666676506515,0.0357356183230877,2.71499061584473,-0.935234665870667
0,1.23888893417434,0.0680555564078778,0.418055581630046,-0.0916297882795334,-0.681114733219147,0.017409659922123
0,1.0333333244436,-0.0125000003581147,0.211111128639904,0.108428582549095,-1.43095183372498,-0.177150920033455
0,1.01388893532575,-0.0361111129898289,-0.0180555564949145,0.0418442711234093,-0.921795666217804,-0.22754730284214
0,1.06250005399193,-0.00833333382532574,-0.120833338567854,0.124921940267086,0.809091031551361,-0.175623759627342
0,1.00416669214298,-0.0208333341834404,-0.368055571080613,-0.0284052342176437,1.46149504184723,-0.112704634666443
0,1.02916674604155,0.0208333341834404,0.101388894748172,0.135917514562607,0.584598064422607,-0.0167987942695618
0,0.99583334084345,0.00972222266958873,0.0583333375370279,-0.157603234052658,0.859487414360046,-0.0510072484612465
0,1.04166667574312,-0.0125000003581147,0.0902777839940679,0.0763581544160843,0.260534018278122,-0.0549778714776039
0,1.01944450285877,-0.00277777787846293,0.0680555564078778,-0.0226020142436027,0.150578290224075,-0.0940732508897781
0,1.02361117850853,0.00555555575692586,0.0666666706026059,-0.0171042270958424,-0.122783914208412,-0.220216915011406
0,0.979166735492117,-0.0125000003581147,0.0875000002275597,-0.0128281703218818,-0.325285732746124,-0.385455965995789
0,1.06805562152495,0.03194444645704,0.0375000018340919,-0.100792765617371,-0.175623759627342,-0.076052725315094
0,1.06805562152495,0.0236111118719664,0.027777779924251,-0.0946841165423393,-0.0681114718317986,-0.0439822971820831
0,1.01944450285877,0.0250000007162294,0.0847222225390337,0.0345138870179653,-0.211053937673569,-0.1750128865242
0,1.01944450285877,0.0250000007162294,0.0847222225390337,0.0366519130766392,-0.172569438815117,-0.110566608607769
0,1.05416670269241,0.0402777795226179,0.0194444453391775,0.0839939713478088,0.00824668072164059,0.0436768643558025
0,1.04027778385987,-0.00277777787846293,0.0166666676506515,0.101098194718361,0.0360410511493683,0.0665843114256859
0,1.03194452980806,0.0125000003581147,0.0194444453391775,0.0442877300083637,0.0757472887635231,0.0610865242779255
0,1.02777785415829,0.0375000018340919,-0.00972222266958873,-0.0113010071218014,0.0922406539320946,0.0574213340878487
0,1.02916674604155,0.00416666691266287,0.00138888893923146,-0.218995183706284,0.276721954345703,-0.0665843114256859
0,1.02916674604155,0.00416666691266287,0.00138888893923146,-0.148134827613831,0.177150920033455,-0.149661988019943
0,0.993055557076942,0.0138888899621255,0.0361111129898289,-0.0384845100343227,0.0290160998702049,-0.152410879731178
0,0.993055557076942,0.0138888899621255,0.0361111129898289,-0.0314595587551594,-0.180510684847832,-0.189368233084679
0,0.993055557076942,0.0138888899621255,0.0361111129898289,-0.0204639863222837,-0.281303435564041,-0.215330004692078
0,1.00972225967599,0.0583333375370279,0.0819444448505077,0.129808858036995,-0.444404453039169,0.00824668072164059
0,1.00972225967599,0.0583333375370279,0.0819444448505077,0.0733038261532784,-0.529620170593262,0.127365410327911
0,0.906944454810619,0.029166668768514,0.00277777787846293,-0.00855211354792118,-0.413250327110291,0.224798411130905
0,1.06666672964169,-0.00277777787846293,-0.030555557612777,-0.0406225398182869,-0.104457959532738,0.17470745742321
0,1.02916674604155,-0.00833333382532574,-0.00694444498106275,-0.0534507073462009,-0.0684169083833694,0.166766211390495
0,1.02916674604155,-0.00833333382532574,-0.00694444498106275,-0.0543670058250427,-0.0842994004487991,0.149661988019943
0,1.0513889189259,0.0180555564949145,0.00138888893923146,0.145691365003586,0.148440256714821,0.0833831056952477
0,1.02916674604155,0.00833333382532574,0.033333335301303,0.0513126812875271,-0.108734011650086,0.0849102661013603
0,1.01944450285877,0.0166666676506515,-0.0208333341834404,-0.0122173046693206,-0.0952949747443199,0.113010071218014
0,1.01944450285877,0.0166666676506515,-0.0208333341834404,-0.0439822971820831,0.00733038317412138,0.143858760595322
0,1.04027778385987,-0.00138888893923146,-0.00416666691266287,-0.0177150927484035,0.0943786799907684,0.143247902393341
0,1.01527782720901,-0.00972222266958873,0.0222222230277034,0.10048733651638,0.1795943826437,0.102625362575054
0,1.01527782720901,-0.00972222266958873,0.0222222230277034,0.177456349134445,-0.151494577527046,0.288633823394775
0,1.05694448645892,-0.00972222266958873,-0.0152777788063885,0.152716308832169,-0.128892570734024,0.147829383611679
0,1.05000002704265,0.00555555575692586,-0.00972222266958873,0.0412334054708481,-0.143858760595322,0.163101017475128
0,1.05555559457566,-0.00972222266958873,-0.030555557612777,-0.0436768643558025,-0.187841057777405,0.0616973899304867
0,1.05555559457566,-0.00972222266958873,-0.030555557612777,-0.139888137578964,-0.0308486949652433,0.128587126731873
0,1.02083339474202,-0.0611111152255539,-0.0777777813567098,-0.0907134860754013,0.10567969083786,0.440128415822983
0,0.951388897827035,-0.03194444645704,-0.0152777788063885,0.108734011650086,0.235183119773865,0.470366239547729
0,0.951388897827035,-0.03194444645704,-0.0152777788063885,0.0406225398182869,0.134084925055504,0.645684540271759
0,1.03194452980806,-0.0388888906783549,0.00416666691266287,0.0824668109416962,0.177150920033455,0.524733245372772
0,1.04444445950963,-0.0486111125881959,-0.00555555575692586,0.0470366254448891,0.210748508572578,0.490524798631668
0,1.0333333244436,-0.0444444460554069,-0.033333335301303,0.000610865245107561,0.142637029290199,0.44348818063736
0,0.983333411141879,-0.0680555564078778,0.0222222230277034,0.0488692186772823,0.0241291765123606,0.326812893152237
0,0.983333411141879,-0.0680555564078778,0.0222222230277034,0.0507018156349659,-0.0152716310694814,0.323453158140182
0,0.983333411141879,-0.0680555564078778,0.0222222230277034,0.0543670058250427,-0.0140499006956816,0.348193198442459
0,0.848611190209378,-0.0736111117849297,0.0125000003581147,0.0381790772080422,-0.21135938167572,0.720820963382721
0,0.812500049868629,-0.0916666697993398,0.0847222225390337,0.127670839428902,-0.552222192287445,1.08825647830963
0,0.866666687443965,-0.0833333367337618,0.0722222259796579,0.118507854640484,-0.567799270153046,0.799011766910553
0,1.19722227492443,-0.151388899219622,-0.0902777839940679,-0.0540615729987621,-0.0888808965682983,0.473726004362106
0,1.19722227492443,-0.151388899219622,-0.0902777839940679,-0.0497855171561241,-0.000916297896765172,0.273056775331497
0,1.22777779910831,-0.2194444556275,-0.0875000002275597,0.00885754637420177,0.383928805589676,-0.0146607663482428
0,1.09861114570882,-0.177777784221628,-0.00833333382532574,-0.00977384392172098,0.338724792003632,-0.136222943663597
0,1.01805561097552,-0.163888889701015,0.0125000003581147,0.0329867228865623,0.256563395261765,-0.239459171891212
0,1.01805561097552,-0.163888889701015,0.0125000003581147,0.0922406539320946,0.11117747426033,-0.146913096308708
0,1.05972227022542,-0.12777778582816,0.0125000003581147,0.013744467869401,0.192727982997894,-0.100792765617371
0,1.04027778385987,-0.138888896582264,0.00972222266958873,-0.0699440687894821,0.173791155219078,-0.152716308832169
0,1.04027778385987,-0.138888896582264,0.00972222266958873,-0.0794124826788902,0.0580321997404099,-0.130114302039146
0,1.04027778385987,-0.138888896582264,0.00972222266958873,-0.167377084493637,0.0729983970522881,-0.203112691640854
0,0.990277773310434,-0.144444451959316,0.00416666691266287,-0.00427605677396059,0.249233022332191,-0.0977384373545647
0,0.990277773310434,-0.144444451959316,0.00416666691266287,-0.00427605677396059,0.249233022332191,-0.0977384373545647
0,1.03194452980806,-0.118055554801345,0.0388888906783549,-0.015577063895762,0.0354301854968071,-0.05283984541893
0,1.0513889189259,-0.1194444466846,0.0416666683668809,-0.0464257597923279,0.0729983970522881,-0.0705549344420433
0,1.00972225967599,-0.123611110178398,0.0458333348996699,-0.113315500319004,0.0616973899304867,-0.0415388382971287
0,1.02500007039179,-0.140277788465518,0.029166668768514,-0.148134827613831,0.193644285202026,-0.0852157026529312
0,1.02500007039179,-0.123611110178398,0.0194444453391775,-0.166155353188515,0.205861583352089,0.0403171069920063
0,1.02916674604155,-0.10972222781375,0.0166666676506515,-0.136528387665749,0.058643065392971,0.0659734457731247
0,1.06805562152495,-0.133333341205212,0.0750000036681839,-0.0351247526705265,0.214719131588936,-0.0177150927484035
0,1.02083339474202,-0.1194444466846,0.0541666679652478,0.0507018156349659,0.178372651338577,-0.0226020142436027
0,1.01111115155925,-0.123611110178398,0.0444444460554069,-0.0497855171561241,0.159435823559761,-0.00671951752156019
0,1.00277780025972,-0.12777778582816,0.0736111117849297,-0.16371189057827,0.166766211390495,0.0558941699564457
0,1.00972225967599,-0.12916666555545,0.0680555564078778,-0.102319926023483,0.12705996632576,0.114842668175697
0,1.0361111082101,-0.140277788465518,0.0125000003581147,-0.027488935738802,0.109955742955208,0.0345138870179653
0,1.03472221632685,-0.138888896582264,0.029166668768514,0.0424551330506802,0.0265726372599602,-0.00733038317412138
0,1.02916674604155,-0.140277788465518,0.0402777795226179,0.01588249579072,0.0534507073462009,-0.0381790772080422
0,1.01388893532575,-0.126388893944906,0.0583333375370279,-0.0134390350431204,0.131641462445259,0.0277943685650826
0,1.02083339474202,-0.120833338567854,0.0611111152255539,0.00549778714776039,0.151800006628036,0.0778853222727776
0,1.03194452980806,-0.130555557438704,0.0625000010308258,0.081855945289135,0.239153742790222,0.0558941699564457
0,1.01805561097552,-0.125000002061652,0.0513888902767219,0.0849102661013603,0.242208063602448,-0.0390953756868839
0,1.01388893532575,-0.13750000469901,0.0652777787193518,0.0552833043038845,0.250454753637314,-0.0189368221908808
0,1.00555558402623,-0.136111112815755,0.0750000036681839,-0.0314595587551594,0.146607652306557,-0.0372627787292004
0,1.00694447590948,-0.130555557438704,0.0777777813567098,-0.0699440687894821,-0.058643065392971,-0.0253509078174829
0,1.01388893532575,-0.118055554801345,0.0708333340964038,-0.0784961804747581,-0.23823744058609,-0.02382374368608
0,1.00972225967599,-0.125000002061652,0.0819444448505077,-0.0500909499824047,-0.383012503385544,-0.0323758572340012
0,1.02222228662528,-0.134722233088466,0.0625000010308258,-0.019547687843442,-0.284052342176437,0.0134390350431204
0,1.03194452980806,-0.130555557438704,0.055555559848502,0.0467311926186085,-0.0482583530247212,0.0164933614432812
0,1.03194452980806,-0.130555557438704,0.055555559848502,0.0693332031369209,0.112093769013882,0.000610865245107561
0,1.02222228662528,-0.12916666555545,0.055555559848502,0.0134390350431204,0.0995710343122482,-0.0335975885391235
0,1.00277780025972,-0.131944449321958,0.0750000036681839,0.00702495034784079,-0.149661988019943,-0.0522289797663689
0,1.00277780025972,-0.131944449321958,0.0750000036681839,0.0125227374956012,-0.125838235020638,-0.0513126812875271
0,1.02500007039179,-0.12916666555545,0.0597222233422998,0.0345138870179653,-0.0452040284872055,-0.0809396430850029
0,1.04861113515939,-0.120833338567854,0.0222222230277034,0.0299323964864016,0.0620028227567673,0.0143553335219622
0,1.0361111082101,-0.113888891307548,0.029166668768514,0.0439822971820831,0.0897971913218498,0.0461203269660473
0,1.01527782720901,-0.133333341205212,0.0486111125881959,0.00855211354792118,0.0561996027827263,0.0268780700862408
0,1.04166667574312,-0.136111112815755,0.055555559848502,0.0794124826788902,0.0836885422468185,0.0226020142436027
0,1.04166667574312,-0.140277788465518,0.0597222233422998,0.118813291192055,0.130419731140137,-0.0207694191485643
0,1.02638896227504,-0.169444445078067,0.030555557612777,0.226325571537018,0.305432617664337,0.0409279726445675
0,1.05000002704265,-0.10972222781375,0.055555559848502,0.377514719963074,0.346666038036346,0.147218525409698
0,1.01111115155925,-0.123611110178398,0.0861111144222878,0.331088960170746,0.0983493030071259,0.114537231624126
0,0.99583334084345,-0.113888891307548,0.1194444466846,0.224492982029915,-0.00244346098043024,0.0561996027827263
0,1.04027778385987,-0.12916666555545,0.0916666697993398,0.148745685815811,0.0219911485910416,0.0442877300083637
0,1.01111115155925,-0.12916666555545,0.0861111144222878,0.0885754600167274,0.0284052342176437,0.0571159012615681
0,1.02916674604155,-0.130555557438704,0.0819444448505077,0.0424551330506802,0.0842994004487991,0.0418442711234093
0,0.963888924776322,-0.261111114877407,0.0361111129898289,0.0268780700862408,-0.0632245540618896,-0.0204639863222837
0,0.994444448960196,-0.148611115453114,0.0805555590452358,0.0302378293126821,-0.137139245867729,-0.101403631269932
0,1.03472221632685,-0.118055554801345,0.0833333367337618,0.0253509078174829,-0.104457959532738,-0.0305432621389627
0,1.02361117850853,-0.106944444047242,0.055555559848502,0.0968221426010132,0.0186313893646002,0.0207694191485643
0,1.0305556379248,-0.108333335930496,0.052777782159976,0.138055548071861,0.0531452745199203,0.0360410511493683
0,1.02916674604155,-0.125000002061652,0.0583333375370279,0.109650313854218,0.0577267669141293,0.0436768643558025
0,1.03194452980806,-0.111111119697004,0.0736111117849297,0.0500909499824047,0.140193566679955,0.117591559886932
0,1.04722224327614,-0.134722233088466,0.0680555564078778,-0.03176499158144,0.159741267561913,0.13225232064724
0,1.04583335139288,-0.176388892338373,0.0652777787193518,-0.138666406273842,0.0983493030071259,0.0268780700862408
0,1.01805561097552,-0.179166676104882,0.111111119697004,-0.145996794104576,-0.0494800843298435,-0.0229074470698834
0,1.01527782720901,-0.163888889701015,0.111111119697004,-0.170431405305862,-0.19058994948864,-0.0332921557128429
5,1.00555558402623,-0.133333341205212,0.0805555590452358,-0.258090555667877,-0.314595609903336,0.00305432616733015
5,1.0125000434425,-0.134722233088466,0.0805555590452358,-0.259312301874161,-0.383928805589676,0.0809396430850029
5,0.98888888142718,-0.163888889701015,0.101388894748172,-0.183565005660057,-0.324064016342163,-0.113926365971565
5,1.04166667574312,-0.168055565350778,0.0875000002275597,-0.0766635909676552,-0.172874867916107,-0.153021737933159
5,1.04166667574312,-0.159722226207217,0.0375000018340919,-0.0546724386513233,-0.228158175945282,-0.186313897371292
5,1.01388893532575,-0.140277788465518,0.0583333375370279,0.0109955742955208,-0.165239050984383,-0.120645888149738
5,0.994444448960196,-0.111111119697004,0.0500000014324589,0.0769690200686455,-0.166766211390495,-0.0021380283869803
5,0.98888888142718,-0.12916666555545,0.0666666706026059,0.0781907513737679,-0.182648703455925,0.0106901414692402
5,0.998611124609959,-0.12777778582816,0.0541666679652478,0.0500909499824047,-0.244956970214844,0.0326812900602817
5,1.00694447590948,-0.125000002061652,0.0486111125881959,0.0183259565383196,-0.229379892349243,0.0400116741657257
5,1.02222228662528,-0.131944449321958,-0.0222222230277034,-0.0491746515035629,0.0485637858510017,0.0186313893646002
5,1.01527782720901,-0.14583334384257,0.0583333375370279,0.139277279376984,0.456621766090393,0.0424551330506802
5,0.99583334084345,-0.140277788465518,0.0750000036681839,0.000916297896765172,0.127976268529892,0.02382374368608
5,0.99583334084345,-0.13750000469901,0.0819444448505077,0.0287106670439243,0.00397062394768,-0.0103847095742822
5,0.986111194908388,-0.111111119697004,0.0763888894734557,-0.13225232064724,-0.22724187374115,-0.0125227374956012
5,1.02222228662528,-0.12777778582816,0.055555559848502,0.0656680166721344,-0.0448985956609249,-0.0045814891345799
5,1.03888889197661,-0.13750000469901,0.029166668768514,0.0103847095742822,0.0751364231109619,-0.0204639863222837
5,1.02638896227504,-0.13750000469901,0.0388888906783549,0.015577063895762,0.0256563406437635,-0.0167987942695618
5,1.0125000434425,-0.134722233088466,0.0513888902767219,-0.0192422550171614,-0.0320704244077206,-0.0503963828086853
5,1.00833336779274,-0.118055554801345,0.0416666683668809,-0.058643065392971,-0.135612085461616,-0.0342084541916847
5,1.01388893532575,-0.130555557438704,0.0402777795226179,0.0540615729987621,-0.0873537287116051,0.00671951752156019
5,1.01666671909226,-0.126388893944906,0.0472222237439329,-0.0830776765942574,-0.237321153283119,-0.00397062394768
5,1.0125000434425,-0.125000002061652,0.0722222259796579,-0.202501833438873,-0.547335267066956,-0.0369573459029198
5,1.01388893532575,-0.1194444466846,0.0472222237439329,-0.098960168659687,-0.722348153591156,-0.0192422550171614
5,0.998611124609959,-0.116666675074056,-0.0222222230277034,-0.193949714303017,-0.748309910297394,0.0161879286170006
5,0.998611124609959,-0.116666675074056,-0.0222222230277034,-0.11117747426033,0.433714330196381,0.00671951752156019
5,1.03472221632685,-0.130555557438704,0.0611111152255539,0.0653625801205635,0.486554175615311,-0.000305432622553781
5,1.00138890837647,-0.108333335930496,0.0486111125881959,0.152105450630188,-0.0613919571042061,0.0638354197144508
5,1.00138890837647,-0.108333335930496,0.0486111125881959,0.186619326472282,-0.146607652306557,0.0397062413394451
5,1.00833336779274,-0.162500009973726,0.0236111118719664,-0.00794124789535999,-0.0952949747443199,-0.0635299831628799
5,1.04305556762637,-0.140277788465518,-0.0166666676506515,0.013744467869401,0.167987942695618,-0.0229074470698834
5,1.04305556762637,-0.140277788465518,-0.0166666676506515,0.019547687843442,0.172874867916107,-0.0277943685650826
5,1.03194452980806,-0.144444451959316,0.0194444453391775,0.127365410327911,0.128587126731873,-0.0626136884093285
5,1.01527782720901,-0.130555557438704,-0.00416666691266287,0.0705549344420433,-0.150578290224075,-0.00366519158706069
5,1.01527782720901,-0.130555557438704,-0.00416666691266287,-0.0045814891345799,-0.0439822971820831,-0.021685715764761
5,1.02361117850853,-0.115277783190802,-0.0194444453391775,-0.10048733651638,-0.0305432621389627,-0.00946841109544039
5,1.03888889197661,-0.136111112815755,0.00555555575692586,-0.102319926023483,-0.200974673032761,-0.0592539273202419
5,1.03888889197661,-0.136111112815755,0.00555555575692586,-0.102319926023483,-0.200974673032761,-0.0592539273202419
5,1.04583335139288,-0.14583334384257,0.00138888893923146,-0.0357356183230877,-0.140804439783096,-0.0534507073462009
5,1.04305556762637,-0.125000002061652,-0.033333335301303,0.0400116741657257,0.244956970214844,-0.00244346098043024
5,1.02361117850853,-0.10972222781375,-0.0250000007162294,0.0891863256692886,0.357967019081116,0.0256563406437635
5,1.00138890837647,-0.108333335930496,0.03194444645704,0.0821613743901253,0.191506251692772,0.0369573459029198
5,0.99583334084345,-0.120833338567854,0.0416666683668809,0.163101017475128,0.0222965814173222,0.0772744566202164
5,1.02500007039179,-0.122222230451108,0.0125000003581147,0.163406446576118,0.0717766657471657,0.0757472887635231
5,1.04861113515939,-0.12916666555545,-0.00972222266958873,0.0510072484612465,0.235488548874855,0.027488935738802
5,1.10555560512509,-0.118055554801345,-0.118055554801345,0.107512280344963,0.00519235478714108,0.0308486949652433
5,1.0513889189259,-0.12777778582816,-0.0250000007162294,0.160657554864883,0.017409659922123,0.0342084541916847
5,1.01111115155925,-0.125000002061652,0.0402777795226179,0.0516181141138077,-0.0503963828086853,0.0378736443817616
5,1.00972225967599,-0.12916666555545,0.0361111129898289,0.00305432616733015,-0.182648703455925,0.0650571510195732
5,1.02500007039179,-0.144444451959316,0.0250000007162294,0.0027488935738802,-0.110566608607769,0.064446285367012
5,1.00972225967599,-0.17361112072783,0.0166666676506515,0.0711658000946045,-0.366824567317963,0.0152716310694814
5,1.00972225967599,-0.150000007336368,-0.00694444498106275,0.0348193198442459,-0.434325188398361,0.0192422550171614
5,1.00972225967599,-0.150000007336368,-0.00694444498106275,0.0271835029125214,-0.374154955148697,0.0235183127224445
5,1.02083339474202,-0.138888896582264,-0.0111111115138517,-0.0122173046693206,-0.251371055841446,0.0244346093386412
5,1.02916674604155,-0.138888896582264,-0.0208333341834404,-0.00610865233466029,-0.0983493030071259,0.0244346093386412
5,1.04583335139288,-0.156944454596674,-0.0152777788063885,0.0558941699564457,0.15851953625679,0.0161879286170006
5,1.0305556379248,-0.13750000469901,-0.0152777788063885,-0.0540615729987621,0.0855211317539215,0.00733038317412138
5,1.02916674604155,-0.133333341205212,-0.00555555575692586,0.0305432621389627,0.337503045797348,0.00549778714776039
5,1.06527783775844,-0.130555557438704,-0.0458333348996699,-0.13744467496872,0.53817230463028,-0.0226020142436027
5,1.0513889189259,-0.123611110178398,-0.00277777787846293,0.0207694191485643,0.455705463886261,-0.0271835029125214
5,1.00694447590948,-0.131944449321958,0.0750000036681839,0.0125227374956012,0.0901026204228401,-0.00855211354792118
5,0.973611167959101,-0.120833338567854,0.0666666706026059,-0.0232128798961639,-0.205250725150108,0.00916297826915979
5,1.00000001649321,-0.131944449321958,0.0402777795226179,0.0372627787292004,-0.0479529201984406,0.0226020142436027
5,1.0361111082101,-0.12777778582816,-0.0152777788063885,0.0699440687894821,-0.0390953756868839,0.0213802829384804
5,1.03194452980806,-0.143055560076062,0.00277777787846293,0.0525344125926495,-0.131336033344269,0.0171042270958424
5,0.976388951725609,-0.12777778582816,-0.0194444453391775,-0.0913243517279625,-0.22785273194313,-0.00397062394768
5,1.04027778385987,-0.144444451959316,-0.0416666683668809,0.0339030213654041,0.0998764708638191,0.00794124789535999
5,1.0305556379248,-0.15555556271342,-0.00277777787846293,0.0424551330506802,0.0265726372599602,-0.00763581553474069
5,1.03194452980806,-0.151388899219622,0.00972222266958873,0.0806342139840126,0.0855211317539215,0.00305432616733015
5,1.0361111082101,-0.161111118090472,0.00138888893923146,0.0778853222727776,0.169820532202721,-0.019547687843442
5,1.00694447590948,-0.14583334384257,0.0430555572111439,0.0681114718317986,0.0415388382971287,-0.0235183127224445
5,1.0125000434425,-0.163888889701015,0.0194444453391775,-0.16890424489975,-0.156992360949516,-0.0394008085131645
5,1.06527783775844,-0.133333341205212,0.0125000003581147,-0.0265726372599602,0.107206851243973,-0.0287106670439243
5,1.02638896227504,-0.144444451959316,0.00555555575692586,-0.0491746515035629,0.0647517144680023,-0.0629191175103188
5,0.969444492309338,-0.116666675074056,0.0541666679652478,0.0595593601465225,-0.0778853222727776,-0.0229074470698834
5,0.986111194908388,-0.10972222781375,0.03194444645704,0.03176499158144,-0.251981914043427,0.0268780700862408
5,1.03472221632685,-0.1194444466846,0.00833333382532574,0.0378736443817616,-0.207083314657211,0.0497855171561241
5,1.04166667574312,-0.120833338567854,-0.00555555575692586,-0.00855211354792118,-0.171042263507843,0.0329867228865623
5,1.04027778385987,-0.140277788465518,-0.00694444498106275,0.011606439948082,-0.106290549039841,-0.00366519158706069
5,1.02361117850853,-0.202777789496344,-0.0152777788063885,0.117591559886932,-0.0021380283869803,0.00427605677396059
5,1.04027778385987,-0.168055565350778,0.00555555575692586,0.124921940267086,0.101403631269932,-0.0442877300083637
5,1.01805561097552,-0.130555557438704,-0.0180555564949145,0.0302378293126821,0.0229074470698834,-0.015577063895762
5,1.02361117850853,-0.116666675074056,-0.0180555564949145,0.0812450796365738,0.0568104684352875,0.0592539273202419
5,1.01944450285877,-0.130555557438704,0.00972222266958873,0.236099421977997,0.0849102661013603,0.0681114718317986
5,1.00972225967599,-0.18333333959868,0.029166668768514,0.447764217853546,0.058643065392971,0.0409279726445675
5,1.00555558402623,-0.186111123365188,0.0250000007162294,0.485332429409027,-0.0748309940099716,0.0113010071218014
5,1.00694447590948,-0.176388892338373,0.00555555575692586,0.364075690507889,-0.146607652306557,-0.00397062394768
5,1.02916674604155,-0.144444451959316,-0.0347222241455659,0.197614908218384,-0.0824668109416962,-0.0100792767480016
5,1.01527782720901,-0.130555557438704,0.0111111115138517,0.206777885556221,-0.158214092254639,0.0436768643558025
5,0.99583334084345,-0.120833338567854,0.0444444460554069,0.266031801700592,-0.435852348804474,0.130114302039146
5,1.00277780025972,-0.12777778582816,0.0236111118719664,0.234572261571884,-0.650876939296722,0.0494800843298435
5,1.00000001649321,-0.143055560076062,0.026388891079988,0.200974673032761,-0.792903065681458,0.0143553335219622
5,1.03888889197661,-0.136111112815755,-0.0597222233422998,0.0699440687894821,-0.609948933124542,-0.00610865233466029
5,1.03888889197661,-0.136111112815755,-0.101388894748172,-0.118507854640484,-0.374765813350677,0.00397062394768
5,1.04166667574312,-0.150000007336368,-0.0847222225390337,-0.0723875313997269,-0.0833831056952477,-0.0113010071218014
5,1.01527782720901,-0.14722222356986,-0.0361111129898289,0.0448985956609249,-0.0106901414692402,0.0305432621389627
5,1.00833336779274,-0.133333341205212,-0.0583333375370279,0.017409659922123,0.10567969083786,0.0662788823246956
5,1.01111115155925,-0.130555557438704,-0.0611111152255539,-0.0360410511493683,0.154243469238281,0.0607810914516449
5,1.04166667574312,-0.140277788465518,-0.0875000002275597,-0.0647517144680023,0.351858377456665,0.0723875313997269
5,1.02638896227504,-0.163888889701015,-0.0486111125881959,-0.0222965814173222,0.455400049686432,0.0659734457731247
5,1.0125000434425,-0.166666673467524,0.0152777788063885,-0.00305432616733015,0.351552963256836,-0.0140499006956816
5,0.941666654644256,-0.13750000469901,-0.00972222266958873,-0.0568104684352875,0.0998764708638191,-0.00183259579353034
5,0.98888888142718,-0.148611115453114,-0.0388888906783549,-0.202501833438873,-0.100792765617371,0.0027488935738802
5,1.00972225967599,-0.162500009973726,-0.0597222233422998,-0.186924770474434,-0.130419731140137,-0.0201585534960032
5,1.0305556379248,-0.130555557438704,-0.03194444645704,-0.0161879286170006,0.0430659987032413,0.0277943685650826
5,1.02638896227504,-0.12916666555545,-0.0152777788063885,0.0766635909676552,-0.0277943685650826,0.0549778714776039
5,1.00972225967599,-0.141666668192807,-0.03194444645704,-0.0164933614432812,-0.208915919065475,0.0271835029125214
5,1.02222228662528,-0.179166676104882,-0.0500000014324589,-0.157908663153648,-0.252287358045578,-0.0287106670439243
5,1.00555558402623,-0.170833336961321,-0.0375000018340919,-0.204334422945976,-0.289244681596756,-0.0516181141138077
5,1.01388893532575,-0.151388899219622,-0.00833333382532574,-0.0363464802503586,-0.230601623654366,0.0106901414692402
5,1.0305556379248,-0.126388893944906,-0.0500000014324589,0.121867619454861,-0.271835029125214,0.0507018156349659
5,1.0305556379248,-0.140277788465518,-0.0819444448505077,0.0946841165423393,-0.160962998867035,0.0314595587551594
5,1.02083339474202,-0.140277788465518,-0.0833333367337618,-0.0992656052112579,-0.219300627708435,-0.0164933614432812
5,1.00555558402623,-0.154166670830166,-0.055555559848502,-0.183870434761047,-0.217162594199181,-0.0302378293126821
5,1.01666671909226,-0.151388899219622,-0.0513888902767219,-0.0418442711234093,0.00946841109544039,0.0323758572340012
5,1.0125000434425,-0.14722222356986,-0.0388888906783549,-0.00763581553474069,0.0681114718317986,0.0409279726445675
5,1.0125000434425,-0.14722222356986,-0.0388888906783549,-0.0610865242779255,0.0507018156349659,0.0384845100343227
5,1.02222228662528,-0.150000007336368,-0.143055560076062,-0.200363799929619,0.0891863256692886,0.017409659922123
5,1.03194452980806,-0.14722222356986,-0.134722233088466,-0.43860125541687,0.262672066688538,0.0363464802503586
5,1.03194452980806,-0.14722222356986,-0.134722233088466,-0.428827404975891,0.441655576229096,0.0540615729987621
5,1.01944450285877,-0.176388892338373,-0.0152777788063885,-0.288939267396927,0.456927210092545,0.0494800843298435
5,1.04027778385987,-0.177777784221628,-0.0152777788063885,-0.104457959532738,0.368046313524246,0.0113010071218014
5,1.04027778385987,-0.177777784221628,-0.0152777788063885,-0.015577063895762,0.203723564743996,-0.00946841109544039
5,1.01944450285877,-0.168055565350778,0.0111111115138517,-0.0397062413394451,0.081855945289135,-0.019547687843442
5,1.0125000434425,-0.161111118090472,-0.00555555575692586,-0.021685715764761,0.0604756586253643,-0.00122173049021512
5,1.0125000434425,-0.161111118090472,-0.00555555575692586,0.03176499158144,0.0684169083833694,0.019547687843442
5,1.04166667574312,-0.14722222356986,-0.0458333348996699,0.0870482996106148,0.251676470041275,0.0268780700862408
5,0.994444448960196,-0.16527778158427,-0.0194444453391775,0.00885754637420177,0.078801617026329,0.0189368221908808
5,1.00972225967599,-0.151388899219622,-0.0125000003581147,0.0458148941397667,0.17440202832222,0.00305432616733015
5,1.10138892947533,-0.200000005729836,-0.0944444474878658,-0.0659734457731247,0.303600013256073,-0.0161879286170006
5,1.00972225967599,-0.166666673467524,-0.0125000003581147,-0.0372627787292004,0.144164204597473,-0.00610865233466029
5,0.991666665193688,-0.158333334323963,0.0194444453391775,-0.0189368221908808,-0.0189368221908808,0.00427605677396059
5,1.00416669214298,-0.161111118090472,-0.00555555575692586,0.0226020142436027,-0.0280998013913631,0.0149661982432008
5,1.01527782720901,-0.16527778158427,-0.0222222230277034,0.00946841109544039,0.0021380283869803,0.0171042270958424
5,1.02083339474202,-0.163888889701015,-0.0194444453391775,0.00946841109544039,-0.013744467869401,0.00641408516094089
5,1.02777785415829,-0.166666673467524,-0.00972222266958873,0.0207694191485643,-0.0113010071218014,0.00855211354792118
5,1.01944450285877,-0.156944454596674,-0.0194444453391775,0.0219911485910416,-0.00916297826915979,-0.00152716308366507
5,1.01944450285877,-0.152777778946911,-0.0152777788063885,0.0198531206697226,-0.0021380283869803,0.000916297896765172
5,1.02361117850853,-0.152777778946911,-0.0166666676506515,0.00152716308366507,-0.00610865233466029,0.0210748501121998
5,1.02222228662528,-0.154166670830166,-0.0166666676506515,-0.00641408516094089,-0.0149661982432008,0.0131336031481624
5,1.01666671909226,-0.156944454596674,-0.0152777788063885,0.00397062394768,-0.0183259565383196,0.00824668072164059
5,1.01527782720901,-0.156944454596674,-0.0152777788063885,0.0134390350431204,-0.0207694191485643,0.0198531206697226
5,1.01944450285877,-0.158333334323963,-0.0208333341834404,0.0171042270958424,-0.0128281703218818,0.0262672062963247
5,1.02222228662528,-0.15555556271342,-0.0194444453391775,-0.00366519158706069,-0.0287106670439243,0.0229074470698834
5,1.01944450285877,-0.156944454596674,-0.0194444453391775,-0.013744467869401,-0.0418442711234093,0.021685715764761
5,1.02222228662528,-0.163888889701015,-0.0180555564949145,-0.00366519158706069,-0.0464257597923279,0.01588249579072
5,1.01388893532575,-0.16527778158427,-0.00972222266958873,0.0134390350431204,-0.0412334054708481,0.0204639863222837
5,1.01527782720901,-0.156944454596674,-0.00972222266958873,0.0122173046693206,-0.0583376325666905,0.0308486949652433
5,1.01388893532575,-0.156944454596674,-0.0152777788063885,0.0201585534960032,-0.0577267669141293,0.0400116741657257
5,1.01527782720901,-0.159722226207217,-0.0208333341834404,0.00641408516094089,-0.0641408488154411,0.0427605658769607
5,1.01666671909226,-0.15555556271342,-0.00972222266958873,-0.0149661982432008,-0.0574213340878487,0.0427605658769607
5,1.01805561097552,-0.158333334323963,-0.0138888899621255,-0.0207694191485643,-0.0671951770782471,0.0339030213654041
5,1.02638896227504,-0.166666673467524,-0.033333335301303,-0.0342084541916847,-0.0577267669141293,0.0342084541916847
5,1.02638896227504,-0.166666673467524,-0.033333335301303,-0.0357356183230877,-0.0452040284872055,0.0332921557128429
5,1.02500007039179,-0.163888889701015,-0.026388891079988,-0.0494800843298435,-0.0262672062963247,0.0299323964864016
5,1.01666671909226,-0.161111118090472,-0.0222222230277034,-0.0543670058250427,-0.0131336031481624,0.0305432621389627
5,1.02083339474202,-0.161111118090472,-0.0152777788063885,-0.0696386396884918,-0.029626963660121,0.0284052342176437
5,1.02500007039179,-0.163888889701015,-0.0180555564949145,-0.0748309940099716,-0.0189368221908808,0.0164933614432812
5,1.02500007039179,-0.15555556271342,-0.026388891079988,-0.0824668109416962,-0.00519235478714108,0.013744467869401
5,1.02638896227504,-0.159722226207217,-0.03194444645704,-0.10598511993885,0.0229074470698834,0.0128281703218818
5,1.02500007039179,-0.156944454596674,-0.029166668768514,-0.116980694234371,0.0207694191485643,0.00824668072164059
5,1.01944450285877,-0.161111118090472,-0.029166668768514,-0.119729585945606,0.01191187184304,0.000305432622553781
5,1.02222228662528,-0.166666673467524,-0.027777779924251,-0.125227376818657,0.0186313893646002,-0.0143553335219622
5,1.02083339474202,-0.176388892338373,-0.029166668768514,-0.133474051952362,0.0433714315295219,-0.0250454749912024
5,1.01944450285877,-0.172222228844576,-0.030555557612777,-0.142942473292351,0.0568104684352875,-0.0308486949652433
5,1.01527782720901,-0.161111118090472,-0.0194444453391775,-0.142331600189209,0.0394008085131645,-0.0339030213654041
5,1.0125000434425,-0.161111118090472,-0.0250000007162294,-0.151494577527046,0.0219911485910416,-0.0271835029125214
5,1.0125000434425,-0.163888889701015,-0.0250000007162294,-0.164322748780251,0.0268780700862408,-0.01191187184304
5,1.0125000434425,-0.17361112072783,-0.0236111118719664,-0.161879286170006,0.0232128798961639,-0.00946841109544039
5,1.01527782720901,-0.170833336961321,-0.0236111118719664,-0.152410879731178,0.0152716310694814,-0.00610865233466029
5,1.01944450285877,-0.16527778158427,-0.029166668768514,-0.142637029290199,-0.00671951752156019,-0.00763581553474069
5,1.02361117850853,-0.156944454596674,-0.029166668768514,-0.16371189057827,-0.0189368221908808,-0.00427605677396059
5,1.01944450285877,-0.162500009973726,-0.0222222230277034,-0.163406446576118,-0.0207694191485643,0.0167987942695618
5,1.01527782720901,-0.176388892338373,-0.00833333382532574,-0.156686931848526,-0.0290160998702049,0.0177150927484035
5,1.00972225967599,-0.181944447715425,-0.0125000003581147,-0.137750118970871,-0.0479529201984406,0.0183259565383196
5,1.01111115155925,-0.187500003092477,-0.030555557612777,-0.121256753802299,-0.0360410511493683,0.0186313893646002
5,1.02222228662528,-0.187500003092477,-0.027777779924251,-0.116675265133381,-0.0226020142436027,0.00824668072164059
5,1.01944450285877,-0.187500003092477,-0.0222222230277034,-0.0998764708638191,-0.0122173046693206,-0.0045814891345799
5,1.02083339474202,-0.176388892338373,-0.029166668768514,-0.087659165263176,-0.0152716310694814,-0.0128281703218818
5,1.01944450285877,-0.176388892338373,-0.0347222241455659,-0.0754418596625328,-0.0192422550171614,-0.01588249579072
5,1.01666671909226,-0.176388892338373,-0.03194444645704,-0.064446285367012,-0.0293215326964855,-0.0210748501121998
5,1.02361117850853,-0.176388892338373,-0.0208333341834404,-0.0552833043038845,-0.0180205255746841,-0.0146607663482428
5,1.02222228662528,-0.175000000455119,-0.0194444453391775,-0.0409279726445675,-0.013744467869401,-0.0149661982432008
5,1.02222228662528,-0.175000000455119,-0.0194444453391775,-0.0308486949652433,-0.0381790772080422,-0.00702495034784079
5,1.01805561097552,-0.163888889701015,-0.0208333341834404,-0.0354301854968071,-0.0436768643558025,-0.0131336031481624
5,1.02361117850853,-0.16527778158427,-0.0125000003581147,-0.0671951770782471,-0.00916297826915979,-0.01588249579072
5,1.00555558402623,-0.154166670830166,-0.0125000003581147,-0.115758962929249,0.0369573459029198,-0.0632245540618896
5,1.02638896227504,-0.130555557438704,-0.0166666676506515,-0.163406446576118,0.0485637858510017,-0.0616973899304867
5,0.987499989543926,-0.134722233088466,-0.0180555564949145,-0.201890960335732,-0.121256753802299,-0.0418442711234093
5,1.00972225967599,-0.10972222781375,-0.00555555575692586,-0.200974673032761,-0.17440202832222,-0.00397062394768
5,1.06111116210868,-0.0875000002275597,-0.0458333348996699,-0.275805652141571,-0.0684169083833694,0.00702495034784079
5,1.0694445134082,-0.159722226207217,-0.0430555572111439,-0.251981914043427,0.00794124789535999,0.0534507073462009
5,1.02916674604155,-0.18333333959868,-0.026388891079988,-0.246789559721947,0.120951317250729,0.0427605658769607
5,1.00972225967599,-0.163888889701015,-0.0152777788063885,-0.193949714303017,0.00916297826915979,0.0339030213654041
5,1.01805561097552,-0.166666673467524,-0.0388888906783549,-0.19058994948864,-0.0125227374956012,0.0332921557128429
5,1.02638896227504,-0.190277786858986,-0.0541666679652478,-0.177150920033455,0.00885754637420177,0.0299323964864016
5,1.0333333244436,-0.212499996211229,-0.0486111125881959,-0.126143679022789,0.0705549344420433,-0.00122173049021512
5,1.02500007039179,-0.229166674498349,-0.0375000018340919,-0.08460483700037,0.0983493030071259,-0.0229074470698834
5,1.00972225967599,-0.20972223675665,-0.0250000007162294,-0.0442877300083637,0.0794124826788902,-0.0354301854968071
5,1.00277780025972,-0.177777784221628,-0.026388891079988,-0.0125227374956012,0.0510072484612465,-0.0439822971820831
5,1.0125000434425,-0.161111118090472,-0.0458333348996699,-0.00488692196086049,0.015577063895762,-0.0244346093386412
5,1.0125000434425,-0.159722226207217,-0.0541666679652478,0.00122173049021512,0.0204639863222837,-0.0201585534960032
5,1.01944450285877,-0.17361112072783,-0.0402777795226179,-0.01191187184304,-0.027488935738802,0.0128281703218818
5,1.00694447590948,-0.19166667874224,-0.0486111125881959,0.0109955742955208,0.0418442711234093,0.0113010071218014
5,1.00694447590948,-0.19166667874224,-0.0486111125881959,0.00397062394768,0.0366519130766392,-0.0100792767480016
5,1.00277780025972,-0.170833336961321,-0.0361111129898289,0.00794124789535999,0.0302378293126821,-0.0250454749912024
5,1.01111115155925,-0.166666673467524,-0.0388888906783549,-0.00824668072164059,0.0210748501121998,-0.0241291765123606
5,1.01111115155925,-0.166666673467524,-0.0388888906783549,-0.0180205255746841,0.0290160998702049,-0.0210748501121998
5,1.0125000434425,-0.154166670830166,-0.0361111129898289,-0.0152716310694814,0.0250454749912024,-0.0241291765123606
5,1.0125000434425,-0.152777778946911,-0.029166668768514,-0.0226020142436027,0.0418442711234093,-0.00397062394768
5,1.0125000434425,-0.152777778946911,-0.029166668768514,-0.0143553335219622,0.0299323964864016,0.00549778714776039
5,1.02916674604155,-0.154166670830166,-0.0375000018340919,-0.0143553335219622,0.0662788823246956,0.0113010071218014
5,1.01666671909226,-0.154166670830166,-0.0402777795226179,-0.0387899428606033,0.0543670058250427,0.0027488935738802
5,1.01666671909226,-0.154166670830166,-0.0402777795226179,-0.0332921557128429,0.00519235478714108,0.00977384392172098
5,1.02500007039179,-0.150000007336368,-0.0486111125881959,-0.0335975885391235,0.0161879286170006,0.0167987942695618
5,1.01944450285877,-0.152777778946911,-0.0472222237439329,-0.0558941699564457,0.0192422550171614,0.0235183127224445
5,1.0125000434425,-0.158333334323963,-0.0402777795226179,-0.0769690200686455,0.00641408516094089,0.0219911485910416
5,1.01527782720901,-0.154166670830166,-0.0430555572111439,-0.0894917547702789,0.015577063895762,0.0314595587551594
5,1.01388893532575,-0.148611115453114,-0.0513888902767219,-0.0965167060494423,0.0140499006956816,0.0183259565383196
5,1.00972225967599,-0.140277788465518,-0.0500000014324589,-0.113010071218014,0.00946841109544039,0.00244346098043024
5,1.00972225967599,-0.133333341205212,-0.0513888902767219,-0.153632611036301,-0.0207694191485643,-0.0149661982432008
5,1.00555558402623,-0.130555557438704,-0.055555559848502,-0.178678080439568,-0.0366519130766392,-0.0177150927484035
5,1.01944450285877,-0.130555557438704,-0.0611111152255539,-0.201890960335732,-0.0436768643558025,-0.0143553335219622
5,1.02222228662528,-0.158333334323963,-0.0763888894734557,-0.206472456455231,-0.013744467869401,0.0021380283869803
5,1.0125000434425,-0.163888889701015,-0.0500000014324589,-0.213191971182823,0.00671951752156019,-0.0033597587607801
5,1.00555558402623,-0.166666673467524,-0.0500000014324589,-0.200669229030609,-0.0244346093386412,-0.00946841109544039
5,1.00694447590948,-0.168055565350778,-0.0652777787193518,-0.199752941727638,-0.0299323964864016,-0.0180205255746841
5,1.01111115155925,-0.17361112072783,-0.0763888894734557,-0.206777885556221,-0.03176499158144,-0.0244346093386412
5,1.01527782720901,-0.17361112072783,-0.0708333340964038,-0.194255143404007,-0.0198531206697226,-0.0253509078174829
5,1.00555558402623,-0.175000000455119,-0.0722222259796579,-0.180510684847832,-0.0232128798961639,-0.02382374368608
5,1.00416669214298,-0.176388892338373,-0.0680555564078778,-0.152410879731178,-0.0479529201984406,-0.0201585534960032
5,1.00972225967599,-0.18333333959868,-0.0666666706026059,-0.125227376818657,-0.0610865242779255,-0.019547687843442
5,1.00972225967599,-0.18333333959868,-0.0666666706026059,-0.118202425539494,-0.0647517144680023,-0.000610865245107561
5,1.0125000434425,-0.20138889761309,-0.0888888921108138,-0.0971275717020035,-0.0616973899304867,-0.00702495034784079
5,1.00416669214298,-0.190277786858986,-0.0916666697993398,-0.0745255574584007,-0.0842994004487991,-0.0177150927484035
5,1.00416669214298,-0.190277786858986,-0.0916666697993398,-0.05283984541893,-0.114537231624126,-0.0152716310694814
5,0.984722303025134,-0.14722222356986,-0.118055554801345,-0.0262672062963247,-0.135306656360626,-0.00366519158706069
5,0.976388951725609,-0.13750000469901,-0.143055560076062,-0.0204639863222837,-0.211053937673569,0.0354301854968071
5,0.976388951725609,-0.13750000469901,-0.143055560076062,-0.0598647929728031,-0.214108273386955,0.0592539273202419
5,0.998611124609959,-0.133333341205212,-0.150000007336368,-0.081855945289135,-0.176540061831474,0.0687223374843597
5,1.03750000009336,-0.15555556271342,-0.12777778582816,-0.0629191175103188,-0.175929188728332,0.0534507073462009
5,1.03750000009336,-0.15555556271342,-0.12777778582816,-0.0314595587551594,-0.192117124795914,0.013744467869401
5,1.03750000009336,-0.14583334384257,-0.126388893944906,-0.0219911485910416,-0.190895393490791,-0.0332921557128429
5,1.06527783775844,-0.130555557438704,-0.130555557438704,0.0134390350431204,-0.148440256714821,-0.0699440687894821
5,1.07222229717471,-0.1194444466846,-0.126388893944906,0.037568211555481,-0.090408056974411,-0.119118720293045
5,1.04027778385987,-0.0986111170596459,-0.115277783190802,0.0485637858510017,-0.0913243517279625,-0.116675265133381
5,1.02638896227504,-0.0833333367337618,-0.108333335930496,0.0595593601465225,-0.0806342139840126,-0.0928515195846558
5,1.00833336779274,-0.0597222233422998,-0.12777778582816,0.0595593601465225,-0.0803287774324417,-0.064446285367012
5,1.0125000434425,-0.0625000010308258,-0.122222230451108,0.0430659987032413,-0.0485637858510017,-0.0290160998702049
5,1.01527782720901,-0.0694444482911319,-0.126388893944906,0.0345138870179653,0.0033597587607801,-0.00519235478714108
5,1.02222228662528,-0.101388894748172,-0.134722233088466,0.0152716310694814,0.0574213340878487,0.0235183127224445
5,1.02222228662528,-0.120833338567854,-0.138888896582264,0.00580321997404099,0.108123145997524,0.0400116741657257
5,1.04166667574312,-0.14583334384257,-0.1194444466846,0.0198531206697226,0.17989981174469,0.00305432616733015
5,1.04583335139288,-0.180555567988136,-0.0944444474878658,0.0348193198442459,0.189673662185669,-0.0461203269660473
5,1.03888889197661,-0.187500003092477,-0.0750000036681839,0.104152522981167,0.212886542081833,-0.0940732508897781
5,1.01666671909226,-0.158333334323963,-0.052777782159976,0.152410879731178,0.171653136610985,-0.114537231624126
5,1.00277780025972,-0.104166672436698,-0.0736111117849297,0.144469633698463,0.133779495954514,-0.0855211317539215
5,1.0125000434425,-0.0583333375370279,-0.0916666697993398,0.0897971913218498,0.103847093880177,-0.0366519130766392
5,1.03194452980806,-0.052777782159976,-0.0916666697993398,0.0561996027827263,0.102930791676045,0.00305432616733015
5,1.03888889197661,-0.0888888921108138,-0.0722222259796579,0.0326812900602817,0.0998764708638191,0.00122173049021512
5,1.0361111082101,-0.113888891307548,-0.0666666706026059,0.0354301854968071,0.0668897479772568,-0.0226020142436027
5,1.02222228662528,-0.12777778582816,-0.0597222233422998,0.0308486949652433,0.0458148941397667,-0.0280998013913631
5,1.00694447590948,-0.12777778582816,-0.0722222259796579,0.0403171069920063,0.0607810914516449,-0.0302378293126821
5,1.00416669214298,-0.131944449321958,-0.055555559848502,0.0470366254448891,0.0794124826788902,-0.0122173046693206
5,1.00972225967599,-0.13750000469901,-0.0583333375370279,0.0604756586253643,0.0882700309157372,-0.0152716310694814
5,1.02361117850853,-0.151388899219622,-0.0638888929140799,0.0723875313997269,0.111482910811901,-0.013744467869401
5,1.02500007039179,-0.150000007336368,-0.0638888929140799,0.0708603709936142,0.124616511166096,-0.00824668072164059
5,1.01527782720901,-0.15555556271342,-0.055555559848502,0.0598647929728031,0.113926365971565,-0.0177150927484035
5,1.01388893532575,-0.143055560076062,-0.055555559848502,0.0623082555830479,0.0894917547702789,-0.0384845100343227
5,1.00694447590948,-0.136111112815755,-0.0430555572111439,0.0543670058250427,0.0665843114256859,-0.0372627787292004
5,1.00694447590948,-0.136111112815755,-0.0430555572111439,0.0565050356090069,0.0378736443817616,-0.0033597587607801
5,1.01527782720901,-0.12777778582816,-0.0513888902767219,0.0558941699564457,0.0235183127224445,0.0186313893646002
5,1.01527782720901,-0.12777778582816,-0.0513888902767219,0.0534507073462009,0.0134390350431204,0.03176499158144
5,1.00972225967599,-0.140277788465518,-0.0486111125881959,0.0525344125926495,-0.0103847095742822,0.0311541277915239
5,1.02222228662528,-0.14583334384257,-0.0500000014324589,0.0534507073462009,-0.0122173046693206,0.0372627787292004
5,1.02222228662528,-0.150000007336368,-0.0597222233422998,0.05283984541893,-0.00610865233466029,0.0277943685650826
5,1.02222228662528,-0.151388899219622,-0.0583333375370279,0.0561996027827263,0.0241291765123606,0.0204639863222837
5,1.01944450285877,-0.141666668192807,-0.0625000010308258,0.0464257597923279,0.0290160998702049,0.0177150927484035
5,1.02222228662528,-0.138888896582264,-0.055555559848502,0.037568211555481,0.02382374368608,0.0299323964864016
5,1.02083339474202,-0.143055560076062,-0.0458333348996699,0.0390953756868839,0.0311541277915239,0.0290160998702049
5,1.02222228662528,-0.140277788465518,-0.0388888906783549,0.0314595587551594,0.0293215326964855,0.0204639863222837
5,1.02083339474202,-0.148611115453114,-0.0541666679652478,0.0351247526705265,0.0314595587551594,0.0332921557128429
5,1.0125000434425,-0.15555556271342,-0.0652777787193518,0.0284052342176437,0.0400116741657257,0.0351247526705265
5,1.01527782720901,-0.161111118090472,-0.0486111125881959,0.0479529201984406,0.0128281703218818,0.0394008085131645
5,1.0125000434425,-0.16527778158427,-0.0486111125881959,0.0580321997404099,-0.01191187184304,0.0277943685650826
5,1.0125000434425,-0.16527778158427,-0.0486111125881959,0.0729983970522881,-0.0183259565383196,0.0198531206697226
5,1.01944450285877,-0.179166676104882,-0.0625000010308258,0.0824668109416962,-0.00641408516094089,0.0277943685650826
5,1.02222228662528,-0.180555567988136,-0.0583333375370279,0.0943786799907684,0.0171042270958424,0.0256563406437635
5,1.02222228662528,-0.180555567988136,-0.0583333375370279,0.103236228227615,0.0247400421649218,0.0241291765123606
5,1.01805561097552,-0.170833336961321,-0.0388888906783549,0.108123145997524,0.0189368221908808,0.0128281703218818
5,1.01805561097552,-0.150000007336368,-0.0430555572111439,0.103847093880177,-0.00763581553474069,0.015577063895762
5,1.01805561097552,-0.150000007336368,-0.0430555572111439,0.102930791676045,-0.00519235478714108,0.0290160998702049
5,1.01944450285877,-0.148611115453114,-0.055555559848502,0.0928515195846558,-0.00183259579353034,0.0348193198442459
5,1.01805561097552,-0.144444451959316,-0.0416666683668809,0.0894917547702789,-0.00702495034784079,0.0259617734700441
5,1.01805561097552,-0.144444451959316,-0.0416666683668809,0.0803287774324417,-0.00763581553474069,0.0207694191485643
5,1.01666671909226,-0.144444451959316,-0.0472222237439329,0.0690277740359306,-0.00702495034784079,0.0280998013913631
5,1.02222228662528,-0.154166670830166,-0.0486111125881959,0.0577267669141293,0.0164933614432812,0.0256563406437635
5,1.02500007039179,-0.15555556271342,-0.0444444460554069,0.0711658000946045,0.00763581553474069,0.0109955742955208
5,1.01666671909226,-0.154166670830166,-0.033333335301303,0.0690277740359306,-0.00763581553474069,0.0113010071218014
5,1.02361117850853,-0.159722226207217,-0.0250000007162294,0.0742201283574104,-0.00122173049021512,0.0134390350431204
5,1.02361117850853,-0.15555556271342,-0.0375000018340919,0.0821613743901253,-0.00397062394768,0.021685715764761
5,1.01944450285877,-0.154166670830166,-0.0444444460554069,0.0729983970522881,-0.00763581553474069,0.019547687843442
5,1.01944450285877,-0.159722226207217,-0.0361111129898289,0.0781907513737679,-0.00733038317412138,-0.00702495034784079
5,1.01944450285877,-0.161111118090472,-0.0416666683668809,0.0824668109416962,-0.000305432622553781,-0.00488692196086049
5,1.02222228662528,-0.170833336961321,-0.0472222237439329,0.0852157026529312,0.0326812900602817,-0.00244346098043024
5,1.02500007039179,-0.169444445078067,-0.0458333348996699,0.0705549344420433,0.0574213340878487,-0.0128281703218818
5,1.02638896227504,-0.166666673467524,-0.0513888902767219,0.0473420582711697,0.0650571510195732,-0.0134390350431204
5,1.0125000434425,-0.156944454596674,-0.0388888906783549,0.0403171069920063,0.0433714315295219,-0.0152716310694814
5,1.01111115155925,-0.154166670830166,-0.027777779924251,0.0360410511493683,0.0122173046693206,0.000305432622553781
5,1.01388893532575,-0.15555556271342,-0.0388888906783549,0.0418442711234093,0.0161879286170006,0.0167987942695618
5,1.01805561097552,-0.161111118090472,-0.0416666683668809,0.0461203269660473,0.0412334054708481,0.000916297896765172
5,1.01527782720901,-0.179166676104882,-0.0402777795226179,0.0638354197144508,0.0210748501121998,-0.00824668072164059
5,1.00972225967599,-0.17361112072783,-0.0375000018340919,0.0671951770782471,0.00305432616733015,-0.0027488935738802
5,1.01388893532575,-0.168055565350778,-0.0361111129898289,0.0626136884093285,0.0021380283869803,-0.00733038317412138
5,1.02083339474202,-0.166666673467524,-0.0486111125881959,0.0662788823246956,0.00397062394768,0.00855211354792118
5,1.02222228662528,-0.166666673467524,-0.0388888906783549,0.0632245540618896,0.0033597587607801,0.00580321997404099
5,1.0125000434425,-0.162500009973726,-0.03194444645704,0.0665843114256859,-0.00702495034784079,-0.00519235478714108
5,1.01388893532575,-0.163888889701015,-0.0402777795226179,0.0684169083833694,-0.0109955742955208,0.0113010071218014
5,1.01666671909226,-0.163888889701015,-0.0416666683668809,0.0604756586253643,-0.0045814891345799,0.00305432616733015
5,1.01944450285877,-0.163888889701015,-0.0416666683668809,0.0607810914516449,-0.0033597587607801,-0.0021380283869803
5,1.01944450285877,-0.163888889701015,-0.0416666683668809,0.0500909499824047,-0.00794124789535999,0.00305432616733015
5,1.01388893532575,-0.156944454596674,-0.0416666683668809,0.0439822971820831,-0.017409659922123,0.00610865233466029
5,1.01388893532575,-0.163888889701015,-0.0388888906783549,0.0332921557128429,-0.0250454749912024,0.00152716308366507
5,1.01666671909226,-0.163888889701015,-0.0416666683668809,0.0280998013913631,-0.0247400421649218,0.0146607663482428
5,1.02222228662528,-0.169444445078067,-0.0375000018340919,0.0164933614432812,0.00702495034784079,0.0125227374956012
5,1.01944450285877,-0.170833336961321,-0.0361111129898289,0.0149661982432008,0.0134390350431204,0.000610865245107561
5,1.01666671909226,-0.169444445078067,-0.026388891079988,0.0213802829384804,0.00122173049021512,-0.0021380283869803
5,1.02222228662528,-0.170833336961321,-0.0208333341834404,0.013744467869401,-0.00671951752156019,-0.0021380283869803
5,1.02500007039179,-0.166666673467524,-0.033333335301303,0.0213802829384804,0.000305432622553781,-0.00610865233466029
5,1.01805561097552,-0.158333334323963,-0.0388888906783549,0.0134390350431204,0.0125227374956012,-0.0140499006956816
5,1.01805561097552,-0.158333334323963,-0.0375000018340919,0.0109955742955208,0.0186313893646002,-0.00763581553474069
5,1.01666671909226,-0.156944454596674,-0.0416666683668809,-0.0027488935738802,0.0397062413394451,-0.0226020142436027
5,1.01388893532575,-0.15555556271342,-0.03194444645704,0.0100792767480016,-0.00397062394768,-0.0140499006956816
5,1.02361117850853,-0.156944454596674,-0.033333335301303,0.0250454749912024,0.00427605677396059,-0.00916297826915979
5,1.02222228662528,-0.156944454596674,-0.0486111125881959,0.0171042270958424,0.0106901414692402,-0.0128281703218818
5,1.0125000434425,-0.161111118090472,-0.0430555572111439,0.00824668072164059,0.0189368221908808,-0.00641408516094089
5,1.00972225967599,-0.156944454596674,-0.0361111129898289,0.00122173049021512,-0.0103847095742822,0.000610865245107561
5,1.00972225967599,-0.156944454596674,-0.0430555572111439,0.011606439948082,-0.0250454749912024,-0.00549778714776039
5,1.01527782720901,-0.161111118090472,-0.0430555572111439,0.000916297896765172,-0.0128281703218818,-0.0143553335219622
5,1.02222228662528,-0.152777778946911,-0.0416666683668809,-0.0109955742955208,-0.0033597587607801,0.000916297896765172
5,1.02222228662528,-0.154166670830166,-0.0430555572111439,-0.0140499006956816,0.000916297896765172,0.00122173049021512
5,1.02083339474202,-0.161111118090472,-0.0402777795226179,-0.0247400421649218,-0.00671951752156019,-0.0140499006956816
5,1.02361117850853,-0.158333334323963,-0.03194444645704,-0.0326812900602817,-0.00885754637420177,-0.00824668072164059
5,1.01805561097552,-0.161111118090472,-0.029166668768514,-0.0351247526705265,0.0189368221908808,-0.00977384392172098
5,1.01666671909226,-0.169444445078067,-0.026388891079988,-0.0280998013913631,0.021685715764761,-0.0164933614432812
5,1.01111115155925,-0.163888889701015,-0.029166668768514,-0.0268780700862408,0.00763581553474069,-0.0106901414692402
5,1.01527782720901,-0.16527778158427,-0.0250000007162294,-0.0326812900602817,0.00488692196086049,-0.0226020142436027
5,1.01527782720901,-0.166666673467524,-0.029166668768514,-0.0262672062963247,0.013744467869401,-0.0204639863222837
5,1.02222228662528,-0.163888889701015,-0.0250000007162294,-0.0287106670439243,0.019547687843442,-0.0247400421649218
5,1.01944450285877,-0.158333334323963,-0.029166668768514,-0.0354301854968071,0.0332921557128429,-0.0128281703218818
5,1.02222228662528,-0.159722226207217,-0.0250000007162294,-0.0427605658769607,0.0198531206697226,-0.0253509078174829
5,1.01944450285877,-0.161111118090472,-0.0166666676506515,-0.0403171069920063,0.015577063895762,-0.0290160998702049
5,1.01527782720901,-0.159722226207217,-0.0222222230277034,-0.0357356183230877,0.0113010071218014,-0.0229074470698834
5,1.02083339474202,-0.161111118090472,-0.0166666676506515,-0.0326812900602817,0.0235183127224445,-0.0189368221908808
5,1.02222228662528,-0.148611115453114,-0.0166666676506515,-0.029626963660121,0.0226020142436027,-0.0134390350431204
5,1.02222228662528,-0.14722222356986,-0.03194444645704,-0.0299323964864016,0.0183259565383196,-0.0244346093386412
5,1.02361117850853,-0.150000007336368,-0.03194444645704,-0.0345138870179653,0.00916297826915979,-0.0186313893646002
5,1.02083339474202,-0.150000007336368,-0.027777779924251,-0.0342084541916847,0.0167987942695618,-0.0226020142436027
5,1.02083339474202,-0.154166670830166,-0.029166668768514,-0.0299323964864016,0.0256563406437635,-0.0201585534960032
5,1.02222228662528,-0.150000007336368,-0.030555557612777,-0.0256563406437635,0.0201585534960032,-0.0241291765123606
5,1.02083339474202,-0.151388899219622,-0.029166668768514,-0.0308486949652433,0.0280998013913631,-0.0232128798961639
5,1.02083339474202,-0.151388899219622,-0.029166668768514,-0.0290160998702049,0.0256563406437635,-0.0131336031481624
5,1.02222228662528,-0.14722222356986,-0.027777779924251,-0.0280998013913631,0.0381790772080422,-0.0161879286170006
5,1.01944450285877,-0.154166670830166,-0.0347222241455659,-0.017409659922123,0.0314595587551594,-0.0244346093386412
5,1.01805561097552,-0.14722222356986,-0.026388891079988,-0.01588249579072,0.015577063895762,-0.029626963660121
5,1.02222228662528,-0.144444451959316,-0.0402777795226179,-0.0183259565383196,0.0106901414692402,-0.0335975885391235
5,1.02500007039179,-0.141666668192807,-0.0388888906783549,-0.0271835029125214,0.0265726372599602,-0.0186313893646002
5,1.01944450285877,-0.134722233088466,-0.03194444645704,-0.027488935738802,0.0256563406437635,-0.00519235478714108
5,1.0125000434425,-0.13750000469901,-0.030555557612777,-0.029626963660121,-0.0106901414692402,-0.00794124789535999
5,1.01805561097552,-0.140277788465518,-0.030555557612777,-0.0335975885391235,-0.0021380283869803,-0.0204639863222837
5,1.02500007039179,-0.154166670830166,-0.026388891079988,-0.0259617734700441,0.00488692196086049,-0.0198531206697226
5,1.02222228662528,-0.154166670830166,-0.027777779924251,-0.0164933614432812,0.0222965814173222,-0.01588249579072
5,1.01527782720901,-0.140277788465518,-0.0194444453391775,-0.0149661982432008,0.0201585534960032,-0.0109955742955208
5,1.01666671909226,-0.134722233088466,-0.0361111129898289,-0.0171042270958424,0.0235183127224445,-0.00366519158706069
5,1.01666671909226,-0.131944449321958,-0.0347222241455659,-0.0314595587551594,-0.000610865245107561,-0.00885754637420177
5,1.02916674604155,-0.134722233088466,-0.0444444460554069,-0.0357356183230877,-0.00122173049021512,-0.0143553335219622
5,1.02638896227504,-0.136111112815755,-0.0416666683668809,-0.03176499158144,0.00946841109544039,-0.00519235478714108
5,1.02500007039179,-0.14722222356986,-0.0347222241455659,-0.0320704244077206,0.0186313893646002,-0.015577063895762
5,1.01944450285877,-0.14583334384257,-0.0375000018340919,-0.0345138870179653,0.0171042270958424,-0.0131336031481624
5,1.02222228662528,-0.14722222356986,-0.03194444645704,-0.0406225398182869,0.019547687843442,-0.0143553335219622
5,1.02222228662528,-0.140277788465518,-0.027777779924251,-0.0363464802503586,0.0122173046693206,-0.0113010071218014
5,1.02222228662528,-0.143055560076062,-0.030555557612777,-0.0378736443817616,0.017409659922123,-0.01191187184304
5,1.01944450285877,-0.143055560076062,-0.029166668768514,-0.0305432621389627,0.00702495034784079,-0.0045814891345799
5,1.01666671909226,-0.123611110178398,-0.0208333341834404,-0.0458148941397667,0.00610865233466029,-0.0021380283869803
5,1.01944450285877,-0.12916666555545,-0.029166668768514,-0.0558941699564457,0.000916297896765172,0.00244346098043024
5,1.01805561097552,-0.13750000469901,-0.029166668768514,-0.0565050356090069,-0.00122173049021512,-0.00733038317412138
5,1.02500007039179,-0.140277788465518,-0.033333335301303,-0.0519235469400883,0.0027488935738802,-0.00488692196086049
5,1.01666671909226,-0.141666668192807,-0.0347222241455659,-0.0485637858510017,0.01191187184304,-0.0021380283869803
5,1.01527782720901,-0.140277788465518,-0.0388888906783549,-0.0491746515035629,0.00885754637420177,-0.00397062394768
5,1.01666671909226,-0.144444451959316,-0.030555557612777,-0.0421497002243996,0.00488692196086049,-0.00610865233466029
5,1.02083339474202,-0.15555556271342,-0.026388891079988,-0.0381790772080422,0.00152716308366507,0.0021380283869803
5,1.02500007039179,-0.150000007336368,-0.03194444645704,-0.0485637858510017,0.0021380283869803,-0.013744467869401
5,1.01805561097552,-0.144444451959316,-0.0250000007162294,-0.0400116741657257,0.00916297826915979,-0.00152716308366507
5,1.01805561097552,-0.141666668192807,-0.029166668768514,-0.037568211555481,0.00794124789535999,-0.00763581553474069
5,1.01944450285877,-0.140277788465518,-0.029166668768514,-0.0335975885391235,-0.00641408516094089,-0.000305432622553781
5,1.02361117850853,-0.136111112815755,-0.0416666683668809,-0.0345138870179653,0.00610865233466029,0.000305432622553781
5,1.02361117850853,-0.141666668192807,-0.0388888906783549,-0.0363464802503586,0.00397062394768,-0.00488692196086049
5,1.01944450285877,-0.14722222356986,-0.027777779924251,-0.0222965814173222,0.0021380283869803,0.00702495034784079
5,1.01666671909226,-0.14722222356986,-0.03194444645704,-0.0189368221908808,-0.0027488935738802,-0.00152716308366507
5,1.02083339474202,-0.14583334384257,-0.0361111129898289,-0.00855211354792118,-0.00549778714776039,-0.0045814891345799
5,1.01944450285877,-0.144444451959316,-0.0236111118719664,-0.0021380283869803,0.00977384392172098,0.00122173049021512
5,1.02222228662528,-0.140277788465518,-0.0250000007162294,0.00122173049021512,0.0134390350431204,-0.00549778714776039
5,1.01944450285877,-0.133333341205212,-0.030555557612777,0.00305432616733015,0.00549778714776039,-0.00427605677396059
5,1.02083339474202,-0.134722233088466,-0.026388891079988,0.00122173049021512,-0.00519235478714108,-0.0027488935738802
5,1.02222228662528,-0.133333341205212,-0.0250000007162294,-0.00122173049021512,-0.00610865233466029,0.000305432622553781
5,1.02083339474202,-0.133333341205212,-0.0250000007162294,0.0122173046693206,-0.00244346098043024,-0.00488692196086049
5,1.02500007039179,-0.138888896582264,-0.0236111118719664,0.0128281703218818,-0.0106901414692402,0.00641408516094089
5,1.02361117850853,-0.138888896582264,-0.0347222241455659,0.00885754637420177,-0.000305432622553781,0.000916297896765172
5,1.02361117850853,-0.138888896582264,-0.0347222241455659,0.00733038317412138,-0.0027488935738802,0.0045814891345799
5,1.01805561097552,-0.130555557438704,-0.0250000007162294,-0.000916297896765172,-0.0210748501121998,0.00763581553474069
5,1.02500007039179,-0.134722233088466,-0.029166668768514,-0.000305432622553781,-0.0149661982432008,0.0027488935738802
5,1.02500007039179,-0.134722233088466,-0.029166668768514,0.00763581553474069,-0.0103847095742822,0.00488692196086049
5,1.01527782720901,-0.134722233088466,-0.029166668768514,0.00519235478714108,-0.0198531206697226,0.00519235478714108
5,1.01388893532575,-0.144444451959316,-0.0250000007162294,-0.00183259579353034,-0.0244346093386412,0.0103847095742822
5,1.01388893532575,-0.144444451959316,-0.0250000007162294,0.00397062394768,-0.0244346093386412,0.0033597587607801
5,1.01666671909226,-0.148611115453114,-0.029166668768514,0.0164933614432812,-0.0293215326964855,0.0033597587607801
5,1.02777785415829,-0.143055560076062,-0.029166668768514,0.0262672062963247,-0.0201585534960032,-0.00763581553474069
5,1.02777785415829,-0.143055560076062,-0.029166668768514,0.027488935738802,-0.0229074470698834,-0.00397062394768
5,1.02500007039179,-0.14583334384257,-0.0416666683668809,0.0210748501121998,-0.013744467869401,-0.0134390350431204
5,1.02916674604155,-0.150000007336368,-0.0361111129898289,0.02382374368608,0.000305432622553781,-0.0027488935738802
5,1.02916674604155,-0.150000007336368,-0.0361111129898289,0.011606439948082,0.01191187184304,-0.000916297896765172
5,1.02361117850853,-0.14583334384257,-0.0513888902767219,0.00366519158706069,0.011606439948082,0.00702495034784079
5,1.01944450285877,-0.14583334384257,-0.0430555572111439,0.00549778714776039,0.0125227374956012,0.00885754637420177
5,1.01666671909226,-0.140277788465518,-0.0513888902767219,0.00580321997404099,-0.00427605677396059,0.0149661982432008
5,1.01666671909226,-0.140277788465518,-0.0513888902767219,0.00885754637420177,-0.0192422550171614,0.01588249579072
5,1.0125000434425,-0.148611115453114,-0.0513888902767219,0.0210748501121998,-0.0256563406437635,0.0161879286170006
5,1.01388893532575,-0.14722222356986,-0.052777782159976,0.0167987942695618,-0.01588249579072,0.0207694191485643
5,1.01388893532575,-0.14722222356986,-0.052777782159976,0.0177150927484035,-0.0198531206697226,0.0204639863222837
5,1.02222228662528,-0.140277788465518,-0.052777782159976,0.00794124789535999,-0.0143553335219622,-0.000610865245107561
5,1.02222228662528,-0.134722233088466,-0.0500000014324589,0.0103847095742822,-0.021685715764761,0.000916297896765172
5,1.02500007039179,-0.144444451959316,-0.0458333348996699,0.00641408516094089,-0.0131336031481624,0.00763581553474069
5,1.02083339474202,-0.14722222356986,-0.0361111129898289,0.0045814891345799,-0.00885754637420177,0.00794124789535999
5,1.01527782720901,-0.14722222356986,-0.03194444645704,-0.0045814891345799,-0.0186313893646002,-0.000916297896765172
5,1.01944450285877,-0.14583334384257,-0.030555557612777,0.00183259579353034,-0.0250454749912024,0.00183259579353034
5,1.02222228662528,-0.144444451959316,-0.027777779924251,0.00702495034784079,-0.0320704244077206,0.00580321997404099
5,1.02361117850853,-0.144444451959316,-0.0361111129898289,0.00549778714776039,-0.0229074470698834,0.0180205255746841
5,1.01805561097552,-0.14722222356986,-0.0388888906783549,0.00183259579353034,-0.02382374368608,0.0192422550171614
5,1.01527782720901,-0.154166670830166,-0.055555559848502,0.0021380283869803,-0.0345138870179653,0.01191187184304
5,1.02500007039179,-0.156944454596674,-0.0486111125881959,0.0125227374956012,-0.0161879286170006,0.0033597587607801
5,1.02083339474202,-0.156944454596674,-0.0416666683668809,0.0213802829384804,-0.00183259579353034,0.00855211354792118
5,1.02222228662528,-0.156944454596674,-0.0361111129898289,0.0247400421649218,-0.0045814891345799,0.0113010071218014
5,1.02083339474202,-0.154166670830166,-0.0388888906783549,0.0302378293126821,-0.00794124789535999,0.00977384392172098
5,1.02083339474202,-0.159722226207217,-0.0472222237439329,0.0369573459029198,-0.0232128798961639,0.00916297826915979
5,1.02500007039179,-0.161111118090472,-0.0486111125881959,0.0381790772080422,-0.00855211354792118,0.00702495034784079
5,1.02500007039179,-0.159722226207217,-0.0361111129898289,0.0494800843298435,0.00152716308366507,-0.00794124789535999
5,1.01944450285877,-0.150000007336368,-0.0375000018340919,0.0488692186772823,0.00580321997404099,0.00580321997404099
5,1.01666671909226,-0.13750000469901,-0.0458333348996699,0.0409279726445675,-0.0149661982432008,0.00702495034784079
5,1.01805561097552,-0.131944449321958,-0.0458333348996699,0.0280998013913631,-0.0171042270958424,-0.00427605677396059
5,1.02083339474202,-0.134722233088466,-0.0402777795226179,0.0348193198442459,-0.0302378293126821,-0.00122173049021512
5,1.02500007039179,-0.141666668192807,-0.0513888902767219,0.0290160998702049,-0.0164933614432812,0.0021380283869803
5,1.02222228662528,-0.14722222356986,-0.0541666679652478,0.0232128798961639,0.00152716308366507,0.00183259579353034
5,1.01666671909226,-0.15555556271342,-0.0402777795226179,0.017409659922123,0.0146607663482428,-0.0045814891345799
5,1.02500007039179,-0.156944454596674,-0.0388888906783549,0.0250454749912024,0.0192422550171614,-0.0033597587607801
5,1.02500007039179,-0.154166670830166,-0.0458333348996699,0.0247400421649218,0.0259617734700441,-0.0152716310694814
5,1.02361117850853,-0.150000007336368,-0.0458333348996699,0.0219911485910416,0.029626963660121,-0.019547687843442
5,1.02222228662528,-0.143055560076062,-0.0416666683668809,0.0201585534960032,0.0259617734700441,-0.0149661982432008
5,1.01944450285877,-0.13750000469901,-0.055555559848502,0.0171042270958424,0.0164933614432812,-0.0100792767480016
5,1.01944450285877,-0.13750000469901,-0.0472222237439329,0.0021380283869803,0.0152716310694814,-0.0171042270958424
5,1.02222228662528,-0.140277788465518,-0.0416666683668809,-0.00488692196086049,0.0177150927484035,-0.0103847095742822
5,1.02222228662528,-0.14722222356986,-0.0458333348996699,-0.00610865233466029,0.02382374368608,-0.00885754637420177
5,1.01527782720901,-0.150000007336368,-0.0472222237439329,0.00366519158706069,0.0161879286170006,-0.011606439948082
5,1.00972225967599,-0.144444451959316,-0.0361111129898289,0.00305432616733015,0.00580321997404099,-0.00977384392172098
5,1.01944450285877,-0.150000007336368,-0.0486111125881959,0.0149661982432008,-0.0033597587607801,-0.0167987942695618
5,1.01944450285877,-0.14583334384257,-0.0472222237439329,0.00671951752156019,0.00671951752156019,-0.0219911485910416
5,1.01666671909226,-0.144444451959316,-0.0486111125881959,0.0113010071218014,0.0140499006956816,-0.0125227374956012
5,1.01944450285877,-0.143055560076062,-0.0486111125881959,0.000305432622553781,0.00824668072164059,-0.0109955742955208
5,1.02083339474202,-0.140277788465518,-0.0472222237439329,-0.00244346098043024,0.00366519158706069,-0.0131336031481624
5,1.02222228662528,-0.14722222356986,-0.0416666683668809,-0.00641408516094089,0.00824668072164059,-0.0192422550171614
5,1.02361117850853,-0.14583334384257,-0.0416666683668809,-0.0027488935738802,0.00916297826915979,-0.0167987942695618
5,1.02361117850853,-0.150000007336368,-0.0361111129898289,-0.00397062394768,0.0164933614432812,-0.0125227374956012
5,1.02222228662528,-0.143055560076062,-0.033333335301303,-0.00702495034784079,0.0226020142436027,-0.0146607663482428
5,1.02500007039179,-0.154166670830166,-0.029166668768514,-0.0021380283869803,0.0161879286170006,-0.011606439948082
5,1.02222228662528,-0.14722222356986,-0.0361111129898289,-0.00122173049021512,0.00427605677396059,-0.0027488935738802
5,1.02222228662528,-0.150000007336368,-0.0430555572111439,-0.0021380283869803,0.000305432622553781,0.000305432622553781
5,1.02500007039179,-0.151388899219622,-0.0472222237439329,-0.00549778714776039,0.0113010071218014,0.00671951752156019
5,1.02083339474202,-0.154166670830166,-0.0444444460554069,-0.00549778714776039,0.017409659922123,0.0027488935738802
5,1.01666671909226,-0.140277788465518,-0.0416666683668809,-0.00244346098043024,0.0106901414692402,-0.00702495034784079
5,1.02083339474202,-0.14583334384257,-0.0486111125881959,0.00733038317412138,0.0106901414692402,0.0045814891345799
5,1.02500007039179,-0.140277788465518,-0.0388888906783549,0.00824668072164059,0.0152716310694814,-0.000610865245107561
5,1.02222228662528,-0.141666668192807,-0.0347222241455659,-0.00183259579353034,0.00580321997404099,-0.00977384392172098
5,1.02222228662528,-0.141666668192807,-0.0347222241455659,-0.0033597587607801,-0.00610865233466029,-0.0027488935738802
5,1.01805561097552,-0.141666668192807,-0.0388888906783549,0.0033597587607801,0.0045814891345799,-0.0109955742955208
5,1.02500007039179,-0.150000007336368,-0.0402777795226179,0.0103847095742822,0.0250454749912024,-0.0106901414692402
5,1.02361117850853,-0.14583334384257,-0.0375000018340919,-0.00183259579353034,0.00946841109544039,-0.00580321997404099
5,1.02222228662528,-0.140277788465518,-0.0430555572111439,0.00397062394768,0.0128281703218818,-0.0140499006956816
5,1.02361117850853,-0.140277788465518,-0.0375000018340919,0.00671951752156019,0.01588249579072,-0.0177150927484035
5,1.01944450285877,-0.141666668192807,-0.0416666683668809,0.00580321997404099,0.015577063895762,-0.013744467869401
5,1.01666671909226,-0.144444451959316,-0.029166668768514,0.000610865245107561,0.00946841109544039,-0.0164933614432812
5,1.01805561097552,-0.144444451959316,-0.0388888906783549,0.00916297826915979,0.00855211354792118,-0.0219911485910416
5,1.02361117850853,-0.14583334384257,-0.0458333348996699,0.0125227374956012,0.011606439948082,-0.0204639863222837
5,1.02222228662528,-0.14583334384257,-0.0458333348996699,0.00946841109544039,0.0201585534960032,-0.0189368221908808
5,1.02222228662528,-0.141666668192807,-0.0458333348996699,0.0045814891345799,0.0164933614432812,-0.015577063895762
5,1.02222228662528,-0.138888896582264,-0.0388888906783549,-0.00519235478714108,0.0143553335219622,-0.0167987942695618
5,1.02083339474202,-0.134722233088466,-0.0347222241455659,-0.0027488935738802,0.00671951752156019,-0.013744467869401
5,1.01805561097552,-0.134722233088466,-0.0375000018340919,-0.0033597587607801,0.0021380283869803,-0.0201585534960032
5,1.01805561097552,-0.138888896582264,-0.0236111118719664,-0.00244346098043024,0.0113010071218014,-0.027488935738802
5,1.02500007039179,-0.134722233088466,-0.03194444645704,-0.00183259579353034,0.0177150927484035,-0.0189368221908808
5,1.02222228662528,-0.131944449321958,-0.0458333348996699,-0.00977384392172098,0.0219911485910416,-0.0244346093386412
5,1.02500007039179,-0.12777778582816,-0.0486111125881959,-0.00885754637420177,0.0244346093386412,-0.0253509078174829
5,1.02083339474202,-0.12916666555545,-0.0375000018340919,-0.00824668072164059,0.021685715764761,-0.0259617734700441
5,1.01527782720901,-0.122222230451108,-0.030555557612777,-0.01191187184304,0.00152716308366507,-0.0271835029125214
5,1.01666671909226,-0.125000002061652,-0.0347222241455659,-0.0143553335219622,-0.00671951752156019,-0.0268780700862408
5,1.01944450285877,-0.131944449321958,-0.0375000018340919,-0.0140499006956816,0.00549778714776039,-0.0311541277915239
5,1.02222228662528,-0.126388893944906,-0.0388888906783549,-0.00855211354792118,0.0109955742955208,-0.0372627787292004
5,1.02361117850853,-0.125000002061652,-0.0458333348996699,-0.0161879286170006,0.0177150927484035,-0.0378736443817616
5,1.02916674604155,-0.1194444466846,-0.0375000018340919,-0.021685715764761,0.0247400421649218,-0.0305432621389627
5,1.02361117850853,-0.122222230451108,-0.0361111129898289,-0.00763581553474069,0.02382374368608,-0.0326812900602817
5,1.02083339474202,-0.123611110178398,-0.03194444645704,-0.00885754637420177,0.013744467869401,-0.0299323964864016
5,1.01805561097552,-0.12916666555545,-0.0388888906783549,-0.0149661982432008,0.0180205255746841,-0.0177150927484035
5,1.02222228662528,-0.130555557438704,-0.0402777795226179,-0.0161879286170006,0.02382374368608,-0.0290160998702049
5,1.02638896227504,-0.12916666555545,-0.0416666683668809,-0.0152716310694814,0.0253509078174829,-0.0326812900602817
5,1.02500007039179,-0.125000002061652,-0.0444444460554069,-0.0180205255746841,0.0305432621389627,-0.0229074470698834
5,1.02500007039179,-0.125000002061652,-0.0486111125881959,-0.0180205255746841,0.029626963660121,-0.0207694191485643
5,1.02222228662528,-0.12777778582816,-0.0361111129898289,-0.0222965814173222,0.0397062413394451,-0.013744467869401
5,1.02638896227504,-0.12777778582816,-0.033333335301303,-0.021685715764761,0.0262672062963247,-0.0109955742955208
5,1.02500007039179,-0.12777778582816,-0.029166668768514,-0.0277943685650826,0.0186313893646002,-0.00824668072164059
5,1.02222228662528,-0.12777778582816,-0.026388891079988,-0.0369573459029198,0.00610865233466029,-0.00824668072164059
5,1.02500007039179,-0.12777778582816,-0.03194444645704,-0.0397062413394451,0.0213802829384804,0.00549778714776039
5,1.02916674604155,-0.125000002061652,-0.027777779924251,-0.0436768643558025,0.0290160998702049,0.00855211354792118
5,1.02500007039179,-0.133333341205212,-0.0236111118719664,-0.0351247526705265,0.0113010071218014,0.00671951752156019
5,1.02916674604155,-0.140277788465518,-0.0236111118719664,-0.0323758572340012,0.00427605677396059,0.0113010071218014
5,1.01944450285877,-0.138888896582264,-0.027777779924251,-0.0342084541916847,0.00580321997404099,0.0277943685650826
5,1.02222228662528,-0.13750000469901,-0.03194444645704,-0.0394008085131645,0.00305432616733015,0.0299323964864016
5,1.01666671909226,-0.14722222356986,-0.0416666683668809,-0.0360410511493683,0.00885754637420177,0.0277943685650826
5,1.01944450285877,-0.14722222356986,-0.0416666683668809,-0.0342084541916847,0.01588249579072,0.0314595587551594
5,1.01666671909226,-0.143055560076062,-0.0250000007162294,-0.0360410511493683,0.015577063895762,0.0198531206697226
5,1.01944450285877,-0.140277788465518,-0.0222222230277034,-0.0143553335219622,0.00519235478714108,0.0140499006956816
5,1.01944450285877,-0.13750000469901,-0.0222222230277034,0.000305432622553781,0.0164933614432812,0.00794124789535999
5,1.02500007039179,-0.131944449321958,-0.0250000007162294,0.000610865245107561,0.0177150927484035,0.0171042270958424
5,1.02222228662528,-0.130555557438704,-0.0152777788063885,0.00549778714776039,0.0146607663482428,0.0149661982432008
5,1.01527782720901,-0.12777778582816,-0.00555555575692586,0.0027488935738802,-0.0140499006956816,0.0113010071218014
5,1.01944450285877,-0.125000002061652,-0.026388891079988,0.0027488935738802,-0.0149661982432008,0.0122173046693206
5,1.02222228662528,-0.12777778582816,-0.029166668768514,-0.0106901414692402,-0.00152716308366507,0.00641408516094089
5,1.02222228662528,-0.126388893944906,-0.0194444453391775,-0.00763581553474069,-0.000610865245107561,-0.000305432622553781
5,1.02222228662528,-0.130555557438704,-0.0166666676506515,-0.00763581553474069,-0.00397062394768,0.0033597587607801
5,1.02500007039179,-0.130555557438704,-0.0222222230277034,-0.00580321997404099,-0.00824668072164059,-0.00641408516094089
5,1.02222228662528,-0.134722233088466,-0.0222222230277034,-0.0045814891345799,-0.00671951752156019,-0.0033597587607801
5,1.01805561097552,-0.131944449321958,-0.029166668768514,-0.00946841109544039,-0.00610865233466029,-0.00763581553474069
5,1.01944450285877,-0.136111112815755,-0.0194444453391775,-0.0152716310694814,0.00488692196086049,-0.0109955742955208
5,1.01944450285877,-0.136111112815755,-0.0194444453391775,-0.0201585534960032,0.00824668072164059,-0.013744467869401
5,1.02222228662528,-0.126388893944906,-0.0152777788063885,-0.019547687843442,-0.00122173049021512,-0.00763581553474069
5,1.02222228662528,-0.12777778582816,-0.0180555564949145,-0.0106901414692402,-0.00855211354792118,-0.00580321997404099
5,1.02916674604155,-0.12777778582816,-0.0208333341834404,-0.0167987942695618,-0.00763581553474069,-0.00671951752156019
5,1.02916674604155,-0.12916666555545,-0.030555557612777,-0.0171042270958424,-0.00671951752156019,-0.00427605677396059
5,1.02638896227504,-0.130555557438704,-0.0194444453391775,-0.00946841109544039,-0.00183259579353034,0.000305432622553781
5,1.02361117850853,-0.136111112815755,-0.029166668768514,-0.00305432616733015,-0.0134390350431204,0.00366519158706069
5,1.02222228662528,-0.136111112815755,-0.0236111118719664,-0.00427605677396059,-0.0180205255746841,0.00549778714776039
5,1.01944450285877,-0.13750000469901,-0.03194444645704,0.0021380283869803,-0.0143553335219622,-0.00671951752156019
5,1.02361117850853,-0.131944449321958,-0.026388891079988,0.00397062394768,-0.00855211354792118,-0.00671951752156019
5,1.02222228662528,-0.126388893944906,-0.03194444645704,0.0177150927484035,-0.00916297826915979,-0.00519235478714108
5,1.02222228662528,-0.133333341205212,-0.03194444645704,0.0287106670439243,-0.0171042270958424,0.0125227374956012
5,1.01944450285877,-0.134722233088466,-0.029166668768514,0.0332921557128429,-0.0180205255746841,0.00305432616733015
5,1.01805561097552,-0.133333341205212,-0.0222222230277034,0.0332921557128429,-0.0143553335219622,-0.00855211354792118
5,1.01944450285877,-0.130555557438704,-0.027777779924251,0.0342084541916847,-0.0335975885391235,-0.00916297826915979
