Activity,acc_x,acc_y,acc_z,gyro_x,gyro_y,gyro_z
0,0.295833339022973,0.0416666683668809,0.965277816659576,0.00794124789535999,0.0766635909676552,0.0507018156349659
0,0.327777779402031,0.026388891079988,0.947222222177272,0.0164933614432812,0.0186313893646002,0.0232128798961639
0,0.325000019947452,0.0222222230277034,0.954166681593543,-0.0192422550171614,-0.0320704244077206,-0.00427605677396059
0,0.325000019947452,0.0222222230277034,0.954166681593543,-0.0192422550171614,-0.0320704244077206,-0.00427605677396059
0,0.325000019947452,0.0222222230277034,0.954166681593543,-0.0213802829384804,0.0442877300083637,-0.0226020142436027
0,0.319444452414435,0.0250000007162294,0.952777789710289,-0.0134390350431204,0.02382374368608,-0.0311541277915239
0,0.313888909193348,0.026388891079988,0.959722249126559,-0.0143553335219622,-0.0100792767480016,-0.0226020142436027
0,0.315277801076602,0.029166668768514,0.944444438410764,-0.0192422550171614,-0.0122173046693206,-0.0189368221908808
0,0.304166666010569,0.029166668768514,0.948611114060526,-0.01588249579072,-0.0403171069920063,0.00183259579353034
0,0.306944449777077,0.03194444645704,0.945833330294018,-0.00855211354792118,-0.00519235478714108,-0.0244346093386412
0,0.311111125426839,0.029166668768514,0.951388897827035,-0.0109955742955208,-0.00855211354792118,-0.0180205255746841
0,0.301388906555989,0.026388891079988,0.940277860008718,-0.0149661982432008,0.0143553335219622,-0.0146607663482428
0,0.294444447139719,0.0347222241455659,0.940277860008718,-0.00427605677396059,0.0201585534960032,0.00366519158706069
0,0.294444447139719,0.0347222241455659,0.940277860008718,-0.00519235478714108,-0.00305432616733015,-0.00366519158706069
0,0.302777798439244,0.0388888906783549,0.956944465360051,-0.015577063895762,-0.0372627787292004,-0.0143553335219622
0,0.315277801076602,0.03194444645704,0.95000000594378,-0.00733038317412138,-0.0415388382971287,-0.0311541277915239
0,0.305555557893823,0.030555557612777,0.941666654644256,-0.0164933614432812,-0.0103847095742822,-0.0287106670439243
0,0.305555557893823,0.027777779924251,0.933333400592447,-0.0335975885391235,-0.02382374368608,-0.00366519158706069
0,0.293055555256465,0.0236111118719664,0.934722292475701,-0.0494800843298435,-0.0335975885391235,0.0219911485910416
0,0.312500017310094,0.0208333341834404,0.961111141009813,-0.0201585534960032,0.0354301854968071,0.00549778714776039
0,0.319444452414435,0.0208333341834404,0.96666670854283,0.0381790772080422,0.015577063895762,-0.0164933614432812
0,0.306944449777077,0.0250000007162294,0.947222222177272,0.03176499158144,-0.0192422550171614,-0.0177150927484035
0,0.305555557893823,0.0222222230277034,0.945833330294018,0.0268780700862408,-0.00977384392172098,-0.037568211555481
0,0.308333341660331,0.0222222230277034,0.933333400592447,0.011606439948082,-0.00977384392172098,-0.0302378293126821
0,0.312500017310094,0.0250000007162294,0.947222222177272,0.0122173046693206,-0.015577063895762,-0.0256563406437635
0,0.302777798439244,0.0250000007162294,0.947222222177272,0.0323758572340012,-0.00977384392172098,-0.0106901414692402
0,0.302777798439244,0.0250000007162294,0.947222222177272,0.0305432621389627,0.0113010071218014,0.00244346098043024
0,0.308333341660331,0.029166668768514,0.951388897827035,0.000916297896765172,0.0418442711234093,-0.0122173046693206
0,0.318055560531181,0.0222222230277034,0.94305554652751,-0.00397062394768,0.0723875313997269,-0.02382374368608
0,0.313888909193348,0.027777779924251,0.945833330294018,0.00702495034784079,0.0488692186772823,-0.0207694191485643
0,0.301388906555989,0.0388888906783549,0.940277860008718,0.0546724386513233,-0.00427605677396059,-0.0415388382971287
0,0.301388906555989,0.0458333348996699,0.944444438410764,0.0592539273202419,-0.0265726372599602,-0.0335975885391235
0,0.298611122789481,0.0458333348996699,0.948611114060526,0.0247400421649218,-0.0201585534960032,-0.03176499158144
0,0.298611122789481,0.0458333348996699,0.948611114060526,0.00794124789535999,-0.01588249579072,-0.0299323964864016
0,0.301388906555989,0.03194444645704,0.95000000594378,-0.0100792767480016,-0.0403171069920063,-0.0189368221908808
0,0.295833339022973,0.0250000007162294,0.940277860008718,-0.00519235478714108,-0.0213802829384804,-0.0244346093386412
0,0.308333341660331,0.0250000007162294,0.934722292475701,-0.00977384392172098,-0.0171042270958424,0.00610865233466029
0,0.29166668768514,0.03194444645704,0.94305554652751,0.0033597587607801,-0.0442877300083637,0.0558941699564457
0,0.277777793164528,0.029166668768514,0.94305554652751,-0.0519235469400883,-0.147218525409698,0.0699440687894821
0,0.327777779402031,0.00972222266958873,0.956944465360051,-0.0574213340878487,-0.0965167060494423,0.01191187184304
0,0.330555563168539,0.00555555575692586,0.954166681593543,-0.0778853222727776,-0.0424551330506802,-0.0455094613134861
0,0.312500017310094,0.0125000003581147,0.95000000594378,-0.0956004112958908,0.00397062394768,-0.0418442711234093
0,0.308333341660331,0.0152777788063885,0.934722292475701,-0.0995710343122482,-0.0858265683054924,-0.0534507073462009
0,0.315277801076602,0.00833333382532574,0.940277860008718,-0.0742201283574104,0.0027488935738802,-0.0711658000946045
0,0.311111125426839,0.00694444498106275,0.933333400592447,-0.0424551330506802,0.0733038261532784,-0.0766635909676552
0,0.318055560531181,0.00138888893923146,0.93750007624221,-0.027488935738802,0.0372627787292004,-0.0821613743901253
0,0.326388911830706,0.00138888893923146,0.956944465360051,0.0348193198442459,0.000610865245107561,-0.0580321997404099
0,0.323611128064198,0.00138888893923146,0.951388897827035,0.0629191175103188,-0.0360410511493683,-0.0189368221908808
0,0.315277801076602,0.00277777787846293,0.951388897827035,0.0665843114256859,0.0934623852372169,0.0241291765123606
0,0.315277801076602,0.00833333382532574,0.968055600426084,0.0332921557128429,0.178067222237587,0.0320704244077206
0,0.313888909193348,0.0222222230277034,0.973611167959101,0.0351247526705265,0.0534507073462009,0.0268780700862408
0,0.319444452414435,0.0222222230277034,0.962500032893068,0.0549778714776039,-0.0455094613134861,-0.00946841109544039
0,0.306944449777077,0.0222222230277034,0.986111194908388,0.0507018156349659,0.0143553335219622,-0.0470366254448891
0,0.306944449777077,0.0222222230277034,0.986111194908388,-0.00671951752156019,0.0607810914516449,-0.0620028227567673
0,0.306944449777077,0.0152777788063885,0.952777789710289,-0.0729983970522881,0.0589484944939613,-0.111482910811901
0,0.306944449777077,0.0152777788063885,0.952777789710289,-0.0546724386513233,-0.029626963660121,-0.104763388633728
0,0.293055555256465,0.00972222266958873,0.930555616825939,-0.0244346093386412,-0.0620028227567673,-0.108428582549095
0,0.290277795801886,0.00555555575692586,0.933333400592447,0.0033597587607801,-0.0705549344420433,-0.0995710343122482
0,0.290277795801886,0.00555555575692586,0.933333400592447,-0.00946841109544039,-0.0723875313997269,-0.0882700309157372
0,0.298611122789481,0.00277777787846293,0.919444481759906,-0.0198531206697226,-0.04764748737216,-0.10567969083786
0,0.305555557893823,0.00277777787846293,0.915277806110144,-0.019547687843442,0.0210748501121998,-0.112704634666443
0,0.305555557893823,0.00277777787846293,0.915277806110144,-0.0397062413394451,0.11117747426033,-0.0678060427308083
0,0.283333336385615,0.00277777787846293,0.945833330294018,0.0244346093386412,0.120645888149738,-0.0345138870179653
0,0.288888903918631,0.00277777787846293,0.95000000594378,0.0546724386513233,0.108123145997524,-0.0351247526705265
0,0.295833339022973,0.00277777787846293,0.965277816659576,0.105374254286289,0.102319926023483,-0.00366519158706069
0,0.288888903918631,0.00277777787846293,0.962500032893068,0.0830776765942574,0.209221348166466,0.0287106670439243
0,0.286111120152123,0.00277777787846293,0.962500032893068,0.0222965814173222,0.175318330526352,0.0537561401724815
0,0.281944444502361,-0.00138888893923146,0.969444492309338,0.00427605677396059,0.149661988019943,0.0806342139840126
0,0.279166685047782,0.0111111115138517,0.965277816659576,0.103236228227615,0.184786736965179,0.0873537287116051
0,0.288888903918631,0.00833333382532574,0.973611167959101,0.228463605046272,0.181426972150803,0.0842994004487991
0,0.269444466176932,0.00277777787846293,0.961111141009813,0.266337245702743,0.0668897479772568,0.409585148096085
0,0.229166674498349,0.00972222266958873,0.898611103511094,-0.27458393573761,-0.948062837123871,0.635605275630951
0,0.323611128064198,0.00694444498106275,0.880555606276507,-0.327118337154388,-0.355523586273193,0.441655576229096
0,0.33750002258481,-0.0152777788063885,0.869444471210474,-0.29596421122551,-0.0656680166721344,0.5555819272995
0,0.281944444502361,-0.00416666691266287,0.877777822509998,-0.291382730007172,-0.160352125763893,0.762359797954559
0,0.327777779402031,-0.00555555575692586,0.887500065692777,-0.350636661052704,0.221438646316528,0.674395203590393
0,0.397222227693163,-0.0361111129898289,0.962500032893068,-0.237321153283119,0.513126790523529,0.523511528968811
0,0.415277797863537,-0.0694444482911319,1.02777785415829,-0.0415388382971287,0.357967019081116,0.477391183376312
0,0.380555573717971,-0.100000002864918,0.973611167959101,0.0164933614432812,0.0598647929728031,0.492968261241913
0,0.33750002258481,-0.131944449321958,0.930555616825939,0.0656680166721344,0.00427605677396059,0.565661191940308
0,0.355555568443255,-0.115277783190802,0.986111194908388,0.153938040137291,0.159741267561913,0.67836582660675
0,0.237500001485945,-0.0902777839940679,1.05833337834217,0.343611687421799,0.189979091286659,0.822224617004395
0,0.227777782615095,-0.0250000007162294,1.00694447590948,0.378125578165054,0.171347707509995,1.00792765617371
0,0.272222225631511,-0.029166668768514,0.931944508709193,0.186924770474434,-0.215024560689926,0.918435871601105
0,0.270833333748257,-0.0416666683668809,0.899999995394348,0.103541657328606,-0.473726004362106,1.11269104480743
0,0.358333352209763,-0.0777777813567098,0.89722221162784,0.102014496922493,-0.342084527015686,0.92607170343399
0,0.384722225055805,-0.101388894748172,0.927777833059431,0.172874867916107,0.457538068294525,0.769079327583313
0,0.386111116939059,-0.118055554801345,0.968055600426084,0.262061178684235,0.664010524749756,0.629802048206329
0,0.336111130701556,-0.0944444474878658,0.991666665193688,0.278554558753967,0.453567445278168,0.577878534793854
0,0.283333336385615,-0.0736111117849297,1.00972225967599,0.342084527015686,0.591928422451019,0.541532039642334
0,0.25555557165632,-0.0625000010308258,1.00138890837647,0.354607284069061,0.904385983943939,0.564744889736176
0,0.211111128639904,-0.055555559848502,0.986111194908388,0.24342979490757,0.690277755260468,0.568104684352875
0,0.170833336961321,-0.0430555572111439,0.959722249126559,0.0418442711234093,0.162490159273148,0.632245540618896
0,0.187500003092477,-0.0486111125881959,0.99583334084345,0.0314595587551594,0.156992360949516,0.671951770782471
0,0.215277779977737,-0.0486111125881959,1.08055555122652,0.317649930715561,0.249233022332191,0.610865235328674
0,0.252777787889811,-0.0500000014324589,1.06111116210868,0.489913940429688,0.151494577527046,0.612086951732635
0,0.229166674498349,-0.0652777787193518,1.02916674604155,0.538783133029938,-0.265420943498612,0.641713917255402
0,0.188888894975731,-0.00972222266958873,0.968055600426084,0.452040284872055,-0.0106901414692402,0.693942904472351
0,0.181944447715425,0.0444444460554069,0.972222276075846,0.467006474733353,0.0381790772080422,0.552527606487274
0,0.227777782615095,0.0375000018340919,0.941666654644256,0.350636661052704,0.129197999835014,0.415388375520706
0,0.236111109602691,0.0694444482911319,1.00555558402623,0.474947720766068,0.310014098882675,0.314595609903336
0,0.265277790527169,0.0652777787193518,1.01944450285877,0.587652385234833,0.344222575426102,0.125227376818657
0,0.20138889761309,0.0861111144222878,1.02500007039179,0.726318776607513,0.332310706377029,0.162490159273148
0,0.134722233088466,0.131944449321958,1.01527782720901,0.841466903686523,0.193338856101036,0.217162594199181
0,0.0833333367337618,0.175000000455119,0.961111141009813,0.668897449970245,-0.135917514562607,0.34391713142395
0,0.0875000002275597,0.180555567988136,0.948611114060526,0.50182580947876,-0.0342084541916847,0.448069661855698
0,0.143055560076062,0.148611115453114,0.963888924776322,0.275194793939591,-0.152410879731178,0.458759784698486
0,0.2194444556275,0.116666675074056,0.952777789710289,0.0290160998702049,-0.35430184006691,0.313679307699203
0,0.24583335278547,0.0944444474878658,0.95000000594378,0.0409279726445675,-0.173180297017098,0.198531210422516
0,0.24583335278547,0.0944444474878658,0.95000000594378,0.275805652141571,-0.0250454749912024,0.149051114916802
0,0.162500009973726,0.140277788465518,0.908333346693873,0.191506251692772,-0.0769690200686455,0.267864406108856
0,0.162500009973726,0.140277788465518,0.908333346693873,0.087659165263176,-0.226020142436027,0.205250725150108
0,0.230555566381603,0.120833338567854,0.930555616825939,0.0442877300083637,-0.219911485910416,0.128587126731873
0,0.248611112240049,0.111111119697004,0.936111184358955,0.0974330082535744,-0.26419922709465,0.102625362575054
0,0.248611112240049,0.111111119697004,0.936111184358955,0.155465200543404,-0.437990367412567,0.0870482996106148
0,0.243055569018962,0.12777778582816,0.922222265526414,0.0867428630590439,-0.484416127204895,0.0980438739061356
0,0.243055569018962,0.12777778582816,0.922222265526414,-0.00244346098043024,-0.318566232919693,0.0800233483314514
0,0.243055569018962,0.12777778582816,0.922222265526414,-0.0607810914516449,-0.149661988019943,0.0650571510195732
0,0.243055569018962,0.12777778582816,0.922222265526414,-0.0369573459029198,-0.0809396430850029,0.0601702257990837
0,0.259722222994153,0.104166672436698,0.956944465360051,-0.110261179506779,-0.375071257352829,-0.0516181141138077
0,0.244444460902216,0.118055554801345,0.959722249126559,-0.153632611036301,-0.568410098552704,-0.098960168659687
0,0.244444460902216,0.118055554801345,0.959722249126559,-0.104152522981167,-0.418442696332932,0.0977384373545647
0,0.20138889761309,0.101388894748172,0.963888924776322,-0.0613919571042061,-0.175623759627342,0.076052725315094
0,0.20138889761309,0.101388894748172,0.963888924776322,0.0494800843298435,-0.0491746515035629,0.0128281703218818
0,0.320833344297689,0.0375000018340919,0.959722249126559,0.11117747426033,-0.0125227374956012,-0.0778853222727776
0,0.295833339022973,0.0513888902767219,0.916666697993398,0.0638354197144508,-0.0128281703218818,-0.10567969083786
0,0.269444466176932,0.0722222259796579,0.916666697993398,-0.0284052342176437,-0.104152522981167,-0.0959058403968811
0,0.29166668768514,0.0763888894734557,0.913888914226889,-0.128587126731873,-0.22693644464016,-0.0949895456433296
0,0.286111120152123,0.0680555564078778,0.923611157409668,-0.147829383611679,-0.05283984541893,-0.0998764708638191
0,0.315277801076602,0.0638888929140799,0.940277860008718,-0.110261179506779,-0.0219911485910416,-0.189062789082527
0,0.284722228268869,0.0513888902767219,0.933333400592447,-0.18509216606617,-0.0699440687894821,-0.190895393490791
0,0.268055574293678,0.055555559848502,0.947222222177272,-0.325896620750427,-0.0827722400426865,-0.182343274354935
0,0.265277790527169,0.0513888902767219,0.956944465360051,-0.288939267396927,-0.16371189057827,-0.150272846221924
0,0.265277790527169,0.0513888902767219,0.956944465360051,-0.2165517359972,-0.196393176913261,-0.171958565711975
0,0.276388901281273,0.0236111118719664,0.973611167959101,-0.113010071218014,-0.294437050819397,-0.16890424489975
0,0.308333341660331,0.030555557612777,0.95000000594378,-0.129197999835014,-0.0629191175103188,-0.191506251692772
0,0.29166668768514,0.0375000018340919,0.93750007624221,-0.156992360949516,0.127976268529892,-0.145385921001434
0,0.294444447139719,0.0375000018340919,0.925000049292922,-0.0998764708638191,0.019547687843442,-0.186313897371292
0,0.308333341660331,0.0194444453391775,0.911111130460381,-0.0812450796365738,-0.0229074470698834,-0.197614908218384
0,0.297222230906227,0.0152777788063885,0.901388887277602,0.248927593231201,0.0418442711234093,-0.269391566514969
0,0.297222230906227,0.0152777788063885,0.901388887277602,0.367740869522095,0.0384845100343227,-0.300545692443848
0,0.350000000910239,0.0250000007162294,0.95000000594378,0.297491371631622,-0.109650313854218,-0.311235845088959
0,0.312500017310094,0.0583333375370279,0.983333411141879,0.0717766657471657,-0.021685715764761,-0.225714713335037
0,0.312500017310094,0.0583333375370279,0.983333411141879,-0.153938040137291,0.100792765617371,-0.268475264310837
0,0.269444466176932,0.0666666706026059,0.969444492309338,-0.215024560689926,0.00488692196086049,-0.29657506942749
0,0.284722228268869,0.0625000010308258,0.93750007624221,0.0485637858510017,0.0311541277915239,-0.262672066688538
0,0.298611122789481,0.0625000010308258,0.94305554652751,0.140499010682106,-0.135612085461616,-0.277332812547684
0,0.304166666010569,0.0986111170596459,0.962500032893068,0.132863193750381,-0.138055548071861,-0.204945296049118
0,0.304166666010569,0.0986111170596459,0.962500032893068,0.0277943685650826,-0.0360410511493683,-0.121256753802299
0,0.327777779402031,0.0944444474878658,0.951388897827035,-0.124921940267086,0.18020524084568,-0.0867428630590439
0,0.327777779402031,0.0944444474878658,0.951388897827035,-0.078801617026329,0.211664810776711,-0.0992656052112579
0,0.305555557893823,0.0930555616825939,0.926388941176177,-0.0494800843298435,0.167987942695618,-0.0852157026529312
0,0.29166668768514,0.0958333393711199,0.93750007624221,0.0418442711234093,-0.0525344125926495,-0.119118720293045
0,0.283333336385615,0.0777777813567098,0.947222222177272,0.0827722400426865,0.00610865233466029,-0.104763388633728
0,0.269444466176932,0.0736111117849297,0.951388897827035,0.0610865242779255,0.176845490932465,-0.110566608607769
0,0.268055574293678,0.0722222259796579,0.955555573476797,0.212886542081833,0.173180297017098,-0.0992656052112579
0,0.276388901281273,0.0847222225390337,0.969444492309338,0.229074463248253,0.114231802523136,-0.0604756586253643
0,0.275000009398019,0.0916666697993398,0.963888924776322,0.135001212358475,0.0910189226269722,-0.0427605658769607
0,0.281944444502361,0.0805555590452358,0.959722249126559,0.0620028227567673,0.0418442711234093,-0.029626963660121
0,0.263888898643915,0.0833333367337618,0.972222276075846,0.00183259579353034,0.0678060427308083,-0.0592539273202419
0,0.243055569018962,0.0847222225390337,0.962500032893068,0.0262672062963247,0.0589484944939613,-0.0482583530247212
0,0.248611112240049,0.0916666697993398,0.96666670854283,0.0464257597923279,0.0277943685650826,-0.0568104684352875
0,0.25555557165632,0.0888888921108138,0.970833384192592,0.0357356183230877,-0.128587126731873,-0.0717766657471657
0,0.286111120152123,0.108333335930496,0.962500032893068,0.0647517144680023,-0.423940479755402,-0.0555887371301651
0,0.329166671285285,0.12777778582816,0.947222222177272,-0.0308486949652433,-0.328645497560501,0.0503963828086853
0,0.325000019947452,0.12777778582816,0.962500032893068,-0.118202425539494,-0.0488692186772823,0.05283984541893
0,0.308333341660331,0.126388893944906,0.95000000594378,-0.160352125763893,0.00916297826915979,0.0287106670439243
0,0.308333341660331,0.126388893944906,0.95000000594378,-0.0974330082535744,-0.078801617026329,-0.05283984541893
0,0.273611117514765,0.0916666697993398,0.93750007624221,-0.0662788823246956,-0.30695977807045,-0.115453533828259
0,0.277777793164528,0.0847222225390337,0.965277816659576,0.0565050356090069,-0.486248731613159,-0.0824668109416962
0,0.302777798439244,0.0930555616825939,0.947222222177272,0.0858265683054924,-0.297796815633774,-0.0470366254448891
0,0.312500017310094,0.101388894748172,0.962500032893068,0.0726929605007172,-0.294131606817245,-0.0552833043038845
0,0.316666668647927,0.10972222781375,0.941666654644256,0.0387899428606033,-0.195171445608139,-0.0803287774324417
0,0.326388911830706,0.123611110178398,0.922222265526414,0.00397062394768,-0.0546724386513233,-0.0500909499824047
0,0.33750002258481,0.113888891307548,0.923611157409668,0.0546724386513233,-0.0311541277915239,-0.0146607663482428
0,0.325000019947452,0.101388894748172,0.930555616825939,0.0766635909676552,-0.1750128865242,-0.0800233483314514
0,0.286111120152123,0.0861111144222878,0.936111184358955,0.0836885422468185,-0.429743707180023,-0.157297804951668
0,0.301388906555989,0.0902777839940679,0.95000000594378,0.107206851243973,-0.509156167507172,-0.191506251692772
0,0.33750002258481,0.105555564319952,0.936111184358955,0.108734011650086,-0.38117989897728,-0.142942473292351
0,0.370833354847121,0.112499999424294,0.922222265526414,0.0745255574584007,-0.330783516168594,-0.0812450796365738
0,0.370833354847121,0.112499999424294,0.922222265526414,0.0464257597923279,-0.282830595970154,-0.0329867228865623
0,0.377777789951463,0.111111119697004,0.901388887277602,0.0207694191485643,-0.0977384373545647,-0.140499010682106
0,0.290277795801886,0.106944444047242,0.926388941176177,-0.0100792767480016,0.00671951752156019,-0.176540061831474
0,0.334722238818301,0.108333335930496,0.95000000594378,-0.115148097276688,0.0305432621389627,-0.1795943826437
0,0.383333357484479,0.126388893944906,0.956944465360051,-0.0348193198442459,-0.0229074470698834,-0.108123145997524
0,0.390277792588821,0.13750000469901,0.922222265526414,-0.0302378293126821,0.0122173046693206,-0.05283984541893
0,0.377777789951463,0.130555557438704,0.902777779160856,0.029626963660121,0.106595985591412,-0.0485637858510017
0,0.361111135976272,0.130555557438704,0.899999995394348,0.0201585534960032,0.135306656360626,-0.0268780700862408
0,0.361111135976272,0.130555557438704,0.899999995394348,-0.0561996027827263,0.0577267669141293,-0.0500909499824047
0,0.369444462963867,0.130555557438704,0.93750007624221,-0.107206851243973,0.107512280344963,-0.05283984541893
0,0.376388898068209,0.130555557438704,0.940277860008718,-0.0412334054708481,0.248316720128059,-0.0262672062963247
0,0.376388898068209,0.130555557438704,0.940277860008718,-0.0671951770782471,0.167987942695618,-0.0103847095742822
0,0.354166676560001,0.130555557438704,0.947222222177272,-0.0671951770782471,0.0589484944939613,-0.0494800843298435
0,0.340277782039389,0.115277783190802,0.915277806110144,-0.0745255574584007,-0.0253509078174829,-0.0363464802503586
0,0.338888890156135,0.10972222781375,0.915277806110144,-0.013744467869401,0.0247400421649218,0.00366519158706069
0,0.358333352209763,0.10972222781375,0.929166724942685,0.0287106670439243,0.098960168659687,0.0403171069920063
0,0.352777784676747,0.111111119697004,0.918055589876652,0.011606439948082,0.130419731140137,0.0397062413394451
0,0.341666673922643,0.118055554801345,0.925000049292922,-0.0394008085131645,0.113926365971565,0.0241291765123606
0,0.348611133338914,0.113888891307548,0.933333400592447,-0.0189368221908808,-0.100792765617371,-0.00671951752156019
0,0.334722238818301,0.0972222251763917,0.933333400592447,0.00305432616733015,-0.135306656360626,-0.0180205255746841
0,0.347222241455659,0.0930555616825939,0.940277860008718,0.0497855171561241,-0.0229074470698834,-0.01191187184304
0,0.331944455051793,0.101388894748172,0.956944465360051,0.0348193198442459,0.00763581553474069,-0.0213802829384804
0,0.333333346935047,0.104166672436698,0.948611114060526,-0.0280998013913631,-0.0815505087375641,-0.0287106670439243
0,0.333333346935047,0.104166672436698,0.948611114060526,0.0146607663482428,-0.143553331494331,-0.0604756586253643
0,0.331944455051793,0.0972222251763917,0.92083337364316,0.0595593601465225,-0.196087747812271,-0.0659734457731247
0,0.33750002258481,0.0958333393711199,0.92083337364316,0.0803287774324417,-0.172874867916107,-0.0687223374843597
0,0.352777784676747,0.101388894748172,0.92083337364316,0.0467311926186085,-0.167377084493637,-0.0335975885391235
0,0.370833354847121,0.120833338567854,0.916666697993398,-0.0198531206697226,-0.120035022497177,-0.0256563406437635
0,0.375000006184955,0.113888891307548,0.927777833059431,0.0574213340878487,-0.135612085461616,-0.0879645943641663
0,0.329166671285285,0.101388894748172,0.923611157409668,0.135306656360626,-0.138666406273842,-0.167377084493637
0,0.322222236180943,0.104166672436698,0.930555616825939,0.0934623852372169,-0.173791155219078,-0.113620936870575
0,0.370833354847121,0.130555557438704,0.95000000594378,0.0519235469400883,-0.037568211555481,-0.0186313893646002
0,0.412500014097029,0.143055560076062,0.95000000594378,-0.0806342139840126,-0.0525344125926495,0.0390953756868839
0,0.404166687109433,0.154166670830166,0.930555616825939,-0.16890424489975,-0.146913096308708,0.0589484944939613
0,0.393055576355329,0.144444451959316,0.92083337364316,-0.136528387665749,-0.131030589342117,0.0494800843298435
0,0.365277787314105,0.118055554801345,0.911111130460381,-0.0033597587607801,-0.125227376818657,-0.00824668072164059
0,0.358333352209763,0.104166672436698,0.916666697993398,0.0442877300083637,-0.0974330082535744,-0.0149661982432008
0,0.368055571080613,0.106944444047242,0.933333400592447,0.0537561401724815,0.0100792767480016,0.00183259579353034
0,0.377777789951463,0.116666675074056,0.916666697993398,0.0027488935738802,-0.119424156844616,0.0354301854968071
0,0.393055576355329,0.126388893944906,0.909722238577127,-0.0711658000946045,-0.283746898174286,0.0601702257990837
0,0.411111122213775,0.12777778582816,0.915277806110144,-0.22754730284214,-0.496633440256119,0.101098194718361
0,0.420833365396554,0.123611110178398,0.923611157409668,-0.238848313689232,-0.620639085769653,0.0699440687894821
0,0.420833365396554,0.123611110178398,0.923611157409668,-0.284663200378418,-0.59803706407547,-0.184175878763199
0,0.548611126912784,0.00277777787846293,0.856944444261187,-0.308792382478714,-0.961501896381378,-0.153632611036301
0,0.456944457113445,0.120833338567854,0.919444481759906,-0.451429426670075,-1.76204085350037,0.0381790772080422
0,0.52083333787156,0.0944444474878658,0.969444492309338,-0.722348153591156,-2.50179862976074,0.180816113948822
0,0.533333364820847,0.14583334384257,0.99583334084345,-0.961196482181549,-2.31609559059143,0.352469235658646
0,0.527777797287831,0.0972222251763917,0.977777843608863,-1.01159286499023,-1.32038521766663,0.312763005495071
0,0.536111148587356,0.0388888906783549,0.886111173809523,-0.963334500789642,-0.873231887817383,0.299323976039886
0,0.543055559379768,0.00555555575692586,0.805555590452358,-0.821919202804565,-0.784045517444611,0.345749735832214
0,0.562499997121468,-0.0152777788063885,0.772222233878117,-0.701273322105408,-0.404698222875595,0.38117989897728
0,0.565277780887976,-0.0361111129898289,0.758333363669434,-0.559858024120331,0.01191187184304,0.336281329393387
0,0.545833343146276,-0.0583333375370279,0.740277817810989,-0.366519153118133,0.455400049686432,0.320704251527786
0,0.530555581054339,-0.0611111152255539,0.752777796136418,-0.162490159273148,0.790154218673706,0.152716308832169
0,0.527777797287831,-0.0625000010308258,0.768055606852213,0.258090555667877,1.04060900211334,0.0937678143382072
0,0.522222229754814,-0.0583333375370279,0.779166693294388,0.552222192287445,1.17133414745331,0.0668897479772568
0,0.513888927079148,-0.0611111152255539,0.794444455386325,0.52870386838913,1.21501100063324,0.0794124826788902
0,0.488888921804431,-0.0402777795226179,0.833333379493583,0.452956587076187,1.35001218318939,0.0384845100343227
0,0.473611111088636,-0.030555557612777,0.848611190209378,0.483194410800934,1.74096596240997,0.0226020142436027
0,0.441666695021508,-0.0194444453391775,0.847222298326124,0.569020986557007,2.24828958511352,0.0326812900602817
0,0.418055581630046,0.00694444498106275,0.869444471210474,0.675006091594696,2.4590380191803,0.0858265683054924
0,0.387500008822313,0.029166668768514,0.886111173809523,0.598647952079773,1.56198239326477,-0.0345138870179653
0,0.376388898068209,0.029166668768514,0.876388930626744,0.461508691310883,1.2345587015152,-0.0558941699564457
0,0.333333346935047,0.0222222230277034,0.877777822509998,0.50335294008255,1.60168862342834,-0.141109868884087
0,0.298611122789481,0.0458333348996699,0.906944454810619,0.540004849433899,1.67957401275635,-0.129503428936005
0,0.279166685047782,0.0652777787193518,0.931944508709193,0.48136180639267,1.06504356861115,-0.107206851243973
0,0.269444466176932,0.0680555564078778,0.927777833059431,0.382707089185715,0.532674491405487,-0.0610865242779255
0,0.254166679773066,0.0750000036681839,0.947222222177272,0.263893783092499,-0.00519235478714108,-0.011606439948082
0,0.261111114877407,0.0708333340964038,0.956944465360051,0.209526777267456,-0.646295428276062,0.0665843114256859
0,0.283333336385615,0.0777777813567098,0.955555573476797,0.114231802523136,-0.631940066814423,0.102625362575054
0,0.275000009398019,0.0916666697993398,0.969444492309338,-0.00702495034784079,-0.574824213981628,0.130725160241127
0,0.275000009398019,0.0986111170596459,0.977777843608863,-0.0103847095742822,-0.656069278717041,0.138971850275993
0,0.318055560531181,0.0861111144222878,0.98888888142718,0.157908663153648,-0.759610950946808,0.140499010682106
0,0.312500017310094,0.0916666697993398,0.983333411141879,0.24862214922905,-0.701884150505066,0.220522359013557
0,0.298611122789481,0.0972222251763917,0.96666670854283,0.247094988822937,-0.157908663153648,0.207388743758202
0,0.330555563168539,0.0583333375370279,0.961111141009813,0.171042263507843,0.237015709280968,0.213802829384804
0,0.366666679197359,0.0583333375370279,0.94305554652751,0.138360977172852,0.0152716310694814,0.0647517144680023
0,0.387500008822313,0.0666666706026059,0.915277806110144,0.203112691640854,-0.387288570404053,-0.00641408516094089
0,0.350000000910239,0.0583333375370279,0.915277806110144,0.211664810776711,-0.456316351890564,0.0519235469400883
0,0.331944455051793,0.0708333340964038,0.913888914226889,0.151800006628036,-0.38576140999794,0.0418442711234093
0,0.333333346935047,0.0819444448505077,0.927777833059431,0.129197999835014,-0.257785141468048,0.0543670058250427
0,0.351388892793493,0.0777777813567098,0.93750007624221,0.16951510310173,-0.285884946584701,0.0348193198442459
0,0.327777779402031,0.0750000036681839,0.933333400592447,0.183870434761047,0.153021737933159,0.160352125763893
0,0.304166666010569,0.0847222225390337,0.92083337364316,0.137750118970871,0.277027398347855,0.0794124826788902
0,0.338888890156135,0.130555557438704,0.93750007624221,0.239153742790222,0.0861319974064827,0.0833831056952477
0,0.383333357484479,0.104166672436698,0.926388941176177,0.258090555667877,0.0360410511493683,0.0711658000946045
0,0.383333357484479,0.0944444474878658,0.913888914226889,0.219300627708435,-0.0430659987032413,0.107512280344963
0,0.340277782039389,0.0972222251763917,0.87500003874349,0.0986547395586967,0.0616973899304867,0.124921940267086
0,0.281944444502361,0.118055554801345,0.883333390043015,-0.00305432616733015,-0.00702495034784079,0.173791155219078
0,0.290277795801886,0.116666675074056,0.894444525109048,0.0125227374956012,0.0287106670439243,0.121256753802299
0,0.395833335809908,0.111111119697004,0.934722292475701,0.0922406539320946,-0.102014496922493,0.0705549344420433
0,0.402777795226179,0.0875000002275597,0.936111184358955,0.124005645513535,0.00397062394768,0.0543670058250427
0,0.384722225055805,0.0916666697993398,0.936111184358955,0.208610475063324,0.0519235469400883,-0.00305432616733015
0,0.318055560531181,0.116666675074056,0.983333411141879,0.291382730007172,0.00366519158706069,-0.0510072484612465
0,0.344444457689151,0.118055554801345,0.952777789710289,0.262366622686386,-0.0247400421649218,-0.0372627787292004
0,0.343055565805897,0.123611110178398,0.933333400592447,0.102625362575054,-0.170125976204872,0.00152716308366507
0,0.355555568443255,0.116666675074056,0.906944454810619,0.143553331494331,-0.383012503385544,0.0351247526705265
0,0.334722238818301,0.106944444047242,0.918055589876652,0.160657554864883,-0.316122770309448,0.0277943685650826
0,0.33750002258481,0.0944444474878658,0.858333336144441,0.064446285367012,0.149356558918953,0.0387899428606033
0,0.327777779402031,0.104166672436698,0.84583340644287,-0.0736092627048492,0.206472456455231,0.0659734457731247
0,0.400000011459671,0.12777778582816,0.837500055143345,0.000916297896765172,0.0897971913218498,0.245873257517815
0,0.44583337067127,0.112499999424294,0.888888957576031,0.136222943663597,0.229074463248253,0.504880130290985
0,0.375000006184955,0.0888888921108138,0.96666670854283,0.0986547395586967,0.594982743263245,0.634994447231293
0,0.298611122789481,0.143055560076062,0.991666665193688,-0.00519235478714108,0.788321614265442,0.690888583660126
0,0.180555567988136,0.0944444474878658,0.916666697993398,-0.307876080274582,0.630107522010803,1.0222829580307
0,0.222222239394008,0.169444445078067,0.933333400592447,-0.323758572340012,0.50793445110321,1.28984200954437
0,0.224999998848587,0.0819444448505077,0.941666654644256,-0.257785141468048,0.452651143074036,1.43370068073273
0,0.327777779402031,0.0611111152255539,0.916666697993398,-0.16371189057827,0.505796432495117,1.36833810806274
0,0.358333352209763,0.108333335930496,0.909722238577127,-0.194255143404007,0.289550125598908,1.30267012119293
0,0.348611133338914,0.0652777787193518,0.963888924776322,-0.317344486713409,0.282525181770325,1.0345002412796
0,0.313888909193348,0.0444444460554069,1.0333333244436,-0.327118337154388,0.902553379535675,0.872926414012909
0,0.187500003092477,0.0750000036681839,1.00555558402623,-0.341779112815857,1.05588054656982,1.05526971817017
0,0.112499999424294,0.0819444448505077,0.979166735492117,-0.258090555667877,1.06412720680237,1.45660817623138
0,0.163888889701015,0.0763888894734557,0.948611114060526,-0.308486938476563,0.994488596916199,1.63253736495972
0,0.166666673467524,0.0638888929140799,0.863888903677457,-0.625526010990143,0.586430609226227,1.78983521461487
0,0.0750000036681839,0.0444444460554069,0.89722221162784,-0.946535706520081,0.0207694191485643,2.10809588432312
0,0.0861111144222878,0.0444444460554069,1.09861114570882,-0.759916365146637,0.219911485910416,2.31670641899109
0,0.12777778582816,-0.0416666683668809,1.09861114570882,-0.465784758329391,0.80481493473053,2.42299699783325
0,0.140277788465518,0.00555555575692586,0.994444448960196,-0.446542501449585,1.07084679603577,2.44804239273071
0,0.131944449321958,0.00694444498106275,0.930555616825939,-0.220522359013557,0.346055150032044,2.75072622299194
0,0.14722222356986,0.0388888906783549,0.899999995394348,-0.249843880534172,-0.0781907513737679,2.93123698234558
0,0.269444466176932,0.055555559848502,0.909722238577127,-0.413555771112442,0.160352125763893,2.7824912071228
0,0.259722222994153,-0.0777777813567098,0.977777843608863,-0.522595226764679,0.019547687843442,2.56288504600525
0,0.14583334384257,-0.118055554801345,1.0513889189259,-0.315817326307297,0.0830776765942574,2.45354032516479
0,0.158333334323963,-0.156944454596674,1.04166667574312,-0.0797179117798805,-0.128892570734024,2.37596035003662
0,0.17361112072783,-0.265277790527169,1.01666671909226,0.0503963828086853,-0.146302223205566,2.20216917991638
0,0.316666668647927,-0.522222229754814,0.786111152710659,0.191506251692772,0.58062744140625,1.30267012119293
0,0.316666668647927,-0.522222229754814,0.786111152710659,0.252898216247559,1.19149267673492,0.66584312915802
0,0.168055565350778,-0.701388893703731,0.841666730793107,0.0552833043038845,1.4001030921936,0.357050746679306
0,0.00833333382532574,-0.108333335930496,1.0361111082101,1.01250910758972,-1.72874867916107,1.50181221961975
0,0.00833333382532574,-0.108333335930496,1.0361111082101,1.22539567947388,0.0357356183230877,2.11267733573914
0,-0.0222222230277034,-0.055555559848502,1.05277781080915,2.12764358520508,0.0314595587551594,1.89643120765686
0,-0.0416666683668809,-0.13750000469901,0.959722249126559,0.986241936683655,-0.64385199546814,1.2779301404953
0,-0.0416666683668809,-0.13750000469901,0.959722249126559,-0.178678080439568,-1.98806095123291,1.32282865047455
0,0.0361111129898289,-0.0888888921108138,0.86805557932722,-1.05313169956207,-3.73849534988403,1.94132971763611
0,0.0875000002275597,-0.197222234119292,0.855555552377932,-1.55434656143188,-4.21405410766602,2.37076807022095
0,0.186111123365188,-0.200000005729836,0.930555616825939,-2.0857994556427,-2.96605610847473,2.6835310459137
0,0.340277782039389,-0.138888896582264,1.0361111082101,-0.846353769302368,-2.53447985649109,2.20461273193359
0,0.404166687109433,-0.208333344873396,1.07222229717471,-0.394008070230484,-1.87108027935028,1.84756195545197
0,0.226388890731841,-0.14722222356986,0.841666730793107,-0.138360977172852,-1.15728425979614,1.49387097358704
0,0.258333331110899,-0.194444450352783,0.904166671044111,-0.302989155054092,-1.64964163303375,1.0256427526474
0,0.281944444502361,-0.233333350148112,0.826388920077312,-0.863458037376404,-2.68414187431335,0.864068865776062
0,0.408333338447267,-0.269444466176932,0.788888936477167,-0.967915952205658,-3.08731293678284,0.759916365146637
0,0.370833354847121,-0.320833344297689,0.765277823085705,-0.82039201259613,-2.55127859115601,0.740979552268982
0,0.515277818962402,-0.18333333959868,0.908333346693873,-0.0681114718317986,-0.617584764957428,-0.430049121379852
0,0.630555602153203,-0.224999998848587,0.99583334084345,0.153021737933159,0.511905074119568,-0.711352586746216
0,0.538888932353864,-0.355555568443255,0.947222222177272,0.400116741657257,1.15850591659546,-0.195171445608139
0,0.538888932353864,-0.443055586904762,0.881944498159761,0.738841533660889,1.15881133079529,0.0384845100343227
0,0.458333348996699,-0.369444462963867,0.772222233878117,0.919352173805237,0.384845107793808,0.255952537059784
0,0.488888921804431,-0.308333341660331,0.736111142161226,0.79351395368576,0.197614908218384,-0.147218525409698
0,0.526388905404577,-0.287500012035377,0.854166660494678,0.818559408187866,0.505491018295288,-0.4544837474823
0,0.504166683896369,-0.33750002258481,0.923611157409668,0.986852824687958,0.605978310108185,-0.240986332297325
0,0.506944467662877,-0.377777789951463,0.916666697993398,0.544586360454559,0.340557366609573,-0.0235183127224445
0,0.473611111088636,-0.344444457689151,0.838888947026599,-0.0381790772080422,-0.109039448201656,-0.163406446576118
0,0.493055597454194,-0.277777793164528,0.775000017644626,-0.300851136445999,-0.758694648742676,-0.526565849781036
0,0.509722251429385,-0.237500001485945,0.765277823085705,-0.662177920341492,-1.73730075359345,-0.930653214454651
0,0.493055597454194,-0.236111109602691,0.779166693294388,-0.807258427143097,-1.80327415466309,-0.88819807767868
0,0.523611121638068,-0.265277790527169,0.854166660494678,-0.742506682872772,-1.39796507358551,-0.562301456928253
0,0.56666667277123,-0.340277782039389,0.840277838909853,-0.898582756519318,-1.41079330444336,0.0827722400426865
0,0.630555602153203,-0.345833349572405,0.841666730793107,-1.00609505176544,-1.50364482402801,0.102625362575054
0,0.661111126337078,-0.294444447139719,0.795833347269579,-1.03266775608063,-1.63986778259277,-0.0482583530247212
0,0.626388926503441,-0.327777779402031,0.695833374794573,-0.956004083156586,-2.16399002075195,0.0565050356090069
0,0.719444488186035,-0.44583337067127,0.694444482911319,-0.17409659922123,-2.65084981918335,0.519540905952454
0,0.861111119910949,-0.483333354271415,0.679166672195524,-0.11636982858181,-2.01768779754639,0.971275746822357
0,0.911111130460381,-0.413888905980283,0.765277823085705,-0.644462823867798,-0.952033460140228,1.14476144313812
0,0.911111130460381,-0.384722225055805,0.788888936477167,-0.870788395404816,-0.487165033817291,0.895223021507263
0,0.859722228027695,-0.473611111088636,0.594444461812454,-1.04732847213745,-1.59222030639648,1.15545165538788
0,0.848611190209378,-0.519444445988306,0.480555570504907,-1.64383840560913,-2.50179862976074,1.17835903167725
0,0.84583340644287,-0.558333370095563,0.536111148587356,-1.8891007900238,-2.49446821212769,1.29106366634369
0,0.93750007624221,-0.625000034620187,0.608333332021137,-1.30297553539276,-1.20645880699158,1.36589467525482
0,0.956944465360051,-0.636111121062362,0.54027777561326,-1.32405042648315,-0.66584312915802,1.0845912694931
0,0.82916670384382,-0.687500023495048,0.394444468238583,-2.33350515365601,-1.41842913627624,0.639881372451782
0,0.738888925927735,-0.80277780668585,0.283333336385615,-2.85518407821655,-2.27974915504456,0.597426235675812
0,0.781944477060896,-0.854166660494678,0.205555561106887,-2.03326487541199,-1.92300379276276,0.905913174152374
0,0.844444514559616,-0.89722221162784,0.20972223675665,-1.10047376155853,-1.12643551826477,0.978606104850769
0,0.797222239152834,-0.89166674134254,0.176388892338373,-0.781296670436859,-0.764803290367126,1.17988622188568
0,0.762500039319197,-0.890277849459286,0.0847222225390337,-1.06870877742767,-1.15881133079529,1.25349545478821
0,0.779166693294388,-0.879166714393253,0.102777780553444,-1.40101945400238,-1.28373336791992,1.26662909984589
0,0.787500044593913,-0.886111173809523,0.122222230451108,-1.40315747261047,-1.0867292881012,1.58030843734741
0,0.634722229179108,-0.812500049868629,0.118055554801345,-0.916297852993011,-0.701884150505066,1.64139497280121
0,0.58333337537028,-0.752777796136418,0.0847222225390337,-0.981965899467468,-0.896444737911224,1.17072319984436
0,0.52083333787156,-0.686111131611794,-0.00833333382532574,-2.85121345520019,-0.532979905605316,-0.382096201181412
0,0.52083333787156,-0.686111131611794,-0.00833333382532574,-2.85121345520019,-0.532979905605316,-0.382096201181412
0,0.49166670557094,-0.58611111051293,0.20972223675665,-1.87963235378265,1.96148824691773,0.0421497002243996
0,0.513888927079148,-0.486111138037923,0.24583335278547,-1.30022668838501,3.56042814254761,-0.313679307699203
0,0.430555559955475,-0.345833349572405,0.108333335930496,-0.864679753780365,4.02987813949585,-1.01861774921417
0,0.615277791437408,-0.477777786738398,-0.156944454596674,-1.25105202198029,1.78861343860626,-1.38360977172852
0,0.976388951725609,-0.75000001236991,-0.218055563744246,-1.8891007900238,-2.35732889175415,-1.13529300689697
0,0.830555595727074,-0.791666671619817,0.159722226207217,-1.19485247135162,-1.04519045352936,-0.415693789720535
0,0.836111163260091,-0.745833336720147,0.243055569018962,-0.142942473292351,0.518013715744019,0.271835029125214
0,0.806944482335612,-0.808333374218867,0.0472222237439329,0.533590793609619,-0.315817326307297,1.37383592128754
0,0.816666676894533,-0.815277785011279,-0.0972222251763917,0.759610950946808,-1.06076753139496,1.63314819335938
0,0.825000028194058,-0.75000001236991,-0.0236111118719664,0.60903263092041,-0.513737678527832,1.15300810337067
0,0.723611115211939,-0.75000001236991,-0.0361111129898289,0.487470477819443,-0.225103840231896,0.918741345405579
0,0.718055596302781,-0.709722245003256,-0.13750000469901,0.124311074614525,-0.902858853340149,0.347887754440308
0,0.627777818386695,-0.733333358394718,-0.0930555616825939,-0.0748309940099716,-1.08734011650085,0.149051114916802
0,0.531944472937593,-0.73055557462821,0.0958333393711199,0.435241490602493,-0.156686931848526,0.214719131588936
0,0.523611121638068,-0.719444488186035,0.0875000002275597,0.662177920341492,0.384845107793808,-0.0180205255746841
0,0.562499997121468,-0.73055557462821,0.0597222233422998,-0.178678080439568,-0.603840291500092,-0.545502662658691
0,0.681944455962032,-0.843055622676362,0.0916666697993398,-0.927904307842255,-1.00365161895752,-0.704938471317291
0,0.663888910103586,-0.86805557932722,0.0930555616825939,-0.634994447231293,-0.550389587879181,-0.287717521190643
0,0.661111126337078,-0.80277780668585,0.00277777787846293,0.360105067491531,-0.173180297017098,0.143247902393341
0,0.625000034620187,-0.744444493460751,-0.16527778158427,0.667675733566284,0.601396858692169,0.247400417923927
0,0.683333347845286,-0.763888931202451,-0.233333350148112,0.441350132226944,-0.318260788917542,0.0610865242779255
0,0.702777785586986,-0.755555579902926,-0.227777782615095,-0.422107875347138,-0.996932089328766,-0.429132848978043
0,0.662500018220332,-0.827777811960566,-0.0347222241455659,-0.529620170593262,-0.542142927646637,-0.173485726118088
0,0.71111113688651,-0.883333390043015,-0.111111119697004,-0.642019391059875,-0.814894258975983,0.171042263507843
0,0.71111113688651,-0.795833347269579,-0.131944449321958,-0.815505087375641,-1.07756626605988,-0.0522289797663689
0,0.663888910103586,-0.791666671619817,-0.169444445078067,-0.936456441879272,-1.60504841804504,-0.268780708312988
0,0.695833374794573,-0.815277785011279,-0.143055560076062,-1.15178644657135,-1.71103358268738,-0.340862810611725
0,0.672222261403111,-0.881944498159761,-0.118055554801345,-1.27151596546173,-1.55587375164032,-0.132863193750381
0,0.629166710269949,-0.806944482335612,-0.238888893369199,-1.68385004997253,-1.57542145252228,0.0430659987032413
0,0.670833369519857,-0.755555579902926,-0.331944455051793,-1.36222946643829,-1.81029915809631,-0.158214092254639
0,0.572222240304247,-0.795833347269579,-0.341666673922643,-1.13468217849731,-1.66063714027405,0.167071640491486
0,0.354166676560001,-0.697222266677827,-0.355555568443255,-0.716544926166534,-1.02655899524689,0.594371855258942
0,0.354166676560001,-0.697222266677827,-0.355555568443255,-1.55648469924927,-0.565355777740479,0.786183595657349
0,0.449999997697174,-0.66527780198684,-0.50138890012986,-2.9636127948761,-1.02289390563965,0.862541735172272
0,0.794444455386325,-0.554166694445801,0.0625000010308258,-2.56166338920593,0.0207694191485643,-0.0516181141138077
0,0.794444455386325,-0.554166694445801,0.0625000010308258,-0.614530444145203,0.563828647136688,-0.789237916469574
0,0.516666662221798,-0.559722261978817,-0.495833332596844,-0.161573857069016,0.505491018295288,-0.532369077205658
0,0.522222229754814,-0.550000018796039,-0.536111148587356,0.632550954818726,0.769079327583313,-0.503047525882721
0,0.568055564654484,-0.551388910679293,-0.545833343146276,1.25380086898804,0.948062837123871,-0.581543684005737
0,0.795833347269579,-0.601388921228725,-0.538888932353864,1.16736352443695,0.478612929582596,-0.765719592571259
0,0.716666704419527,-0.691666699144811,-0.505555575779623,1.05954575538635,0.399505883455276,-0.335059583187103
0,0.748611120486655,-0.75000001236991,-0.441666695021508,0.610865235328674,0.631634652614594,-0.152105450630188
0,0.651388931778157,-0.71111113688651,-0.416666689746791,0.600175082683563,0.568410098552704,-0.135001212358475
0,0.625000034620187,-0.676388937052873,-0.411111122213775,0.604756593704224,1.07298481464386,-0.543670058250427
0,0.505555575779623,-0.5930555699292,-0.273611117514765,0.751364231109619,2.95231175422669,-0.66584312915802
0,0.400000011459671,-0.536111148587356,-0.490277813687686,-0.879951357841492,1.73271930217743,-0.439212113618851
0,0.613888899554154,-0.534722256704101,-0.230555566381603,-0.433714330196381,1.81762957572937,-1.53693699836731
0,0.880555606276507,-0.515277818962402,-0.256944463539574,-0.420886158943176,1.02014493942261,-0.981660425662994
0,1.04444445950963,-0.781944477060896,-0.313888909193348,0.218995183706284,0.266031801700592,0.197920337319374
0,0.962500032893068,-0.826388920077312,-0.373611114301701,0.212886542081833,0.734260022640228,0.412334054708481
0,0.784722260827405,-0.630555602153203,-0.369444462963867,0.438295811414719,0.829554975032806,-0.314290165901184
0,0.712500028769764,-0.588888894279438,-0.301388906555989,0.631940066814423,1.29442346096039,-0.770301103591919
0,0.775000017644626,-0.550000018796039,-0.423611149163062,0.317344486713409,1.24616515636444,-1.28770399093628
0,0.861111119910949,-0.384722225055805,-0.322222236180943,0.689361453056335,1.38177716732025,-2.33594870567322
0,1.02916674604155,-0.44861110581392,-0.24583335278547,-0.106290549039841,0.992350578308105,-3.72963786125183
0,0.877777822509998,-0.716666704419527,-0.111111119697004,-0.273667633533478,0.146607652306557,-1.33260250091553
0,0.915277806110144,-0.84583340644287,-0.0777777813567098,-0.19028452038765,-0.38026362657547,-0.382401645183563
0,0.969444492309338,-0.620833358970425,-0.17361112072783,-0.15851953625679,-0.404698222875595,-0.361021369695664
0,0.909722238577127,-0.551388910679293,-0.204166669223633,-0.0940732508897781,-0.29046642780304,-0.390342891216278
0,0.85138887672817,-0.269444466176932,-0.265277790527169,0.108734011650086,0.335670441389084,-0.208610475063324
0,0.775000017644626,-0.281944444502361,-0.252777787889811,0.678060412406921,1.3790283203125,-0.184175878763199
0,0.947222222177272,-0.636111121062362,-0.187500003092477,0.200669229030609,1.06351637840271,-0.499993205070496
0,0.95000000594378,-0.605555596878487,-0.181944447715425,0.152410879731178,0.952644348144531,-0.458759784698486
0,0.927777833059431,-0.466666700296224,-0.215277779977737,-0.55527651309967,1.12582468986511,-0.782823801040649
0,0.87500003874349,-0.424999992422458,-0.0805555590452358,-0.862236320972443,1.23578035831451,-1.4379768371582
0,0.848611190209378,-0.50138890012986,0.0361111129898289,-0.156686931848526,0.272140473127365,-1.42637038230896
0,1.07777786470773,-0.477777786738398,-0.0819444448505077,-0.0488692186772823,-0.0113010071218014,-0.991739749908447
0,1.07361118905796,-0.404166687109433,-0.0930555616825939,-0.00763581553474069,-0.356439858675003,-0.805731236934662
0,0.947222222177272,-0.329166671285285,-0.0625000010308258,0.0128281703218818,-0.437074095010758,-0.711658000946045
0,0.85138887672817,-0.2194444556275,-0.0861111144222878,-0.0555887371301651,0.224798411130905,-0.536034226417542
0,0.902777779160856,-0.202777789496344,-0.2194444556275,-0.223882108926773,1.16614174842834,-0.516181111335754
0,1.06666672964169,-0.423611149163062,-0.180555567988136,-0.165239050984383,1.48990035057068,-0.737925231456757
0,1.04166667574312,-0.269444466176932,0.0166666676506515,0.0439822971820831,0.688445150852203,-0.463646709918976
0,1.04166667574312,-0.269444466176932,0.0166666676506515,0.0852157026529312,0.0207694191485643,-0.0574213340878487
0,1.04166667574312,-0.254166679773066,0.00694444498106275,0.0656680166721344,-0.318566232919693,0.19058994948864
0,0.96666670854283,-0.243055569018962,0.00555555575692586,0.0308486949652433,-0.426689386367798,0.301156580448151
0,0.933333400592447,-0.238888893369199,-0.027777779924251,0.011606439948082,-0.375376701354981,0.335670441389084
0,1.03888889197661,-0.351388892793493,-0.111111119697004,0.0729983970522881,0.315511912107468,0.118507854640484
0,1.11388895642462,-0.411111122213775,-0.252777787889811,0.0858265683054924,1.14964842796326,0.0171042270958424
0,1.0513889189259,-0.390277792588821,-0.227777782615095,0.282219737768173,2.16765522956848,-0.0867428630590439
0,0.876388930626744,-0.375000006184955,0.283333336385615,0.0418442711234093,-0.164933621883392,-0.145691365003586
0,0.865277795560711,-0.18333333959868,0.123611110178398,0.10598511993885,-0.504880130290985,0.215330004692078
0,0.991666665193688,-0.334722238818301,0.0347222241455659,0.0171042270958424,-0.81428337097168,0.0864374339580536
0,0.984722303025134,-0.318055560531181,0.03194444645704,0.0561996027827263,-1.01281452178955,0.124311074614525
0,0.94305554652751,-0.29166668768514,-0.0472222237439329,0.0455094613134861,-0.674089789390564,0.22235494852066
0,0.92083337364316,-0.358333352209763,-0.104166672436698,0.0867428630590439,-0.202501833438873,0.138666406273842
0,1.01527782720901,-0.336111130701556,-0.125000002061652,0.110261179506779,0.582765460014343,0.111482910811901
0,0.96666670854283,-0.413888905980283,-0.0680555564078778,0.0531452745199203,0.765719592571259,0.0745255574584007
0,0.762500039319197,-0.341666673922643,0.0125000003581147,0.366519153118133,0.919657647609711,-0.17409659922123
0,1.26527778270845,-0.380555573717971,-0.0625000010308258,-0.0412334054708481,0.822530031204224,-0.0842994004487991
0,1.08888890252604,-0.361111135976272,0.00555555575692586,0.0164933614432812,0.442877292633057,-0.298713117837906
0,0.970833384192592,-0.315277801076602,0.0138888899621255,0.0100792767480016,0.494800835847855,-0.197004035115242
0,0.86805557932722,-0.287500012035377,0.029166668768514,0.0479529201984406,0.499076902866364,-0.122173048555851
0,0.973611167959101,-0.280555576931036,0.0541666679652478,-0.0500909499824047,0.370489776134491,0.113926365971565
0,0.98888888142718,-0.322222236180943,0.0458333348996699,-0.0888808965682983,0.0754418596625328,0.144164204597473
0,0.95000000594378,-0.294444447139719,0.120833338567854,-0.0381790772080422,-0.300240278244019,0.364991992712021
0,0.975000059842355,-0.318055560531181,0.029166668768514,0.0873537287116051,-0.429132848978043,0.660345315933228
0,1.0513889189259,-0.331944455051793,-0.0125000003581147,0.0583376325666905,-0.241597205400467,0.8472700715065
0,0.94305554652751,-0.330555563168539,0.00694444498106275,0.0384845100343227,-0.0558941699564457,0.673173487186432
0,0.959722249126559,-0.351388892793493,0.00555555575692586,0.0687223374843597,0.0470366254448891,0.814588785171509
0,0.952777789710289,-0.406944470875941,0.030555557612777,0.0503963828086853,0.070249505341053,0.822224617004395
0,0.990277773310434,-0.411111122213775,0.030555557612777,0.0342084541916847,0.124616511166096,0.536034226417542
0,1.0361111082101,-0.436111127488491,0.0250000007162294,0.0729983970522881,0.28008171916008,0.329256355762482
0,1.10138892947533,-0.49166670557094,0.0541666679652478,0.000916297896765172,-0.0888808965682983,-0.0723875313997269
0,0.956944465360051,-0.386111116939059,0.0152777788063885,0.0189368221908808,-0.24312436580658,-0.619722783565521
0,0.815277785011279,-0.377777789951463,0.0250000007162294,-0.0366519130766392,0.129197999835014,-0.934623837471008
0,0.722222271952543,-0.404166687109433,0.0236111118719664,-0.00519235478714108,0.274889349937439,-2.27852725982666
0,0.722222271952543,-0.404166687109433,0.0236111118719664,-0.166460782289505,0.321315109729767,-2.16796064376831
0,0.961111141009813,-0.293055555256465,0.0791666671619817,-0.0558941699564457,0.797179162502289,-0.364991992712021
0,0.738888925927735,-0.279166685047782,0.0791666671619817,0.0952949747443199,1.18171882629395,-0.596204459667206
0,0.738888925927735,-0.279166685047782,0.0791666671619817,0.26908615231514,1.85733580589294,0.0464257597923279
0,1.15000004814151,-0.293055555256465,0.0708333340964038,0.22693644464016,2.11909151077271,0.485943287611008
0,1.22222223157529,-0.331944455051793,0.233333350148112,0.1750128865242,1.09925198554993,0.412944912910461
0,1.22222223157529,-0.331944455051793,0.233333350148112,0.0534507073462009,0.229074463248253,0.138666406273842
0,1.05000002704265,-0.344444457689151,0.231944458264858,-0.011606439948082,-0.149661988019943,0.0161879286170006
0,1.03750000009336,-0.319444452414435,0.215277779977737,-0.0122173046693206,-0.258090555667877,0.0262672062963247
0,0.98888888142718,-0.288888903918631,0.200000005729836,0.0409279726445675,-0.360105067491531,0.0387899428606033
0,0.951388897827035,-0.305555557893823,0.190277786858986,0.070249505341053,-0.422413319349289,-0.0421497002243996
0,0.970833384192592,-0.344444457689151,0.163888889701015,0.0729983970522881,-0.363159388303757,-0.0965167060494423
0,0.918055589876652,-0.301388906555989,0.175000000455119,0.103236228227615,-0.45509460568428,-0.0113010071218014
0,0.984722303025134,-0.312500017310094,0.125000002061652,0.0901026204228401,-0.359188765287399,-0.0204639863222837
0,1.01527782720901,-0.29166668768514,0.12777778582816,0.076052725315094,-0.386066824197769,-0.00977384392172098
0,0.98888888142718,-0.295833339022973,0.156944454596674,0.021685715764761,-0.760221779346466,-0.0421497002243996
0,0.994444448960196,-0.301388906555989,0.163888889701015,0.0781907513737679,-0.932180345058441,0.178678080439568
0,0.95000000594378,-0.288888903918631,0.113888891307548,0.160352125763893,-0.548556983470917,0.219300627708435
0,1.00000001649321,-0.308333341660331,0.027777779924251,0.196393176913261,-0.112399205565453,0.155159771442413
0,1.02500007039179,-0.308333341660331,0.0375000018340919,0.183565005660057,0.0299323964864016,0.0891863256692886
0,0.998611124609959,-0.348611133338914,0.0388888906783549,0.182037845253944,0.182343274354935,-0.019547687843442
0,1.0125000434425,-0.351388892793493,0.0750000036681839,0.186924770474434,0.2379320114851,-0.0106901414692402
0,1.02361117850853,-0.316666668647927,0.0388888906783549,0.176540061831474,0.483805269002914,-0.00244346098043024
0,1.00138890837647,-0.288888903918631,0.0513888902767219,0.135001212358475,0.689666867256165,-0.058643065392971
0,1.0125000434425,-0.295833339022973,0.0833333367337618,0.119729585945606,0.718682944774628,-0.124616511166096
0,1.01666671909226,-0.29166668768514,0.130555557438704,0.0733038261532784,0.656680166721344,-0.140193566679955
0,1.00972225967599,-0.277777793164528,0.156944454596674,-0.0595593601465225,0.557109117507935,-0.0329867228865623
0,0.952777789710289,-0.247222220356795,0.204166669223633,-0.147523954510689,0.152105450630188,0.131030589342117
0,0.913888914226889,-0.233333350148112,0.233333350148112,-0.189673662185669,-0.396451532840729,0.247705861926079
0,0.884722281926269,-0.295833339022973,0.341666673922643,-0.178372651338577,-0.602923989295959,0.10048733651638
0,0.947222222177272,-0.265277790527169,0.243055569018962,-0.231517925858498,-1.22234129905701,0.106290549039841
0,0.940277860008718,-0.281944444502361,0.0625000010308258,-0.190895393490791,-1.13743114471436,0.00366519158706069
0,1.21250008564023,-0.286111120152123,-0.898611103511094,0.0784961804747581,5.25283002853394,0.0400116741657257
0,1.43611119260556,-0.402777795226179,-0.509722251429385,-0.306654363870621,0.581238269805908,-0.313068449497223
0,0.723611115211939,-0.290277795801886,0.293055555256465,0.0415388382971287,-0.26419922709465,0.08460483700037
0,0.848611190209378,-0.286111120152123,0.205555561106887,-0.0366519130766392,-0.076052725315094,-0.019547687843442
0,0.965277816659576,-0.305555557893823,0.202777789496344,-0.0222965814173222,-0.123394779860973,0.0219911485910416
0,1.00833336779274,-0.325000019947452,0.197222234119292,0.0308486949652433,0.00519235478714108,0.021685715764761
0,0.98888888142718,-0.309722233543585,0.193055558469529,0.01191187184304,0.0540615729987621,0.0421497002243996
0,0.969444492309338,-0.311111125426839,0.215277779977737,0.0232128798961639,0.0354301854968071,0.0125227374956012
0,1.04861113515939,-0.377777789951463,0.240277785252453,0.0513126812875271,0.176234617829323,0.101709060370922
0,0.979166735492117,-0.281944444502361,0.229166674498349,0.0106901414692402,-0.212581098079681,0.0522289797663689
0,0.959722249126559,-0.312500017310094,0.190277786858986,0.0335975885391235,0.0943786799907684,0.0201585534960032
0,0.993055557076942,-0.319444452414435,0.195833342236038,-0.0326812900602817,-0.00946841109544039,0.00977384392172098
0,0.973611167959101,-0.301388906555989,0.19166667874224,-0.0302378293126821,0.0387899428606033,0.0180205255746841
0,0.983333411141879,-0.300000014672736,0.206944452990142,-0.0485637858510017,0.0232128798961639,0.0192422550171614
0,0.958333357243305,-0.322222236180943,0.197222234119292,-0.04764748737216,0.0290160998702049,0.0552833043038845
0,0.991666665193688,-0.272222225631511,0.13750000469901,-0.0122173046693206,0.0125227374956012,0.101709060370922
0,0.986111194908388,-0.340277782039389,0.159722226207217,0.0977384373545647,-0.0445931628346443,0.078801617026329
0,0.986111194908388,-0.320833344297689,0.115277783190802,0.0171042270958424,0.112399205565453,0.0430659987032413
0,0.962500032893068,-0.331944455051793,0.18333333959868,0.0397062413394451,-0.0226020142436027,-0.0253509078174829
0,0.947222222177272,-0.230555566381603,-0.0819444448505077,-0.0452040284872055,0.0836885422468185,-0.00610865233466029
0,0.923611157409668,-0.313888909193348,0.188888894975731,-0.0109955742955208,-0.015577063895762,-0.0561996027827263
5,0.983333411141879,-0.309722233543585,0.197222234119292,0.078801617026329,0.0778853222727776,0.0675006061792374
5,0.95000000594378,-0.298611122789481,0.212499996211229,0.0409279726445675,0.00916297826915979,0.0348193198442459
5,0.945833330294018,-0.298611122789481,0.186111123365188,-0.00122173049021512,0.0409279726445675,0.0784961804747581
5,0.918055589876652,-0.333333346935047,0.205555561106887,-0.207694187760353,-0.0397062413394451,0.0516181141138077
5,1.00277780025972,-0.344444457689151,0.194444450352783,-0.0678060427308083,-0.015577063895762,-0.0403171069920063
5,0.986111194908388,-0.333333346935047,0.186111123365188,-0.112399205565453,0.161573857069016,-0.0241291765123606
5,0.958333357243305,-0.306944449777077,0.194444450352783,-0.0885754600167274,-0.164628177881241,-0.00946841109544039
5,0.958333357243305,-0.306944449777077,0.194444450352783,-0.11087204515934,-0.122478485107422,0.00519235478714108
5,0.976388951725609,-0.300000014672736,0.197222234119292,-0.207083314657211,-0.0616973899304867,0.017409659922123
5,1.00833336779274,-0.322222236180943,0.175000000455119,-0.293520748615265,0.120951317250729,0.0180205255746841
5,0.994444448960196,-0.327777779402031,0.18333333959868,-0.377514719963074,0.0763581544160843,-0.0293215326964855
5,0.981944519258625,-0.340277782039389,0.175000000455119,0.0284052342176437,0.251371055841446,0.0867428630590439
5,0.962500032893068,-0.348611133338914,0.186111123365188,0.175929188728332,0.244346097111702,0.135001212358475
5,0.933333400592447,-0.351388892793493,0.223611131277262,0.35430184006691,0.101709060370922,0.184175878763199
5,0.940277860008718,-0.366666679197359,0.24583335278547,0.436768651008606,-0.0632245540618896,0.115148097276688
5,0.961111141009813,-0.388888900705567,0.222222239394008,0.23823744058609,-0.0739146918058395,-0.103236228227615
5,1.00833336779274,-0.344444457689151,0.229166674498349,0.299629390239716,-0.133474051952362,-0.153632611036301
5,0.913888914226889,-0.304166666010569,0.186111123365188,0.235488548874855,-0.109039448201656,-0.0546724386513233
5,0.93750007624221,-0.275000009398019,0.186111123365188,0.0784961804747581,0.00885754637420177,-0.0647517144680023
5,0.979166735492117,-0.272222225631511,0.226388890731841,0.0372627787292004,-0.0222965814173222,-0.0354301854968071
5,1.01944450285877,-0.272222225631511,0.236111109602691,-0.0128281703218818,-0.00733038317412138,-0.0314595587551594
5,1.00000001649321,-0.283333336385615,0.236111109602691,-0.027488935738802,0.0323758572340012,-0.0161879286170006
5,0.958333357243305,-0.298611122789481,0.233333350148112,-0.0568104684352875,0.0394008085131645,-0.0027488935738802
5,0.94305554652751,-0.322222236180943,0.231944458264858,-0.0592539273202419,0.0256563406437635,-0.027488935738802
5,0.956944465360051,-0.331944455051793,0.237500001485945,-0.0302378293126821,0.0164933614432812,-0.0452040284872055
5,0.969444492309338,-0.322222236180943,0.233333350148112,-0.00916297826915979,0.0161879286170006,-0.0253509078174829
5,0.96666670854283,-0.312500017310094,0.218055563744246,-0.00519235478714108,0.0122173046693206,-0.0106901414692402
5,0.956944465360051,-0.316666668647927,0.208333344873396,-0.00885754637420177,0.00671951752156019,0.00397062394768
5,0.959722249126559,-0.322222236180943,0.208333344873396,0.00610865233466029,-0.00519235478714108,-0.00519235478714108
5,0.973611167959101,-0.319444452414435,0.222222239394008,0.0232128798961639,-0.00763581553474069,-0.00519235478714108
5,0.969444492309338,-0.322222236180943,0.218055563744246,0.0192422550171614,0.0207694191485643,-0.00366519158706069
5,0.969444492309338,-0.323611128064198,0.215277779977737,0.0177150927484035,0.00580321997404099,0.00610865233466029
5,0.970833384192592,-0.333333346935047,0.215277779977737,0.0354301854968071,-0.00946841109544039,0.0290160998702049
5,0.969444492309338,-0.344444457689151,0.208333344873396,0.0626136884093285,-0.0253509078174829,0.029626963660121
5,0.961111141009813,-0.338888890156135,0.212499996211229,0.10048733651638,-0.0299323964864016,0.0323758572340012
5,0.963888924776322,-0.331944455051793,0.211111128639904,0.122783914208412,-0.0201585534960032,0.0262672062963247
5,0.965277816659576,-0.318055560531181,0.208333344873396,0.132863193750381,0.00152716308366507,0.0241291765123606
5,0.962500032893068,-0.315277801076602,0.204166669223633,0.12705996632576,0.00977384392172098,0.0167987942695618
5,0.956944465360051,-0.311111125426839,0.218055563744246,0.108428582549095,-0.00702495034784079,0.0128281703218818
5,0.962500032893068,-0.315277801076602,0.20972223675665,0.112704634666443,-0.0339030213654041,0.0424551330506802
5,0.96666670854283,-0.323611128064198,0.211111128639904,0.117896988987923,-0.0323758572340012,0.0329867228865623
5,0.965277816659576,-0.313888909193348,0.20972223675665,0.111788339912891,-0.0146607663482428,0.0213802829384804
5,0.961111141009813,-0.308333341660331,0.200000005729836,0.0974330082535744,-0.0161879286170006,0.00824668072164059
5,0.956944465360051,-0.301388906555989,0.20972223675665,0.0839939713478088,-0.0186313893646002,0.0100792767480016
5,0.965277816659576,-0.295833339022973,0.224999998848587,0.0766635909676552,-0.0109955742955208,0.015577063895762
5,0.965277816659576,-0.295833339022973,0.224999998848587,0.0662788823246956,-0.013744467869401,-0.00610865233466029
5,0.96666670854283,-0.283333336385615,0.231944458264858,0.0320704244077206,0.000305432622553781,-0.0213802829384804
5,0.970833384192592,-0.277777793164528,0.233333350148112,-0.0192422550171614,-0.00519235478714108,-0.00977384392172098
5,0.970833384192592,-0.277777793164528,0.233333350148112,-0.0369573459029198,-0.0131336031481624,0.00305432616733015
5,0.959722249126559,-0.298611122789481,0.229166674498349,-0.0427605658769607,-0.01588249579072,0.0131336031481624
5,0.956944465360051,-0.312500017310094,0.222222239394008,-0.0448985956609249,-0.0345138870179653,0.0345138870179653
5,0.956944465360051,-0.312500017310094,0.222222239394008,-0.0332921557128429,-0.0378736443817616,0.0152716310694814
5,0.961111141009813,-0.322222236180943,0.212499996211229,-0.0131336031481624,-0.0259617734700441,0.00702495034784079
5,0.981944519258625,-0.315277801076602,0.216666671860991,0.0021380283869803,-0.0259617734700441,0.013744467869401
5,0.980555627375371,-0.308333341660331,0.222222239394008,-0.0125227374956012,-0.0106901414692402,0.0122173046693206
5,0.980555627375371,-0.308333341660331,0.222222239394008,-0.0332921557128429,-0.0198531206697226,0.0152716310694814
5,0.962500032893068,-0.309722233543585,0.223611131277262,-0.0369573459029198,-0.0271835029125214,0.0164933614432812
5,0.968055600426084,-0.320833344297689,0.223611131277262,-0.0146607663482428,-0.0259617734700441,0.00733038317412138
5,0.968055600426084,-0.320833344297689,0.223611131277262,0.00183259579353034,-0.0152716310694814,0.0213802829384804
5,0.973611167959101,-0.318055560531181,0.226388890731841,-0.00671951752156019,-0.00610865233466029,0.0128281703218818
5,0.962500032893068,-0.308333341660331,0.212499996211229,-0.0332921557128429,-0.00580321997404099,0.00519235478714108
5,0.962500032893068,-0.308333341660331,0.212499996211229,-0.0500909499824047,-0.0164933614432812,0.00885754637420177
5,0.961111141009813,-0.320833344297689,0.216666671860991,-0.0442877300083637,-0.017409659922123,0.0161879286170006
5,0.963888924776322,-0.340277782039389,0.213888888094483,-0.00885754637420177,-0.00671951752156019,0.0100792767480016
5,0.963888924776322,-0.340277782039389,0.213888888094483,0.00916297826915979,-0.0192422550171614,-0.00549778714776039
5,0.965277816659576,-0.318055560531181,0.212499996211229,-0.0021380283869803,-0.0180205255746841,0.00519235478714108
5,0.968055600426084,-0.313888909193348,0.211111128639904,-0.02382374368608,-0.027488935738802,0.00580321997404099
5,0.959722249126559,-0.323611128064198,0.208333344873396,-0.0213802829384804,-0.0100792767480016,0.0122173046693206
5,0.963888924776322,-0.33750002258481,0.218055563744246,-0.000610865245107561,-0.0027488935738802,0.0235183127224445
5,0.958333357243305,-0.327777779402031,0.222222239394008,-0.0140499006956816,-0.0299323964864016,0.0485637858510017
5,0.958333357243305,-0.313888909193348,0.216666671860991,-0.0287106670439243,-0.0583376325666905,0.0561996027827263
5,0.972222276075846,-0.315277801076602,0.216666671860991,-0.0198531206697226,-0.0219911485910416,0.0433714315295219
5,0.981944519258625,-0.323611128064198,0.20972223675665,-0.0201585534960032,0.0250454749912024,0.0207694191485643
5,0.975000059842355,-0.341666673922643,0.20138889761309,-0.0222965814173222,0.0186313893646002,0.00610865233466029
5,0.958333357243305,-0.344444457689151,0.212499996211229,-0.0106901414692402,0.00885754637420177,0.011606439948082
5,0.96666670854283,-0.345833349572405,0.212499996211229,0.0461203269660473,0.0302378293126821,0.013744467869401
5,0.969444492309338,-0.344444457689151,0.212499996211229,0.0794124826788902,0.0500909499824047,-0.00671951752156019
5,0.959722249126559,-0.338888890156135,0.220833347510754,0.0861319974064827,0.0555887371301651,-0.0299323964864016
5,0.944444438410764,-0.322222236180943,0.227777782615095,0.0772744566202164,0.0250454749912024,-0.0339030213654041
5,0.962500032893068,-0.311111125426839,0.222222239394008,0.0946841165423393,0.00733038317412138,0.00946841109544039
5,0.969444492309338,-0.301388906555989,0.2194444556275,0.0940732508897781,-0.00305432616733015,0.0314595587551594
5,0.96666670854283,-0.315277801076602,0.216666671860991,0.0784961804747581,0.000305432622553781,0.0497855171561241
5,0.94305554652751,-0.318055560531181,0.211111128639904,0.0531452745199203,-0.0613919571042061,0.0650571510195732
5,0.947222222177272,-0.343055565805897,0.216666671860991,0.087659165263176,-0.0693332031369209,0.0552833043038845
5,0.976388951725609,-0.368055571080613,0.20972223675665,0.149051114916802,-0.0406225398182869,0.0516181141138077
5,0.977777843608863,-0.362500003547597,0.206944452990142,0.204639852046967,-0.021685715764761,0.0632245540618896
5,0.952777789710289,-0.330555563168539,0.208333344873396,0.173180297017098,-0.0164933614432812,0.0534507073462009
5,0.934722292475701,-0.301388906555989,0.212499996211229,0.117896988987923,-0.05283984541893,0.037568211555481
5,0.940277860008718,-0.298611122789481,0.212499996211229,0.0858265683054924,-0.058643065392971,0.0335975885391235
5,0.951388897827035,-0.305555557893823,0.216666671860991,0.0873537287116051,-0.0360410511493683,0.0271835029125214
5,0.961111141009813,-0.301388906555989,0.206944452990142,0.0729983970522881,-0.0128281703218818,0.0397062413394451
5,0.970833384192592,-0.29166668768514,0.223611131277262,0.0226020142436027,-0.00916297826915979,0.0171042270958424
5,0.94305554652751,-0.266666682410424,0.234722242031366,-0.078801617026329,-0.0656680166721344,0.0219911485910416
5,0.962500032893068,-0.281944444502361,0.205555561106887,-0.145691365003586,-0.125532805919647,0.0262672062963247
5,0.987499989543926,-0.309722233543585,0.200000005729836,-0.125838235020638,-0.0607810914516449,0.00946841109544039
5,1.0125000434425,-0.354166676560001,0.206944452990142,-0.0775798857212067,0.0394008085131645,-0.00519235478714108
5,0.979166735492117,-0.341666673922643,0.216666671860991,-0.0775798857212067,0.0522289797663689,-0.0280998013913631
5,0.951388897827035,-0.312500017310094,0.224999998848587,-0.121256753802299,0.0207694191485643,-0.0384845100343227
5,0.933333400592447,-0.288888903918631,0.2194444556275,-0.177150920033455,-0.0589484944939613,-0.0323758572340012
5,0.96666670854283,-0.297222230906227,0.20138889761309,-0.182954147458077,-0.0681114718317986,-0.0186313893646002
5,1.00694447590948,-0.326388911830706,0.190277786858986,-0.12705996632576,0.0177150927484035,-0.00488692196086049
5,0.984722303025134,-0.343055565805897,0.197222234119292,-0.0824668109416962,0.0366519130766392,-0.0140499006956816
5,0.961111141009813,-0.334722238818301,0.206944452990142,-0.0833831056952477,0.015577063895762,-0.0427605658769607
5,0.963888924776322,-0.326388911830706,0.194444450352783,-0.0952949747443199,0.0131336031481624,-0.0665843114256859
5,0.961111141009813,-0.327777779402031,0.202777789496344,-0.0720821022987366,-0.00152716308366507,-0.0742201283574104
5,0.96666670854283,-0.334722238818301,0.198611113846581,-0.0470366254448891,-0.0320704244077206,-0.0513126812875271
5,0.973611167959101,-0.325000019947452,0.20138889761309,-0.0128281703218818,-0.0610865242779255,-0.00702495034784079
5,0.976388951725609,-0.329166671285285,0.20972223675665,0.0122173046693206,-0.0320704244077206,-0.000610865245107561
5,0.972222276075846,-0.327777779402031,0.195833342236038,-0.0033597587607801,-0.0284052342176437,-0.0241291765123606
5,0.96666670854283,-0.322222236180943,0.193055558469529,-0.0113010071218014,-0.0198531206697226,-0.0400116741657257
5,0.962500032893068,-0.315277801076602,0.193055558469529,-0.0140499006956816,-0.0387899428606033,-0.0302378293126821
5,0.970833384192592,-0.325000019947452,0.197222234119292,-0.00824668072164059,-0.0525344125926495,-0.00824668072164059
5,0.970833384192592,-0.330555563168539,0.202777789496344,0.015577063895762,-0.0354301854968071,0.0167987942695618
5,0.959722249126559,-0.327777779402031,0.213888888094483,0.0131336031481624,-0.0287106670439243,0.0128281703218818
5,0.94305554652751,-0.322222236180943,0.20138889761309,-0.0045814891345799,-0.0665843114256859,0.00366519158706069
5,0.959722249126559,-0.325000019947452,0.190277786858986,-0.017409659922123,-0.081855945289135,-0.000916297896765172
5,0.968055600426084,-0.336111130701556,0.184722231481934,-0.0122173046693206,-0.0781907513737679,0.000610865245107561
5,0.983333411141879,-0.327777779402031,0.180555567988136,0.0109955742955208,-0.0653625801205635,-0.0021380283869803
5,0.972222276075846,-0.327777779402031,0.187500003092477,0.00397062394768,-0.0546724386513233,0.00610865233466029
5,0.96666670854283,-0.323611128064198,0.190277786858986,-0.011606439948082,-0.0424551330506802,0.0381790772080422
5,0.965277816659576,-0.348611133338914,0.197222234119292,-0.0106901414692402,-0.02382374368608,0.02382374368608
5,0.96666670854283,-0.350000000910239,0.193055558469529,-0.00702495034784079,-0.0128281703218818,0.00641408516094089
5,0.968055600426084,-0.331944455051793,0.197222234119292,-0.00610865233466029,-0.0143553335219622,-0.00488692196086049
5,0.972222276075846,-0.325000019947452,0.19166667874224,-0.00488692196086049,-0.0143553335219622,-0.00733038317412138
5,0.96666670854283,-0.323611128064198,0.200000005729836,0.00916297826915979,-0.0125227374956012,0.0125227374956012
5,0.970833384192592,-0.315277801076602,0.18333333959868,0.00366519158706069,-0.0213802829384804,0.0253509078174829
5,0.973611167959101,-0.329166671285285,0.181944447715425,-0.00733038317412138,-0.0192422550171614,0.02382374368608
5,0.973611167959101,-0.333333346935047,0.193055558469529,-0.00610865233466029,-0.00763581553474069,0.0265726372599602
5,0.965277816659576,-0.333333346935047,0.187500003092477,-0.00244346098043024,-0.00183259579353034,0.0198531206697226
5,0.970833384192592,-0.331944455051793,0.193055558469529,0.0045814891345799,0.00122173049021512,0.017409659922123
5,0.969444492309338,-0.331944455051793,0.197222234119292,0.0143553335219622,-0.0027488935738802,0.0342084541916847
5,0.962500032893068,-0.33750002258481,0.206944452990142,0.0213802829384804,-0.0256563406437635,0.0290160998702049
5,0.96666670854283,-0.333333346935047,0.20138889761309,0.0326812900602817,-0.0372627787292004,0.0329867228865623
5,0.969444492309338,-0.327777779402031,0.190277786858986,0.0351247526705265,-0.0442877300083637,0.0326812900602817
5,0.962500032893068,-0.320833344297689,0.193055558469529,0.037568211555481,-0.0534507073462009,0.0384845100343227
5,0.969444492309338,-0.320833344297689,0.188888894975731,0.0467311926186085,-0.0580321997404099,0.0354301854968071
5,0.973611167959101,-0.319444452414435,0.194444450352783,0.0549778714776039,-0.0543670058250427,0.0326812900602817
5,0.976388951725609,-0.323611128064198,0.18333333959868,0.0461203269660473,-0.0339030213654041,0.0290160998702049
5,0.96666670854283,-0.325000019947452,0.180555567988136,0.0366519130766392,-0.0342084541916847,0.017409659922123
5,0.96666670854283,-0.323611128064198,0.17361112072783,0.0430659987032413,-0.0332921557128429,0.0226020142436027
5,0.979166735492117,-0.331944455051793,0.179166676104882,0.0436768643558025,-0.0189368221908808,0.00946841109544039
5,0.973611167959101,-0.331944455051793,0.179166676104882,0.0378736443817616,-0.0164933614432812,0.0125227374956012
5,0.970833384192592,-0.327777779402031,0.180555567988136,0.0366519130766392,0.000916297896765172,0.0143553335219622
5,0.968055600426084,-0.330555563168539,0.180555567988136,0.0381790772080422,-0.00244346098043024,0.0109955742955208
5,0.969444492309338,-0.334722238818301,0.18333333959868,0.0427605658769607,-0.0100792767480016,0.00580321997404099
5,0.96666670854283,-0.329166671285285,0.170833336961321,0.0464257597923279,-0.00824668072164059,0.000916297896765172
5,0.962500032893068,-0.322222236180943,0.170833336961321,0.0326812900602817,-0.0033597587607801,-0.00580321997404099
5,0.96666670854283,-0.325000019947452,0.175000000455119,0.0189368221908808,-0.00671951752156019,-0.00305432616733015
5,0.972222276075846,-0.322222236180943,0.179166676104882,0.0100792767480016,-0.0027488935738802,-0.00122173049021512
5,0.972222276075846,-0.320833344297689,0.172222228844576,-0.00794124789535999,0.00427605677396059,-0.0027488935738802
5,0.976388951725609,-0.331944455051793,0.18333333959868,-0.0161879286170006,0.0027488935738802,0.00427605677396059
5,0.970833384192592,-0.334722238818301,0.175000000455119,-0.0161879286170006,0.00977384392172098,-0.00549778714776039
5,0.969444492309338,-0.333333346935047,0.176388892338373,-0.0128281703218818,0.00671951752156019,-0.00824668072164059
5,0.959722249126559,-0.331944455051793,0.181944447715425,-0.0149661982432008,0.0149661982432008,-0.015577063895762
5,0.969444492309338,-0.334722238818301,0.190277786858986,-0.000610865245107561,0.00305432616733015,0.000610865245107561
5,0.96666670854283,-0.333333346935047,0.190277786858986,-0.00580321997404099,-0.00916297826915979,-0.0027488935738802
5,0.968055600426084,-0.325000019947452,0.179166676104882,-0.00610865233466029,-0.0204639863222837,0.00916297826915979
5,0.968055600426084,-0.325000019947452,0.179166676104882,-0.0131336031481624,-0.013744467869401,0.0152716310694814
5,0.973611167959101,-0.323611128064198,0.18333333959868,-0.0128281703218818,-0.00427605677396059,0.0171042270958424
5,0.96666670854283,-0.329166671285285,0.17361112072783,-0.0128281703218818,-0.00763581553474069,0.0103847095742822
5,0.96666670854283,-0.329166671285285,0.17361112072783,-0.021685715764761,-0.000610865245107561,-0.00397062394768
5,0.968055600426084,-0.338888890156135,0.181944447715425,-0.0149661982432008,0.00366519158706069,0.00183259579353034
5,0.968055600426084,-0.338888890156135,0.176388892338373,-0.01588249579072,0.01191187184304,-0.011606439948082
5,0.968055600426084,-0.338888890156135,0.176388892338373,-0.0189368221908808,0.00916297826915979,-0.0183259565383196
5,0.969444492309338,-0.333333346935047,0.188888894975731,-0.0164933614432812,-0.00519235478714108,-0.00977384392172098
5,0.965277816659576,-0.327777779402031,0.180555567988136,-0.0189368221908808,-0.00366519158706069,0.0027488935738802
5,0.965277816659576,-0.327777779402031,0.180555567988136,-0.0345138870179653,-0.00824668072164059,-0.00549778714776039
5,0.96666670854283,-0.325000019947452,0.175000000455119,-0.0372627787292004,-0.000305432622553781,-0.00122173049021512
5,0.96666670854283,-0.327777779402031,0.190277786858986,-0.037568211555481,0.0113010071218014,0.000916297896765172
5,0.96666670854283,-0.327777779402031,0.190277786858986,-0.0433714315295219,0.00855211354792118,-0.00244346098043024
5,0.96666670854283,-0.334722238818301,0.184722231481934,-0.0366519130766392,-0.01191187184304,-0.00152716308366507
5,0.969444492309338,-0.33750002258481,0.17361112072783,-0.0342084541916847,-0.00580321997404099,-0.00244346098043024
5,0.969444492309338,-0.33750002258481,0.17361112072783,-0.0348193198442459,-0.00580321997404099,-0.0033597587607801
5,0.973611167959101,-0.340277782039389,0.17361112072783,-0.0339030213654041,-0.00366519158706069,-0.0125227374956012
5,0.976388951725609,-0.333333346935047,0.179166676104882,-0.0280998013913631,-0.00152716308366507,-0.0128281703218818
5,0.973611167959101,-0.336111130701556,0.175000000455119,-0.029626963660121,-0.00763581553474069,-0.00916297826915979
5,0.969444492309338,-0.338888890156135,0.180555567988136,-0.0235183127224445,-0.0171042270958424,0.0027488935738802
5,0.965277816659576,-0.331944455051793,0.188888894975731,-0.0287106670439243,-0.02382374368608,0.00763581553474069
5,0.963888924776322,-0.333333346935047,0.180555567988136,-0.0201585534960032,-0.037568211555481,0.0134390350431204
5,0.976388951725609,-0.331944455051793,0.166666673467524,-0.01588249579072,-0.0387899428606033,0.017409659922123
5,0.970833384192592,-0.327777779402031,0.169444445078067,-0.0128281703218818,-0.0372627787292004,0.0149661982432008
5,0.969444492309338,-0.330555563168539,0.180555567988136,-0.0152716310694814,-0.0253509078174829,0.0131336031481624
5,0.973611167959101,-0.330555563168539,0.175000000455119,-0.01588249579072,-0.0189368221908808,0.00763581553474069
5,0.973611167959101,-0.331944455051793,0.17361112072783,-0.0131336031481624,-0.01191187184304,-0.000916297896765172
5,0.969444492309338,-0.327777779402031,0.172222228844576,-0.0128281703218818,-0.0143553335219622,0.00183259579353034
5,0.970833384192592,-0.334722238818301,0.18333333959868,-0.0100792767480016,-0.0241291765123606,0.0033597587607801
5,0.973611167959101,-0.330555563168539,0.17361112072783,-0.00794124789535999,-0.0171042270958424,0.01588249579072
5,0.970833384192592,-0.331944455051793,0.176388892338373,-0.00763581553474069,-0.013744467869401,0.0103847095742822
5,0.965277816659576,-0.326388911830706,0.18333333959868,-0.0167987942695618,-0.0265726372599602,0.000610865245107561
5,0.96666670854283,-0.325000019947452,0.180555567988136,-0.01588249579072,-0.0232128798961639,0.00519235478714108
5,0.969444492309338,-0.333333346935047,0.179166676104882,-0.0167987942695618,-0.0201585534960032,0.013744467869401
5,0.969444492309338,-0.334722238818301,0.181944447715425,-0.00244346098043024,-0.0287106670439243,0.0204639863222837
5,0.96666670854283,-0.336111130701556,0.168055565350778,-0.000610865245107561,-0.0302378293126821,0.0149661982432008
5,0.969444492309338,-0.336111130701556,0.161111118090472,0.00152716308366507,-0.0201585534960032,0.01191187184304
5,0.963888924776322,-0.336111130701556,0.159722226207217,-0.00152716308366507,-0.0436768643558025,0.0229074470698834
5,0.96666670854283,-0.333333346935047,0.169444445078067,-0.00122173049021512,-0.0467311926186085,0.01588249579072
5,0.968055600426084,-0.334722238818301,0.17361112072783,-0.00488692196086049,-0.0390953756868839,0.0204639863222837
5,0.976388951725609,-0.33750002258481,0.15555556271342,-0.00946841109544039,-0.0222965814173222,0.013744467869401
5,0.969444492309338,-0.336111130701556,0.159722226207217,-0.0103847095742822,-0.0192422550171614,0.0183259565383196
5,0.969444492309338,-0.338888890156135,0.159722226207217,-0.0183259565383196,-0.0299323964864016,0.0198531206697226
5,0.96666670854283,-0.348611133338914,0.166666673467524,-0.0143553335219622,-0.0287106670439243,0.0103847095742822
5,0.96666670854283,-0.348611133338914,0.162500009973726,-0.00977384392172098,-0.021685715764761,0.0177150927484035
5,0.969444492309338,-0.350000000910239,0.151388899219622,-0.00916297826915979,-0.0284052342176437,0.019547687843442
5,0.972222276075846,-0.348611133338914,0.14722222356986,-0.0149661982432008,-0.0201585534960032,0.017409659922123
5,0.976388951725609,-0.341666673922643,0.14722222356986,-0.00305432616733015,-0.0247400421649218,0.011606439948082
5,0.968055600426084,-0.341666673922643,0.154166670830166,-0.0177150927484035,-0.0222965814173222,0.017409659922123
5,0.96666670854283,-0.343055565805897,0.152777778946911,-0.0244346093386412,-0.0293215326964855,0.0207694191485643
5,0.969444492309338,-0.348611133338914,0.152777778946911,-0.0192422550171614,-0.029626963660121,0.0167987942695618
5,0.975000059842355,-0.347222241455659,0.148611115453114,0.000916297896765172,-0.0222965814173222,0.0229074470698834
5,0.968055600426084,-0.344444457689151,0.141666668192807,0.00244346098043024,-0.0232128798961639,0.0189368221908808
5,0.969444492309338,-0.341666673922643,0.154166670830166,-0.00977384392172098,-0.0204639863222837,0.0171042270958424
5,0.972222276075846,-0.340277782039389,0.156944454596674,-0.0122173046693206,-0.013744467869401,0.00885754637420177
5,0.979166735492117,-0.340277782039389,0.151388899219622,-0.0109955742955208,-0.00580321997404099,0.0146607663482428
5,0.969444492309338,-0.344444457689151,0.15555556271342,-0.00733038317412138,-0.0125227374956012,0.0122173046693206
5,0.969444492309338,-0.348611133338914,0.14722222356986,-0.00152716308366507,-0.0131336031481624,0.015577063895762
5,0.969444492309338,-0.352777784676747,0.148611115453114,-0.00549778714776039,-0.017409659922123,0.00763581553474069
5,0.969444492309338,-0.348611133338914,0.150000007336368,-0.00549778714776039,-0.00580321997404099,0.00610865233466029
5,0.973611167959101,-0.348611133338914,0.159722226207217,-0.0143553335219622,0.0131336031481624,0.00152716308366507
5,0.972222276075846,-0.351388892793493,0.154166670830166,-0.0183259565383196,0.00855211354792118,0.00183259579353034
5,0.96666670854283,-0.347222241455659,0.15555556271342,-0.01588249579072,0.0183259565383196,0.00977384392172098
5,0.968055600426084,-0.341666673922643,0.156944454596674,-0.0134390350431204,0.00977384392172098,0.0189368221908808
5,0.968055600426084,-0.344444457689151,0.163888889701015,-0.0103847095742822,0.000305432622553781,0.0290160998702049
5,0.962500032893068,-0.350000000910239,0.156944454596674,-0.00488692196086049,0.00977384392172098,0.0171042270958424
5,0.96666670854283,-0.347222241455659,0.14722222356986,0.00763581553474069,0.00122173049021512,0.0122173046693206
5,0.96666670854283,-0.350000000910239,0.154166670830166,0.0134390350431204,0.00519235478714108,0.00641408516094089
5,0.968055600426084,-0.343055565805897,0.166666673467524,0.015577063895762,0.00824668072164059,0.00916297826915979
5,0.96666670854283,-0.345833349572405,0.158333334323963,0.0177150927484035,-0.000610865245107561,0.01191187184304
5,0.973611167959101,-0.344444457689151,0.150000007336368,0.0183259565383196,0.00885754637420177,0.0100792767480016
5,0.968055600426084,-0.345833349572405,0.152777778946911,0.01588249579072,0.0033597587607801,0.013744467869401
5,0.96666670854283,-0.347222241455659,0.152777778946911,0.0152716310694814,-0.00488692196086049,0.00824668072164059
5,0.969444492309338,-0.348611133338914,0.150000007336368,0.0183259565383196,-0.0106901414692402,0.0103847095742822
5,0.973611167959101,-0.347222241455659,0.148611115453114,0.0207694191485643,-0.00366519158706069,0.013744467869401
5,0.976388951725609,-0.344444457689151,0.156944454596674,0.0180205255746841,-0.00122173049021512,0.0106901414692402
5,0.969444492309338,-0.341666673922643,0.154166670830166,0.0265726372599602,0.00427605677396059,0.0180205255746841
5,0.972222276075846,-0.348611133338914,0.152777778946911,0.0308486949652433,-0.000916297896765172,0.0122173046693206
5,0.96666670854283,-0.341666673922643,0.148611115453114,0.0345138870179653,0.00519235478714108,0.00366519158706069
5,0.973611167959101,-0.340277782039389,0.154166670830166,0.0323758572340012,-0.00946841109544039,-0.0045814891345799
5,0.975000059842355,-0.338888890156135,0.150000007336368,0.0183259565383196,-0.00580321997404099,0.000305432622553781
5,0.970833384192592,-0.33750002258481,0.152777778946911,0.0183259565383196,0.0103847095742822,-0.00183259579353034
5,0.972222276075846,-0.33750002258481,0.148611115453114,0.0171042270958424,0.00733038317412138,0.00763581553474069
5,0.96666670854283,-0.33750002258481,0.14722222356986,0.00885754637420177,0.00641408516094089,0.00305432616733015
5,0.969444492309338,-0.344444457689151,0.152777778946911,0.00152716308366507,0.00763581553474069,-0.00152716308366507
5,0.961111141009813,-0.350000000910239,0.163888889701015,0.00946841109544039,0.00610865233466029,-0.000610865245107561
5,0.96666670854283,-0.345833349572405,0.156944454596674,0.00733038317412138,0.00366519158706069,-0.00397062394768
5,0.965277816659576,-0.340277782039389,0.159722226207217,0.00885754637420177,-0.00733038317412138,0.000305432622553781
5,0.96666670854283,-0.343055565805897,0.162500009973726,0.0100792767480016,-0.00671951752156019,-0.00244346098043024
5,0.968055600426084,-0.344444457689151,0.161111118090472,0.00580321997404099,-0.0045814891345799,-0.00946841109544039
5,0.969444492309338,-0.345833349572405,0.158333334323963,0.00671951752156019,0.00183259579353034,-0.00580321997404099
5,0.969444492309338,-0.347222241455659,0.166666673467524,0.0103847095742822,-0.00122173049021512,-0.00671951752156019
5,0.970833384192592,-0.344444457689151,0.161111118090472,0.0106901414692402,0.000916297896765172,-0.00671951752156019
5,0.976388951725609,-0.341666673922643,0.14722222356986,0.0033597587607801,0.00641408516094089,-0.01191187184304
5,0.96666670854283,-0.345833349572405,0.154166670830166,0.0033597587607801,0.0149661982432008,-0.0106901414692402
5,0.96666670854283,-0.345833349572405,0.152777778946911,0.0033597587607801,0.0180205255746841,-0.0146607663482428
5,0.968055600426084,-0.354166676560001,0.14722222356986,0.00733038317412138,0.0131336031481624,-0.0140499006956816
5,0.963888924776322,-0.348611133338914,0.150000007336368,0.0106901414692402,0.01191187184304,-0.0122173046693206
5,0.969444492309338,-0.348611133338914,0.161111118090472,0.0045814891345799,0.00183259579353034,-0.00763581553474069
5,0.965277816659576,-0.344444457689151,0.154166670830166,-0.000916297896765172,-0.00763581553474069,0.00488692196086049
5,0.96666670854283,-0.340277782039389,0.166666673467524,0.0027488935738802,-0.00763581553474069,0.00885754637420177
5,0.973611167959101,-0.345833349572405,0.16527778158427,-0.00794124789535999,0.00763581553474069,0.00855211354792118
5,0.96666670854283,-0.352777784676747,0.169444445078067,-0.00733038317412138,0.0100792767480016,0.00427605677396059
5,0.965277816659576,-0.348611133338914,0.150000007336368,-0.00152716308366507,0.00122173049021512,0.0106901414692402
5,0.96666670854283,-0.345833349572405,0.148611115453114,0.00397062394768,-0.0109955742955208,0.0192422550171614
5,0.96666670854283,-0.345833349572405,0.148611115453114,-0.000305432622553781,-0.00427605677396059,0.00549778714776039
5,0.969444492309338,-0.347222241455659,0.150000007336368,-0.000610865245107561,-0.00122173049021512,0.00122173049021512
5,0.970833384192592,-0.347222241455659,0.148611115453114,0.0109955742955208,0.00488692196086049,0.00488692196086049
5,0.970833384192592,-0.347222241455659,0.148611115453114,0.000305432622553781,-0.00763581553474069,-0.00244346098043024
5,0.96666670854283,-0.344444457689151,0.15555556271342,0.0143553335219622,-0.00549778714776039,0.00183259579353034
5,0.965277816659576,-0.344444457689151,0.161111118090472,0.00641408516094089,-0.00946841109544039,-0.00641408516094089
5,0.965277816659576,-0.344444457689151,0.161111118090472,0.0113010071218014,-0.00824668072164059,-0.00366519158706069
5,0.96666670854283,-0.343055565805897,0.17361112072783,0.00671951752156019,-0.00641408516094089,0.0100792767480016
5,0.969444492309338,-0.344444457689151,0.15555556271342,0.00946841109544039,0.00824668072164059,0.00427605677396059
5,0.969444492309338,-0.344444457689151,0.15555556271342,0.00183259579353034,0.00641408516094089,0.0033597587607801
5,0.969444492309338,-0.344444457689151,0.158333334323963,-0.000610865245107561,0.00916297826915979,-0.00183259579353034
5,0.968055600426084,-0.344444457689151,0.162500009973726,0.00519235478714108,0.00763581553474069,-0.0113010071218014
5,0.968055600426084,-0.354166676560001,0.168055565350778,0.0100792767480016,0.011606439948082,-0.00488692196086049
5,0.968055600426084,-0.350000000910239,0.162500009973726,0.00855211354792118,0.0149661982432008,-0.0027488935738802
5,0.968055600426084,-0.344444457689151,0.163888889701015,0.0177150927484035,0.00885754637420177,-0.00824668072164059
5,0.96666670854283,-0.345833349572405,0.156944454596674,0.0125227374956012,0.0113010071218014,-0.0021380283869803
5,0.968055600426084,-0.348611133338914,0.166666673467524,0.0103847095742822,0.01588249579072,-0.00641408516094089
5,0.965277816659576,-0.351388892793493,0.158333334323963,0.0183259565383196,0.011606439948082,-0.0033597587607801
5,0.969444492309338,-0.344444457689151,0.158333334323963,0.0146607663482428,0.0143553335219622,-0.00183259579353034
5,0.969444492309338,-0.341666673922643,0.166666673467524,0.0192422550171614,0.0232128798961639,-0.00244346098043024
5,0.968055600426084,-0.343055565805897,0.16527778158427,0.0122173046693206,0.0186313893646002,-0.00641408516094089
5,0.969444492309338,-0.343055565805897,0.170833336961321,0.0146607663482428,0.0109955742955208,-0.00183259579353034
5,0.968055600426084,-0.348611133338914,0.163888889701015,0.0232128798961639,0.0167987942695618,-0.0161879286170006
5,0.970833384192592,-0.344444457689151,0.168055565350778,0.0244346093386412,0.0128281703218818,-0.000916297896765172
5,0.970833384192592,-0.344444457689151,0.168055565350778,0.0183259565383196,0.00977384392172098,-0.00244346098043024
5,0.96666670854283,-0.338888890156135,0.163888889701015,0.0128281703218818,0.00641408516094089,-0.0033597587607801
5,0.962500032893068,-0.33750002258481,0.161111118090472,0.00824668072164059,0.00519235478714108,0.00305432616733015
5,0.963888924776322,-0.33750002258481,0.176388892338373,0.0045814891345799,0.00519235478714108,0.00549778714776039
5,0.972222276075846,-0.344444457689151,0.169444445078067,0.00488692196086049,-0.0021380283869803,0.00763581553474069
5,0.96666670854283,-0.33750002258481,0.180555567988136,0.00427605677396059,-0.00122173049021512,0.0149661982432008
5,0.963888924776322,-0.343055565805897,0.176388892338373,0.00916297826915979,-0.00549778714776039,0.00488692196086049
5,0.968055600426084,-0.348611133338914,0.154166670830166,0.0131336031481624,0.00610865233466029,-0.000305432622553781
5,0.973611167959101,-0.361111135976272,0.158333334323963,0.0128281703218818,0.0027488935738802,-0.00519235478714108
5,0.975000059842355,-0.341666673922643,0.163888889701015,0.00916297826915979,-0.00397062394768,0.00183259579353034
5,0.970833384192592,-0.331944455051793,0.17361112072783,0.00763581553474069,-0.0113010071218014,0.0100792767480016
5,0.965277816659576,-0.334722238818301,0.172222228844576,0.0045814891345799,-0.00397062394768,0.0201585534960032
5,0.968055600426084,-0.330555563168539,0.18333333959868,0.00183259579353034,-0.0186313893646002,0.0235183127224445
5,0.969444492309338,-0.338888890156135,0.175000000455119,0.0146607663482428,-0.0183259565383196,0.0164933614432812
5,0.973611167959101,-0.345833349572405,0.16527778158427,0.00549778714776039,-0.00427605677396059,-0.00305432616733015
5,0.970833384192592,-0.344444457689151,0.15555556271342,0.00488692196086049,0.00855211354792118,-0.0106901414692402
5,0.970833384192592,-0.355555568443255,0.156944454596674,0.0177150927484035,0.0152716310694814,-0.0106901414692402
5,0.965277816659576,-0.348611133338914,0.161111118090472,0.0128281703218818,0.01588249579072,-0.01588249579072
5,0.968055600426084,-0.351388892793493,0.163888889701015,0.00610865233466029,0.00763581553474069,-0.00946841109544039
5,0.969444492309338,-0.340277782039389,0.170833336961321,0.00152716308366507,-0.00397062394768,-0.0021380283869803
5,0.962500032893068,-0.334722238818301,0.179166676104882,-0.00794124789535999,-0.01191187184304,0.013744467869401
5,0.959722249126559,-0.334722238818301,0.16527778158427,-0.00244346098043024,-0.0280998013913631,0.0277943685650826
5,0.96666670854283,-0.334722238818301,0.177777784221628,0.000610865245107561,-0.0259617734700441,0.0332921557128429
5,0.96666670854283,-0.348611133338914,0.168055565350778,0.00244346098043024,-0.0262672062963247,0.0128281703218818
5,0.973611167959101,-0.354166676560001,0.161111118090472,-0.00824668072164059,-0.00519235478714108,0.0045814891345799
5,0.976388951725609,-0.351388892793493,0.148611115453114,-0.00671951752156019,0.0235183127224445,-0.0146607663482428
5,0.968055600426084,-0.354166676560001,0.14722222356986,-0.0045814891345799,0.0366519130766392,-0.0259617734700441
5,0.96666670854283,-0.352777784676747,0.154166670830166,-0.000305432622553781,0.0268780700862408,-0.0256563406437635
5,0.96666670854283,-0.351388892793493,0.163888889701015,0.000305432622553781,0.00366519158706069,-0.0204639863222837
5,0.958333357243305,-0.33750002258481,0.166666673467524,0.00488692196086049,-0.0210748501121998,0.0247400421649218
5,0.958333357243305,-0.33750002258481,0.166666673467524,0.00122173049021512,-0.0412334054708481,0.037568211555481
5,0.959722249126559,-0.325000019947452,0.177777784221628,0.0027488935738802,-0.078801617026329,0.0598647929728031
5,0.969444492309338,-0.333333346935047,0.176388892338373,0.00855211354792118,-0.076052725315094,0.0632245540618896
5,0.970833384192592,-0.340277782039389,0.161111118090472,0.00488692196086049,-0.0629191175103188,0.0488692186772823
5,0.976388951725609,-0.347222241455659,0.162500009973726,0.00519235478714108,-0.0366519130766392,0.0280998013913631
5,0.972222276075846,-0.358333352209763,0.163888889701015,0.00366519158706069,-0.00794124789535999,-0.00305432616733015
5,0.970833384192592,-0.351388892793493,0.159722226207217,0.000610865245107561,0.0131336031481624,-0.0229074470698834
5,0.973611167959101,-0.347222241455659,0.15555556271342,-0.00366519158706069,0.0128281703218818,-0.0387899428606033
5,0.970833384192592,-0.343055565805897,0.163888889701015,-0.0140499006956816,0.0027488935738802,-0.0323758572340012
5,0.96666670854283,-0.344444457689151,0.161111118090472,0.00152716308366507,-0.00977384392172098,-0.0232128798961639
5,0.962500032893068,-0.350000000910239,0.156944454596674,0.000916297896765172,-0.0128281703218818,-0.0161879286170006
5,0.959722249126559,-0.355555568443255,0.154166670830166,0.00763581553474069,-0.0204639863222837,-0.0164933614432812
5,0.962500032893068,-0.354166676560001,0.15555556271342,0.0204639863222837,-0.0265726372599602,-0.00244346098043024
5,0.962500032893068,-0.347222241455659,0.150000007336368,0.0122173046693206,-0.0213802829384804,0.0113010071218014
5,0.972222276075846,-0.344444457689151,0.158333334323963,0.00916297826915979,-0.00305432616733015,0.00610865233466029
5,0.969444492309338,-0.343055565805897,0.159722226207217,0.000610865245107561,-0.00152716308366507,-0.000305432622553781
5,0.962500032893068,-0.344444457689151,0.162500009973726,-0.0146607663482428,-0.0103847095742822,-0.0045814891345799
5,0.96666670854283,-0.345833349572405,0.154166670830166,-0.0128281703218818,-0.00885754637420177,-0.00916297826915979
5,0.962500032893068,-0.345833349572405,0.150000007336368,-0.00733038317412138,-0.00305432616733015,-0.00549778714776039
5,0.969444492309338,-0.344444457689151,0.154166670830166,-0.00305432616733015,-0.0106901414692402,0.000610865245107561
5,0.968055600426084,-0.341666673922643,0.166666673467524,-0.00122173049021512,-0.0125227374956012,0.00580321997404099
5,0.969444492309338,-0.343055565805897,0.158333334323963,0.0021380283869803,-0.0207694191485643,0.00885754637420177
5,0.968055600426084,-0.344444457689151,0.162500009973726,0.00733038317412138,-0.0152716310694814,0.00488692196086049
5,0.969444492309338,-0.348611133338914,0.154166670830166,0.0143553335219622,-0.00855211354792118,0.00366519158706069
5,0.970833384192592,-0.344444457689151,0.14722222356986,0.0171042270958424,-0.00641408516094089,0.00427605677396059
5,0.968055600426084,-0.341666673922643,0.158333334323963,0.0161879286170006,0.00244346098043024,0.00366519158706069
5,0.968055600426084,-0.341666673922643,0.166666673467524,0.0103847095742822,0.0045814891345799,0.00885754637420177
5,0.96666670854283,-0.341666673922643,0.159722226207217,0.0140499006956816,0.00977384392172098,0.00244346098043024
5,0.969444492309338,-0.344444457689151,0.14583334384257,0.00885754637420177,-0.000305432622553781,-0.0027488935738802
5,0.972222276075846,-0.348611133338914,0.151388899219622,0.00305432616733015,-0.000610865245107561,-0.0027488935738802
5,0.973611167959101,-0.352777784676747,0.141666668192807,0.01588249579072,0.00305432616733015,0.00397062394768
5,0.968055600426084,-0.348611133338914,0.14722222356986,0.0149661982432008,-0.00885754637420177,0.00641408516094089
5,0.969444492309338,-0.347222241455659,0.144444451959316,0.0198531206697226,-0.00183259579353034,-0.00122173049021512
5,0.969444492309338,-0.348611133338914,0.14722222356986,0.013744467869401,0.0045814891345799,-0.01191187184304
5,0.969444492309338,-0.343055565805897,0.152777778946911,0.00916297826915979,0.00671951752156019,-0.00733038317412138
5,0.970833384192592,-0.343055565805897,0.156944454596674,0.000610865245107561,0.0164933614432812,-0.00488692196086049
5,0.969444492309338,-0.347222241455659,0.15555556271342,0.00122173049021512,0.019547687843442,-0.00763581553474069
5,0.961111141009813,-0.344444457689151,0.156944454596674,0.000305432622553781,0.00702495034784079,-0.00641408516094089
5,0.969444492309338,-0.350000000910239,0.158333334323963,-0.0131336031481624,0.00702495034784079,-0.00702495034784079
5,0.972222276075846,-0.344444457689151,0.156944454596674,-0.0140499006956816,0.0100792767480016,0.000610865245107561
5,0.969444492309338,-0.338888890156135,0.162500009973726,-0.0250454749912024,0.00549778714776039,-0.000916297896765172
5,0.969444492309338,-0.338888890156135,0.162500009973726,-0.0134390350431204,0.00763581553474069,-0.00366519158706069
5,0.969444492309338,-0.351388892793493,0.154166670830166,-0.00977384392172098,0.00610865233466029,-0.00855211354792118
5,0.973611167959101,-0.351388892793493,0.156944454596674,-0.00152716308366507,0.0180205255746841,-0.0113010071218014
5,0.973611167959101,-0.351388892793493,0.156944454596674,0.00916297826915979,0.029626963660121,-0.00916297826915979
5,0.969444492309338,-0.341666673922643,0.161111118090472,0.00702495034784079,0.0265726372599602,-0.00702495034784079
5,0.961111141009813,-0.350000000910239,0.168055565350778,0.00397062394768,0.0329867228865623,-0.00488692196086049
5,0.961111141009813,-0.350000000910239,0.168055565350778,0.015577063895762,0.0397062413394451,-0.0100792767480016
5,0.965277816659576,-0.348611133338914,0.161111118090472,0.0103847095742822,0.0311541277915239,-0.0146607663482428
5,0.968055600426084,-0.344444457689151,0.154166670830166,0.00519235478714108,0.0308486949652433,-0.00977384392172098
5,0.968055600426084,-0.344444457689151,0.154166670830166,0.00946841109544039,0.0363464802503586,0.000916297896765172
5,0.96666670854283,-0.351388892793493,0.15555556271342,0.0143553335219622,0.0250454749912024,0.0122173046693206
5,0.965277816659576,-0.348611133338914,0.154166670830166,0.013744467869401,0.0259617734700441,0.00824668072164059
5,0.969444492309338,-0.345833349572405,0.156944454596674,0.0177150927484035,0.0219911485910416,0.00397062394768
5,0.969444492309338,-0.351388892793493,0.152777778946911,0.0125227374956012,0.0302378293126821,0.000610865245107561
5,0.969444492309338,-0.348611133338914,0.15555556271342,0.0131336031481624,0.0305432621389627,-0.00519235478714108
5,0.975000059842355,-0.344444457689151,0.158333334323963,0.0149661982432008,0.0421497002243996,-0.00855211354792118
5,0.973611167959101,-0.344444457689151,0.16527778158427,0.00885754637420177,0.0488692186772823,-0.00733038317412138
5,0.96666670854283,-0.340277782039389,0.161111118090472,0.00152716308366507,0.0400116741657257,-0.00855211354792118
5,0.968055600426084,-0.341666673922643,0.156944454596674,-0.000610865245107561,0.0406225398182869,-0.00763581553474069
5,0.96666670854283,-0.344444457689151,0.161111118090472,0.00244346098043024,0.0210748501121998,-0.0167987942695618
5,0.96666670854283,-0.344444457689151,0.181944447715425,0.00702495034784079,0.0302378293126821,-0.0262672062963247
5,0.96666670854283,-0.344444457689151,0.166666673467524,-0.00152716308366507,0.0189368221908808,-0.0198531206697226
5,0.977777843608863,-0.340277782039389,0.166666673467524,0.00916297826915979,0.0229074470698834,-0.0192422550171614
5,0.969444492309338,-0.344444457689151,0.169444445078067,0.0106901414692402,0.027488935738802,-0.0100792767480016
5,0.969444492309338,-0.343055565805897,0.169444445078067,0.00488692196086049,0.0421497002243996,-0.0183259565383196
5,0.968055600426084,-0.348611133338914,0.172222228844576,0.000916297896765172,0.0329867228865623,-0.0164933614432812
5,0.96666670854283,-0.344444457689151,0.176388892338373,0.00671951752156019,0.0323758572340012,-0.0360410511493683
5,0.96666670854283,-0.33750002258481,0.181944447715425,0.00152716308366507,0.0314595587551594,-0.0439822971820831
5,0.979166735492117,-0.325000019947452,0.193055558469529,-0.000610865245107561,0.0409279726445675,-0.0226020142436027
5,0.983333411141879,-0.322222236180943,0.181944447715425,-0.0177150927484035,0.0452040284872055,-0.0351247526705265
5,0.975000059842355,-0.330555563168539,0.172222228844576,-0.0222965814173222,0.0360410511493683,-0.0186313893646002
5,0.958333357243305,-0.336111130701556,0.172222228844576,-0.0235183127224445,0.0271835029125214,-0.0207694191485643
5,0.959722249126559,-0.336111130701556,0.180555567988136,-0.0180205255746841,0.0250454749912024,-0.013744467869401
5,0.965277816659576,-0.331944455051793,0.179166676104882,-0.000610865245107561,0.015577063895762,0.000305432622553781
5,0.96666670854283,-0.336111130701556,0.180555567988136,-0.0122173046693206,0.0256563406437635,0.00366519158706069
5,0.973611167959101,-0.33750002258481,0.172222228844576,-0.00152716308366507,0.02382374368608,0.0128281703218818
5,0.969444492309338,-0.336111130701556,0.181944447715425,0.00641408516094089,0.00610865233466029,0.0113010071218014
5,0.965277816659576,-0.336111130701556,0.180555567988136,0.00549778714776039,-0.0177150927484035,0.00885754637420177
5,0.965277816659576,-0.331944455051793,0.18333333959868,0.00855211354792118,-0.00641408516094089,0.00824668072164059
5,0.970833384192592,-0.333333346935047,0.186111123365188,-0.000305432622553781,-0.000305432622553781,0.0152716310694814
5,0.969444492309338,-0.33750002258481,0.180555567988136,-0.00366519158706069,0.00824668072164059,0.0131336031481624
5,0.96666670854283,-0.334722238818301,0.17361112072783,-0.0021380283869803,-0.0033597587607801,0.0045814891345799
5,0.965277816659576,-0.33750002258481,0.180555567988136,0.00152716308366507,-0.00580321997404099,0.00488692196086049
5,0.96666670854283,-0.330555563168539,0.170833336961321,0.0103847095742822,0.000305432622553781,0.00122173049021512
5,0.970833384192592,-0.331944455051793,0.17361112072783,0.00855211354792118,0.000610865245107561,0.00946841109544039
5,0.973611167959101,-0.327777779402031,0.18333333959868,0.00916297826915979,0.0128281703218818,0.00885754637420177
5,0.970833384192592,-0.33750002258481,0.180555567988136,0.00702495034784079,0.00366519158706069,0.0131336031481624
5,0.96666670854283,-0.338888890156135,0.168055565350778,0.0219911485910416,0.00702495034784079,0.0131336031481624
5,0.96666670854283,-0.351388892793493,0.156944454596674,0.0204639863222837,0.00946841109544039,0.0125227374956012
5,0.968055600426084,-0.345833349572405,0.166666673467524,0.0256563406437635,0.00916297826915979,0.00794124789535999
5,0.968055600426084,-0.334722238818301,0.168055565350778,0.02382374368608,0.0021380283869803,0.00152716308366507
5,0.970833384192592,-0.327777779402031,0.170833336961321,0.0308486949652433,-0.00549778714776039,0.01588249579072
5,0.972222276075846,-0.334722238818301,0.176388892338373,0.0290160998702049,0.0021380283869803,0.017409659922123
5,0.972222276075846,-0.334722238818301,0.175000000455119,0.0244346093386412,0.00519235478714108,0.0146607663482428
5,0.96666670854283,-0.343055565805897,0.169444445078067,0.0198531206697226,0.00824668072164059,0.00916297826915979
5,0.962500032893068,-0.344444457689151,0.175000000455119,0.0226020142436027,-0.0021380283869803,0.0143553335219622
5,0.962500032893068,-0.334722238818301,0.17361112072783,0.0372627787292004,0.0033597587607801,0.00977384392172098
5,0.970833384192592,-0.336111130701556,0.18333333959868,0.0332921557128429,0.000916297896765172,0.0027488935738802
5,0.963888924776322,-0.338888890156135,0.176388892338373,0.0253509078174829,-0.00244346098043024,0.000916297896765172
5,0.968055600426084,-0.334722238818301,0.179166676104882,0.0314595587551594,0.015577063895762,-0.00885754637420177
5,0.973611167959101,-0.331944455051793,0.179166676104882,0.0387899428606033,0.0134390350431204,-0.0122173046693206
5,0.962500032893068,-0.325000019947452,0.180555567988136,0.0439822971820831,0.00977384392172098,-0.011606439948082
5,0.968055600426084,-0.329166671285285,0.181944447715425,0.0348193198442459,-0.00305432616733015,0.00397062394768
5,0.969444492309338,-0.331944455051793,0.18333333959868,0.0134390350431204,-0.00671951752156019,-0.00366519158706069
5,0.969444492309338,-0.333333346935047,0.180555567988136,0.00946841109544039,-0.000305432622553781,-0.00427605677396059
5,0.965277816659576,-0.333333346935047,0.177777784221628,0.000305432622553781,0.0021380283869803,-0.0106901414692402
5,0.972222276075846,-0.341666673922643,0.180555567988136,0.00855211354792118,-0.000305432622553781,0.000916297896765172
5,0.970833384192592,-0.334722238818301,0.186111123365188,-0.000305432622553781,0.0033597587607801,-0.0222965814173222
5,0.968055600426084,-0.334722238818301,0.187500003092477,-0.011606439948082,0.00580321997404099,-0.0222965814173222
5,0.968055600426084,-0.336111130701556,0.18333333959868,-0.0171042270958424,0.00763581553474069,-0.0259617734700441
5,0.973611167959101,-0.333333346935047,0.18333333959868,-0.0244346093386412,0.0131336031481624,-0.0198531206697226
5,0.972222276075846,-0.334722238818301,0.180555567988136,-0.0213802829384804,0.0134390350431204,-0.013744467869401
5,0.972222276075846,-0.334722238818301,0.180555567988136,-0.0213802829384804,0.0244346093386412,-0.0229074470698834
5,0.975000059842355,-0.336111130701556,0.181944447715425,-0.0222965814173222,0.02382374368608,-0.0232128798961639
5,0.969444492309338,-0.334722238818301,0.181944447715425,-0.0262672062963247,0.01588249579072,-0.0103847095742822
5,0.963888924776322,-0.338888890156135,0.187500003092477,-0.0201585534960032,0.00549778714776039,-0.0109955742955208
5,0.961111141009813,-0.341666673922643,0.180555567988136,-0.0146607663482428,0.0033597587607801,-0.0146607663482428
5,0.970833384192592,-0.338888890156135,0.18333333959868,0.00152716308366507,0.00519235478714108,-0.00794124789535999
5,0.972222276075846,-0.334722238818301,0.170833336961321,0.00916297826915979,0.00855211354792118,0.000916297896765172
5,0.959722249126559,-0.325000019947452,0.175000000455119,0.00183259579353034,0.015577063895762,-0.00244346098043024
5,0.965277816659576,-0.333333346935047,0.168055565350778,-0.000610865245107561,0.0045814891345799,-0.000916297896765172
5,0.969444492309338,-0.327777779402031,0.187500003092477,0.00610865233466029,0.0149661982432008,0.0033597587607801
5,0.969444492309338,-0.327777779402031,0.193055558469529,0.00549778714776039,0.0204639863222837,0.000610865245107561
5,0.965277816659576,-0.334722238818301,0.187500003092477,-0.0134390350431204,0.0219911485910416,-0.00183259579353034
5,0.959722249126559,-0.33750002258481,0.184722231481934,-0.0113010071218014,0.0134390350431204,0.000305432622553781
5,0.962500032893068,-0.336111130701556,0.181944447715425,-0.00152716308366507,0.00641408516094089,0.0033597587607801
5,0.970833384192592,-0.331944455051793,0.187500003092477,0.00763581553474069,0.000916297896765172,-0.00946841109544039
5,0.973611167959101,-0.330555563168539,0.180555567988136,-0.00671951752156019,0.01588249579072,0.0033597587607801
5,0.962500032893068,-0.334722238818301,0.18333333959868,-0.0140499006956816,0.0128281703218818,-0.00794124789535999
5,0.962500032893068,-0.334722238818301,0.187500003092477,-0.00671951752156019,0.00885754637420177,-0.00549778714776039
5,0.963888924776322,-0.33750002258481,0.187500003092477,0.0021380283869803,0.00580321997404099,-0.00641408516094089
5,0.963888924776322,-0.33750002258481,0.187500003092477,0.0122173046693206,0.00152716308366507,0.0109955742955208
5,0.962500032893068,-0.33750002258481,0.187500003092477,0.0226020142436027,-0.0122173046693206,0.000305432622553781
5,0.96666670854283,-0.327777779402031,0.180555567988136,0.0222965814173222,-0.0140499006956816,0.00763581553474069
5,0.96666670854283,-0.327777779402031,0.180555567988136,0.0226020142436027,-0.017409659922123,0.0210748501121998
5,0.970833384192592,-0.340277782039389,0.190277786858986,0.0262672062963247,-0.0128281703218818,0.01191187184304
5,0.969444492309338,-0.327777779402031,0.186111123365188,0.0390953756868839,-0.0109955742955208,0.0164933614432812
5,0.969444492309338,-0.327777779402031,0.186111123365188,0.0357356183230877,0.0033597587607801,-0.00427605677396059
5,0.969444492309338,-0.331944455051793,0.18333333959868,0.0323758572340012,0.00152716308366507,-0.00549778714776039
5,0.972222276075846,-0.325000019947452,0.180555567988136,0.0226020142436027,-0.00366519158706069,-0.0033597587607801
5,0.972222276075846,-0.325000019947452,0.180555567988136,0.01588249579072,-0.00183259579353034,-0.00885754637420177
5,0.970833384192592,-0.313888909193348,0.186111123365188,0.0033597587607801,-0.00122173049021512,-0.0045814891345799
5,0.973611167959101,-0.319444452414435,0.187500003092477,-0.011606439948082,0.00397062394768,-0.00152716308366507
5,0.970833384192592,-0.327777779402031,0.188888894975731,-0.0186313893646002,0.0152716310694814,-0.00122173049021512
5,0.970833384192592,-0.327777779402031,0.188888894975731,-0.017409659922123,0.0128281703218818,0.00733038317412138
5,0.96666670854283,-0.341666673922643,0.18333333959868,-0.01191187184304,0.0161879286170006,0.000305432622553781
5,0.962500032893068,-0.343055565805897,0.17361112072783,-0.00427605677396059,0.0128281703218818,-0.00763581553474069
5,0.962500032893068,-0.343055565805897,0.17361112072783,0.00977384392172098,0.0109955742955208,-0.00916297826915979
5,0.958333357243305,-0.33750002258481,0.180555567988136,0.00733038317412138,0.0113010071218014,-0.00763581553474069
5,0.965277816659576,-0.325000019947452,0.187500003092477,0.0201585534960032,0.0021380283869803,0.0045814891345799
5,0.970833384192592,-0.323611128064198,0.180555567988136,-0.000916297896765172,0.00610865233466029,0.00580321997404099
5,0.972222276075846,-0.327777779402031,0.180555567988136,-0.011606439948082,0.00427605677396059,0.00427605677396059
5,0.968055600426084,-0.334722238818301,0.180555567988136,-0.00488692196086049,0.000916297896765172,0.01191187184304
5,0.96666670854283,-0.331944455051793,0.180555567988136,0.00702495034784079,-0.0027488935738802,0.00488692196086049
5,0.968055600426084,-0.327777779402031,0.177777784221628,0.0183259565383196,-0.00122173049021512,0.00855211354792118
5,0.968055600426084,-0.323611128064198,0.180555567988136,0.00122173049021512,-0.0045814891345799,0.0103847095742822
5,0.970833384192592,-0.322222236180943,0.181944447715425,-0.0143553335219622,-0.00610865233466029,0.00366519158706069
5,0.968055600426084,-0.334722238818301,0.17361112072783,-0.00366519158706069,-0.00244346098043024,0.00702495034784079
5,0.970833384192592,-0.336111130701556,0.18333333959868,0.000916297896765172,-0.00610865233466029,0.00702495034784079
5,0.96666670854283,-0.331944455051793,0.18333333959868,-0.00305432616733015,-0.01191187184304,0.0161879286170006
5,0.96666670854283,-0.327777779402031,0.180555567988136,0.000305432622553781,-0.0171042270958424,0.00397062394768
5,0.969444492309338,-0.331944455051793,0.181944447715425,-0.00397062394768,-0.00244346098043024,0.0021380283869803
5,0.965277816659576,-0.330555563168539,0.186111123365188,-0.00519235478714108,-0.00244346098043024,0.00122173049021512
5,0.969444492309338,-0.334722238818301,0.187500003092477,-0.01588249579072,-0.00885754637420177,0.0027488935738802
5,0.963888924776322,-0.33750002258481,0.184722231481934,-0.0109955742955208,-0.00977384392172098,0.00397062394768
5,0.96666670854283,-0.341666673922643,0.180555567988136,-0.01191187184304,-0.00305432616733015,0.00488692196086049
5,0.96666670854283,-0.344444457689151,0.190277786858986,-0.00519235478714108,0.00794124789535999,0.00244346098043024
5,0.962500032893068,-0.340277782039389,0.180555567988136,-0.00671951752156019,0.0113010071218014,0.000305432622553781
5,0.963888924776322,-0.340277782039389,0.179166676104882,-0.00122173049021512,-0.00580321997404099,-0.00122173049021512
5,0.963888924776322,-0.338888890156135,0.176388892338373,0.00488692196086049,-0.0027488935738802,0.000305432622553781
5,0.970833384192592,-0.336111130701556,0.172222228844576,0.0033597587607801,-0.00427605677396059,0.00397062394768
5,0.970833384192592,-0.334722238818301,0.176388892338373,-0.0021380283869803,-0.00702495034784079,0.0045814891345799
5,0.96666670854283,-0.33750002258481,0.184722231481934,0.00580321997404099,-0.00427605677396059,0.00244346098043024
5,0.968055600426084,-0.340277782039389,0.17361112072783,0.0113010071218014,0.00183259579353034,0.00244346098043024
5,0.973611167959101,-0.345833349572405,0.18333333959868,0.0164933614432812,0.000916297896765172,-0.00610865233466029
5,0.970833384192592,-0.341666673922643,0.18333333959868,0.0134390350431204,0.00519235478714108,-0.00488692196086049
5,0.96666670854283,-0.33750002258481,0.180555567988136,0.0152716310694814,-0.0109955742955208,-0.000610865245107561
5,0.965277816659576,-0.334722238818301,0.169444445078067,0.0149661982432008,-0.00183259579353034,-0.000610865245107561
5,0.969444492309338,-0.334722238818301,0.166666673467524,0.0204639863222837,-0.0100792767480016,0.00671951752156019
5,0.973611167959101,-0.336111130701556,0.17361112072783,0.0027488935738802,0.00885754637420177,0.00183259579353034
5,0.963888924776322,-0.331944455051793,0.176388892338373,0.00733038317412138,0.00855211354792118,0.0033597587607801
5,0.965277816659576,-0.331944455051793,0.18333333959868,0.00763581553474069,0.00610865233466029,-0.00763581553474069
5,0.963888924776322,-0.33750002258481,0.18333333959868,0.01191187184304,-0.00244346098043024,-0.0106901414692402
5,0.965277816659576,-0.33750002258481,0.180555567988136,0.0189368221908808,-0.0113010071218014,0.00366519158706069
5,0.969444492309338,-0.334722238818301,0.18333333959868,0.0100792767480016,-0.000305432622553781,-0.0152716310694814
5,0.969444492309338,-0.334722238818301,0.190277786858986,0.0192422550171614,-0.00122173049021512,-0.0125227374956012
5,0.96666670854283,-0.330555563168539,0.186111123365188,0.00977384392172098,0.00183259579353034,-0.01191187184304
5,0.968055600426084,-0.330555563168539,0.180555567988136,0.00641408516094089,0.000610865245107561,-0.00641408516094089
5,0.968055600426084,-0.331944455051793,0.184722231481934,0.00824668072164059,-0.00763581553474069,-0.0100792767480016
5,0.975000059842355,-0.334722238818301,0.176388892338373,0.00183259579353034,0.0027488935738802,-0.01191187184304
5,0.965277816659576,-0.330555563168539,0.175000000455119,0.0103847095742822,0.00244346098043024,-0.00946841109544039
5,0.969444492309338,-0.333333346935047,0.175000000455119,0.00763581553474069,0.00855211354792118,0.00183259579353034
5,0.970833384192592,-0.330555563168539,0.179166676104882,0.0125227374956012,0.013744467869401,-0.0109955742955208
5,0.976388951725609,-0.329166671285285,0.181944447715425,0.0183259565383196,0.0100792767480016,-0.00580321997404099
5,0.969444492309338,-0.325000019947452,0.176388892338373,0.011606439948082,0.0177150927484035,-0.01588249579072
5,0.962500032893068,-0.325000019947452,0.163888889701015,0.00702495034784079,0.00794124789535999,-0.00427605677396059
5,0.96666670854283,-0.329166671285285,0.176388892338373,0.00946841109544039,0.00366519158706069,0.0021380283869803
5,0.972222276075846,-0.331944455051793,0.187500003092477,0.00366519158706069,-0.000305432622553781,-0.00427605677396059
5,0.969444492309338,-0.326388911830706,0.18333333959868,0.00977384392172098,0.00733038317412138,-0.00519235478714108
5,0.970833384192592,-0.325000019947452,0.177777784221628,0.00702495034784079,0.00244346098043024,-0.0027488935738802
