Activity,acc_x,acc_y,acc_z,gyro_x,gyro_y,gyro_z
0,0.80277780668585,0.262500006760661,0.570833348420992,0.0864374339580536,-0.0198531206697226,0.0888808965682983
0,0.798611131036088,0.25555557165632,0.562499997121468,0.0131336031481624,0.0433714315295219,0.0751364231109619
0,0.78333336894415,0.240277785252453,0.58611111051293,-0.0525344125926495,0.200363799929619,-0.0421497002243996
0,0.78333336894415,0.240277785252453,0.58611111051293,-0.0723875313997269,0.202196389436722,-0.0332921557128429
0,0.78333336894415,0.240277785252453,0.58611111051293,-0.113010071218014,0.188451930880547,0.0134390350431204
0,0.78333336894415,0.240277785252453,0.58611111051293,-0.113010071218014,0.188451930880547,0.0134390350431204
0,0.763888931202451,0.259722222994153,0.600000029345471,-0.16371189057827,0.146302223205566,0.419053554534912
0,0.813888941751883,0.25555557165632,0.611111115787646,0.0232128798961639,0.000610865245107561,0.0207694191485643
0,0.777777801411134,0.236111109602691,0.606944488761742,-0.0287106670439243,-0.0439822971820831,0.0442877300083637
0,0.786111152710659,0.227777782615095,0.597222245578963,-0.027488935738802,-0.000610865245107561,-0.00427605677396059
0,0.780555585177642,0.223611131277262,0.590277786162692,-0.0406225398182869,0.0259617734700441,-0.0326812900602817
0,0.786111152710659,0.234722242031366,0.588888894279438,-0.0513126812875271,0.0836885422468185,-0.0247400421649218
0,0.788888936477167,0.241666677135707,0.591666678045946,-0.0647517144680023,0.0806342139840126,0.00366519158706069
0,0.788888936477167,0.241666677135707,0.591666678045946,-0.0314595587551594,0.0259617734700441,0.00885754637420177
0,0.779166693294388,0.233333350148112,0.611111115787646,-0.0128281703218818,-0.00824668072164059,0.0186313893646002
0,0.768055606852213,0.227777782615095,0.600000029345471,-0.00244346098043024,-0.0638354197144508,-0.02382374368608
0,0.775000017644626,0.229166674498349,0.594444461812454,0.00794124789535999,0.0421497002243996,-0.0519235469400883
0,0.78333336894415,0.240277785252453,0.601388921228725,-0.0458148941397667,0.0522289797663689,-0.0549778714776039
0,0.779166693294388,0.244444460902216,0.594444461812454,-0.0833831056952477,0.087659165263176,-0.0708603709936142
0,0.781944477060896,0.238888893369199,0.590277786162692,-0.0122173046693206,-0.00641408516094089,-0.0751364231109619
0,0.781944477060896,0.237500001485945,0.573611132187501,0.0439822971820831,-0.0500909499824047,-0.0577267669141293
0,0.794444455386325,0.241666677135707,0.568055564654484,0.03176499158144,0.0125227374956012,-0.0681114718317986
0,0.790277828360421,0.244444460902216,0.555555586329055,-0.0265726372599602,0.0620028227567673,-0.0870482996106148
0,0.790277828360421,0.244444460902216,0.555555586329055,0.0222965814173222,0.0335975885391235,-0.0601702257990837
0,0.790277828360421,0.244444460902216,0.555555586329055,0.00763581553474069,0.0253509078174829,-0.0485637858510017
0,0.790277828360421,0.262500006760661,0.608333332021137,-0.0131336031481624,0.0167987942695618,-0.0387899428606033
0,0.791666671619817,0.250000004123303,0.601388921228725,-0.00855211354792118,-0.00794124789535999,-0.0412334054708481
0,0.791666671619817,0.250000004123303,0.601388921228725,-0.00855211354792118,-0.00794124789535999,-0.0412334054708481
0,0.795833347269579,0.259722222994153,0.615277791437408,-0.0335975885391235,0.0873537287116051,-0.00580321997404099
0,0.815277785011279,0.258333331110899,0.640277796712124,-0.0552833043038845,0.0219911485910416,-0.0613919571042061
0,0.880555606276507,0.273611117514765,0.666666693870094,-0.0668897479772568,-0.0922406539320946,-0.0842994004487991
0,0.952777789710289,0.300000014672736,0.683333347845286,0.0210748501121998,-0.141109868884087,-0.138971850275993
0,1.00138890837647,0.368055571080613,0.663888910103586,0.0653625801205635,-0.725402474403381,0.193338856101036
0,1.00138890837647,0.368055571080613,0.663888910103586,0.0943786799907684,-0.806342124938965,0.224187538027763
0,1.00555558402623,0.377777789951463,0.601388921228725,0.11636982858181,-0.732122004032135,0.483805269002914
0,1.00555558402623,0.377777789951463,0.601388921228725,0.0720821022987366,-0.577267646789551,0.567188382148743
0,0.806944482335612,0.266666682410424,0.529166689171085,0.0809396430850029,-0.408974289894104,0.696080923080444
0,0.806944482335612,0.266666682410424,0.529166689171085,0.081855945289135,-0.315511912107468,0.695164620876312
0,0.598611137462217,0.13750000469901,0.481944462388161,0.0754418596625328,-0.326202034950256,0.639270484447479
0,0.515277818962402,0.0916666697993398,0.44583337067127,0.230601623654366,-0.395840674638748,0.547640681266785
0,0.515277818962402,0.0916666697993398,0.44583337067127,0.249538451433182,-0.333532422780991,0.30207285284996
0,0.473611111088636,0.0416666683668809,0.406944470875941,0.279776275157929,-0.155465200543404,0.0558941699564457
0,0.412500014097029,0.0236111118719664,0.394444468238583,0.244346097111702,0.00763581553474069,-0.229990765452385
0,0.412500014097029,0.0236111118719664,0.394444468238583,0.115453533828259,0.324674874544144,-0.546724379062653
0,0.412500014097029,0.0236111118719664,0.394444468238583,0.152410879731178,0.456621766090393,-0.67683869600296
0,0.587500002396184,0.0375000018340919,0.486111138037923,0.198225766420364,0.641408503055573,-0.950811743736267
0,0.654166666920807,0.0625000010308258,0.533333364820847,0.0650571510195732,0.75594574213028,-1.18538403511047
0,0.797222239152834,0.163888889701015,0.601388921228725,0.0366519130766392,0.728151381015778,-1.133460521698
0,1.02361117850853,0.281944444502361,0.702777785586986,0.175318330526352,0.357661604881287,-0.927598893642426
0,1.10000003759208,0.323611128064198,0.725000007095193,0.308792382478714,-0.139277279376984,-0.697608113288879
0,1.2402778260576,0.434722235605237,0.743055601577497,0.307265222072601,-0.336892187595367,-0.526260435581207
0,1.34444452280622,0.561111153862072,0.740277817810989,0.150883719325066,-0.434936046600342,-0.123700208961964
0,1.36805558757383,0.650000039894903,0.716666704419527,-0.015577063895762,-0.361632227897644,0.282525181770325
0,1.30277786355631,0.627777818386695,0.666666693870094,-0.142331600189209,-0.368046313524246,0.64049220085144
0,1.1652778588573,0.54027777561326,0.620833358970425,-0.141109868884087,-0.413250327110291,0.928515195846558
0,0.912500022343635,0.390277792588821,0.54722223502953,-0.0699440687894821,-0.479529231786728,1.06473815441132
0,0.831944487610329,0.330555563168539,0.525000013521323,0.00183259579353034,-0.499382346868515,1.08306407928467
0,0.687500023495048,0.237500001485945,0.486111138037923,0.0708603709936142,-0.457538068294525,0.935234665870667
0,0.569444456537738,0.15555556271342,0.447222262554524,0.0510072484612465,-0.397978693246841,0.702800452709198
0,0.488888921804431,0.0861111144222878,0.416666689746791,0.0500909499824047,-0.319482535123825,0.450207680463791
0,0.430555559955475,0.0458333348996699,0.406944470875941,0.0949895456433296,-0.217162594199181,0.204639852046967
0,0.391666684472075,0.0388888906783549,0.390277792588821,0.125838235020638,-0.0534507073462009,-0.0620028227567673
0,0.380555573717971,0.055555559848502,0.411111122213775,0.0708603709936142,0.118202425539494,-0.225714713335037
0,0.400000011459671,0.0638888929140799,0.44583337067127,-0.0247400421649218,0.366519153118133,-0.458148926496506
0,0.449999997697174,0.0597222233422998,0.508333359546131,-0.124921940267086,0.62491512298584,-0.837801694869995
0,0.562499997121468,0.0972222251763917,0.555555586329055,-0.219300627708435,0.674700677394867,-1.02503192424774
0,0.75000001236991,0.180555567988136,0.608333332021137,-0.157297804951668,0.480140089988708,-1.02197754383087
0,0.99583334084345,0.325000019947452,0.644444472361887,-0.0152716310694814,0.230601623654366,-0.822835505008698
0,1.22638890722505,0.430555559955475,0.652777823661411,0.0568104684352875,-0.108123145997524,-0.50793445110321
0,1.37777783075661,0.486111138037923,0.647222256128395,-0.0733038261532784,-0.0879645943641663,-0.44898596405983
0,1.41111113870699,0.559722261978817,0.637500012945616,-0.197004035115242,-0.0143553335219622,-0.320398807525635
0,1.34166673903971,0.587500002396184,0.625000034620187,-0.214108273386955,-0.102014496922493,0.109039448201656
0,1.20277784245745,0.555555586329055,0.572222240304247,-0.230601623654366,-0.207694187760353,0.485027015209198
0,1.01527782720901,0.456944457113445,0.523611121638068,-0.189368233084679,-0.346055150032044,0.748920798301697
0,1.01527782720901,0.456944457113445,0.523611121638068,-0.0458148941397667,-0.376598417758942,0.835052788257599
0,0.630555602153203,0.241666677135707,0.452777781463682,0.0390953756868839,-0.371406078338623,0.736703515052795
0,0.559722261978817,0.190277786858986,0.437500019371745,0.00641408516094089,-0.377514719963074,0.516486585140228
0,0.413888905980283,0.0722222259796579,0.393055576355329,0.013744467869401,-0.306348919868469,0.289244681596756
0,0.383333357484479,0.026388891079988,0.362500003547597,0.0488692186772823,-0.15851953625679,0.00946841109544039
0,0.393055576355329,0.00416666691266287,0.368055571080613,0.0696386396884918,0.0671951770782471,-0.197004035115242
0,0.536111148587356,0.030555557612777,0.436111127488491,0.0394008085131645,0.302989155054092,-0.387593984603882
0,0.695833374794573,0.0875000002275597,0.52083333787156,-0.00549778714776039,0.320093393325806,-0.515570282936096
0,0.788888936477167,0.134722233088466,0.551388910679293,0.0849102661013603,0.208610475063324,-0.616363048553467
0,0.979166735492117,0.252777787889811,0.590277786162692,0.107512280344963,0.121867619454861,-0.575435042381287
0,0.979166735492117,0.252777787889811,0.590277786162692,0.0577267669141293,0.0412334054708481,-0.38026362657547
0,1.17638889667562,0.449999997697174,0.644444472361887,-0.0879645943641663,0.0302378293126821,-0.13744467496872
0,1.17638889667562,0.449999997697174,0.644444472361887,-0.239153742790222,0.0229074470698834,0.0647517144680023
0,1.13333334554246,0.440277803138253,0.591666678045946,-0.293826192617416,-0.0455094613134861,0.22724187374115
0,1.08472222687628,0.408333338447267,0.572222240304247,-0.260839462280273,-0.0864374339580536,0.318260788917542
0,0.913888914226889,0.286111120152123,0.53750004047061,-0.196698606014252,-0.181121543049812,0.294742494821549
0,0.85138887672817,0.24583335278547,0.526388905404577,-0.155465200543404,-0.312763005495071,0.19578230381012
0,0.758333363669434,0.177777784221628,0.500000008246606,-0.130725160241127,-0.446847915649414,0.0763581544160843
0,0.690277807261557,0.130555557438704,0.441666695021508,-0.017409659922123,-0.492968261241913,-0.0907134860754013
0,0.686111131611794,0.1194444466846,0.426388884305712,0.148134827613831,-0.564744889736176,-0.126449108123779
0,0.680555564078778,0.151388899219622,0.413888905980283,0.229685336351395,-0.592844724655151,-0.147829383611679
0,0.706944461236748,0.187500003092477,0.397222227693163,0.147523954510689,-0.381790786981583,-0.288633823394775
0,0.779166693294388,0.265277790527169,0.393055576355329,-0.0500909499824047,-0.0574213340878487,-0.436157792806625
0,0.841666730793107,0.333333346935047,0.406944470875941,-0.140804439783096,0.0821613743901253,-0.432187169790268
0,0.884722281926269,0.384722225055805,0.413888905980283,-0.124005645513535,0.0830776765942574,-0.314901024103165
0,0.908333346693873,0.405555578992687,0.4194444735133,-0.017409659922123,0.0183259565383196,-0.100181899964809
0,0.905555562927365,0.381944465601225,0.433333343721983,0.11087204515934,-0.114231802523136,0.0448985956609249
0,0.911111130460381,0.348611133338914,0.418055581630046,0.162795588374138,-0.11087204515934,0.0778853222727776
0,0.915277806110144,0.322222236180943,0.423611149163062,0.0430659987032413,0.0183259565383196,0.00946841109544039
0,0.904166671044111,0.305555557893823,0.426388884305712,-0.130419731140137,0.165239050984383,-0.119118720293045
0,0.904166671044111,0.305555557893823,0.426388884305712,-0.125227376818657,0.0693332031369209,-0.0934623852372169
0,0.86805557932722,0.348611133338914,0.434722235605237,-0.0244346093386412,-0.0754418596625328,0.0647517144680023
0,0.86805557932722,0.348611133338914,0.434722235605237,0.117591559886932,-0.206472456455231,0.20616702735424
0,0.886111173809523,0.347222241455659,0.406944470875941,0.0229074470698834,-0.120035022497177,0.120340451598167
0,0.880555606276507,0.377777789951463,0.409722230330521,-0.273667633533478,0.0140499006956816,-0.0522289797663689
0,0.863888903677457,0.390277792588821,0.384722225055805,-0.551000475883484,0.0965167060494423,-0.146607652306557
0,0.859722228027695,0.408333338447267,0.350000000910239,-0.502436637878418,0.0742201283574104,-0.0849102661013603
0,0.87500003874349,0.404166687109433,0.338888890156135,-0.373849540948868,-0.0354301854968071,0.0491746515035629
0,0.872222254976982,0.375000006184955,0.316666668647927,-0.312763005495071,-0.0607810914516449,0.106595985591412
0,0.870833363093728,0.368055571080613,0.304166666010569,-0.320704251527786,-0.0271835029125214,0.0445931628346443
0,0.870833363093728,0.368055571080613,0.304166666010569,-0.475558578968048,0.109039448201656,-0.113315500319004
0,0.873611146860236,0.451388889580428,0.334722238818301,-0.493579119443893,0.139888137578964,-0.0467311926186085
0,0.876388930626744,0.484722246154669,0.350000000910239,-0.391870051622391,0.0592539273202419,0.0949895456433296
0,0.876388930626744,0.484722246154669,0.350000000910239,-0.346971452236175,0.0913243517279625,0.163101017475128
0,0.880555606276507,0.493055597454194,0.334722238818301,-0.404087364673615,0.0244346093386412,0.17440202832222
0,0.866666687443965,0.538888932353864,0.316666668647927,-0.451123982667923,0.03176499158144,0.153938040137291
0,0.866666687443965,0.538888932353864,0.316666668647927,-0.394008070230484,-0.0452040284872055,0.223271250724793
0,0.854166660494678,0.570833348420992,0.304166666010569,-0.28008171916008,-0.00855211354792118,0.349109500646591
0,0.870833363093728,0.594444461812454,0.287500012035377,-0.248316720128059,0.0222965814173222,0.401033043861389
0,0.863888903677457,0.588888894279438,0.29166668768514,-0.286495804786682,0.180816113948822,0.358272463083267
0,0.863888903677457,0.548611126912784,0.279166685047782,-0.324369430541992,0.4544837474823,0.21135938167572
0,0.854166660494678,0.505555575779623,0.341666673922643,-0.352469235658646,0.588874101638794,0.104457959532738
0,0.838888947026599,0.476388894855144,0.390277792588821,-0.290160983800888,0.558636248111725,0.0568104684352875
0,0.854166660494678,0.456944457113445,0.412500014097029,-0.098960168659687,0.496022582054138,0.128281697630882
0,0.859722228027695,0.438888911254999,0.412500014097029,0.114231802523136,0.450513124465942,0.102014496922493
0,0.89166674134254,0.354166676560001,0.397222227693163,0.127976268529892,0.718377530574799,0.0445931628346443
0,0.94305554652751,0.237500001485945,0.386111116939059,0.196698606014252,1.01281452178955,-0.0287106670439243
0,0.954166681593543,0.161111118090472,0.375000006184955,0.22693644464016,1.32863187789917,-0.179288953542709
0,0.901388887277602,0.0569444456537738,0.42916666807222,0.620639085769653,1.50303387641907,-0.445320755243301
0,0.89722221162784,0.0763888894734557,0.476388894855144,0.927598893642426,1.34176552295685,-0.629191219806671
0,0.89722221162784,0.0763888894734557,0.476388894855144,0.877507925033569,1.26632368564606,-0.62308257818222
0,0.963888924776322,0.243055569018962,0.659722234453824,0.723264455795288,1.19943392276764,-0.451429426670075
0,0.945833330294018,0.269444466176932,0.666666693870094,0.745255589485168,1.01525807380676,-0.321009695529938
0,0.804166698569104,0.290277795801886,0.680555564078778,0.76052725315094,0.884227454662323,-0.330783516168594
0,0.752777796136418,0.284722228268869,0.686111131611794,0.583376288414001,0.980438709259033,-0.596815347671509
0,0.752777796136418,0.284722228268869,0.686111131611794,0.244956970214844,1.20401537418366,-0.948673725128174
0,0.488888921804431,0.212499996211229,0.615277791437408,-0.0934623852372169,1.41842913627624,-1.25593888759613
0,0.388888900705567,0.169444445078067,0.568055564654484,-0.295353353023529,1.30328094959259,-1.40071403980255
0,0.377777789951463,0.125000002061652,0.531944472937593,-0.309403240680695,1.04488503932953,-1.38452613353729
0,0.377777789951463,0.125000002061652,0.531944472937593,-0.23304508626461,0.908662080764771,-1.07787168025971
0,0.469444484062732,0.226388890731841,0.505555575779623,-0.198836639523506,1.096808552742,-0.240070044994354
0,0.536111148587356,0.233333350148112,0.512500035195893,-0.154243469238281,1.21501100063324,0.533590793609619
0,0.536111148587356,0.233333350148112,0.512500035195893,-0.00794124789535999,1.33657312393188,0.754113137722015
0,0.505555575779623,0.0694444482911319,0.573611132187501,0.0965167060494423,1.46729826927185,0.525954961776733
0,0.495833332596844,0.0486111125881959,0.625000034620187,-0.138360977172852,1.24158358573914,0.693942904472351
0,0.495833332596844,0.0486111125881959,0.625000034620187,-0.103847093880177,1.38024997711182,0.7305948138237
0,0.548611126912784,0.301388906555989,0.890277849459286,-0.112399205565453,1.35612082481384,0.875369906425476
0,0.531944472937593,0.248611112240049,0.929166724942685,0.124921940267086,1.03266775608063,0.857349395751953
0,0.541666667496514,0.236111109602691,0.927777833059431,0.64049220085144,0.586125195026398,0.958752989768982
0,0.550000018796039,0.250000004123303,0.968055600426084,1.13620936870575,-0.0400116741657257,1.00181901454925
0,0.625000034620187,0.327777779402031,0.936111184358955,1.40621185302734,0.137139245867729,0.965777933597565
0,0.625000034620187,0.373611114301701,0.956944465360051,1.23730754852295,0.580321967601776,0.915381550788879
0,0.625000034620187,0.373611114301701,0.956944465360051,1.33626770973206,0.59803706407547,0.787710726261139
0,0.575000024070755,0.409722230330521,1.04861113515939,1.2501357793808,0.306043475866318,0.652098655700684
0,0.558333370095563,0.456944457113445,1.08472222687628,1.00181901454925,0.40164390206337,0.438906669616699
0,0.522222229754814,0.47500000297189,1.04861113515939,0.564744889736176,1.1001683473587,0.267864406108856
0,0.522222229754814,0.47500000297189,1.04861113515939,0.427605658769607,1.50639367103577,0.359188765287399
0,0.472222219205382,0.558333370095563,1.23055558287482,0.117591559886932,1.3567316532135,0.901331663131714
0,0.447222262554524,0.487500029921177,1.27500002589123,-0.214719131588936,1.26510190963745,1.20096111297607
0,0.447222262554524,0.487500029921177,1.27500002589123,0.0629191175103188,1.06107294559479,1.22081422805786
0,0.341666673922643,0.430555559955475,1.32638892832392,0.529620170593262,0.768773913383484,1.04580128192902
0,0.288888903918631,0.363888895430851,1.14444448060849,0.934318363666534,0.204028993844986,1.07909345626831
0,0.288888903918631,0.363888895430851,1.14444448060849,0.975246369838715,-0.104152522981167,1.81213176250458
0,0.216666671860991,0.0388888906783549,0.89722221162784,0.44898596405983,-0.946230292320251,2.24828958511352
0,0.293055555256465,0.17361112072783,0.718055596302781,0.129808858036995,-0.584598064422607,1.70431399345398
0,0.355555568443255,0.256944463539574,0.6125000076709,-0.220827788114548,0.785878121852875,1.01586890220642
0,0.341666673922643,0.186111123365188,0.570833348420992,-0.451123982667923,0.939205288887024,0.843910336494446
0,0.29166668768514,0.134722233088466,0.515277818962402,-0.638048768043518,0.66126161813736,0.68325275182724
0,0.344444457689151,0.168055565350778,0.558333370095563,-1.29595065116882,-0.114842668175697,0.891863286495209
0,0.111111119697004,0.0819444448505077,0.20138889761309,-3.71680951118469,-2.1413881778717,2.19911479949951
0,0.0875000002275597,0.0138888899621255,0.212499996211229,-3.29714512825012,-2.66551041603088,2.50729632377625
0,0.348611133338914,-0.0236111118719664,0.975000059842355,-1.84878361225128,-2.42116451263428,2.67833876609802
0,0.401388903342925,0.123611110178398,1.01944450285877,-1.28037357330322,-1.01922869682312,2.09893298149109
0,0.552777802562547,0.151388899219622,0.918055589876652,-1.14812123775482,0.283441483974457,1.44927775859833
0,0.666666693870094,0.0972222251763917,0.791666671619817,-1.09497594833374,0.22174409031868,1.00242984294891
0,0.637500012945616,0.029166668768514,0.791666671619817,-0.759305477142334,-0.547946095466614,0.864985167980194
0,0.61944446708717,-0.033333335301303,0.812500049868629,-1.06046211719513,-0.75594574213028,0.933402121067047
0,0.558333370095563,-0.0597222233422998,0.781944477060896,-1.52746856212616,-0.68630713224411,0.988990843296051
0,0.591666678045946,-0.055555559848502,1.10555560512509,-1.14659404754639,-0.810618162155151,0.958142161369324
0,0.648611148011649,-0.120833338567854,1.19305559927467,-0.817948579788208,-0.820086598396301,1.1844676733017
0,0.887500065692777,-0.25555557165632,0.941666654644256,-0.93095862865448,-0.558941721916199,0.987158238887787
0,0.737500034044481,-0.420833365396554,0.861111119910949,-0.843604922294617,-0.549473285675049,1.03358399868011
0,0.676388937052873,-0.309722233543585,1.02916674604155,-0.743117570877075,-1.46638202667236,0.898888230323792
0,0.551388910679293,-0.341666673922643,1.01805561097552,-0.745255589485168,-1.18538403511047,1.25441181659699
0,0.541666667496514,-0.394444468238583,1.01805561097552,-0.313679307699203,-0.850629866123199,1.39032924175262
0,0.561111153862072,-0.447222262554524,0.902777779160856,-0.0555887371301651,-0.777020573616028,1.39979767799377
0,0.568055564654484,-0.452777781463682,0.805555590452358,-0.186008468270302,-0.542142927646637,1.12063229084015
0,0.634722229179108,-0.481944462388161,0.608333332021137,-0.399200439453125,-0.0781907513737679,0.811229050159454
0,0.58611111051293,-0.476388894855144,0.650000039894903,-0.171042263507843,-0.456316351890564,0.673478960990906
0,0.602777813111979,-0.515277818962402,0.700000001820477,0.117286130785942,-0.497549742460251,0.283746898174286
0,0.647222256128395,-0.506944467662877,0.590277786162692,0.331699818372726,-0.397367835044861,0.142637029290199
0,0.655555558804062,-0.459722240879953,0.581944483487025,0.459370672702789,-0.38576140999794,0.145691365003586
0,0.579166699720517,-0.344444457689151,0.601388921228725,0.601091384887695,-0.281914323568344,0.241291776299477
0,0.555555586329055,-0.251388896006557,0.606944488761742,0.534201681613922,-0.105374254286289,0.157603234052658
0,0.625000034620187,-0.298611122789481,0.551388910679293,0.286495804786682,-0.0445931628346443,0.0687223374843597
0,0.637500012945616,-0.298611122789481,0.56666667277123,0.0577267669141293,-0.0910189226269722,0.142637029290199
0,0.650000039894903,-0.295833339022973,0.58611111051293,-0.0696386396884918,-0.133474051952362,0.368046313524246
0,0.598611137462217,-0.297222230906227,0.648611148011649,0.00549778714776039,-0.0623082555830479,0.800538897514343
0,0.550000018796039,-0.263888898643915,0.650000039894903,-0.00152716308366507,0.0907134860754013,1.44255828857422
0,0.536111148587356,-0.259722222994153,0.691666699144811,0.0824668109416962,0.221133217215538,1.67407619953155
0,0.608333332021137,-0.272222225631511,0.775000017644626,-0.359188765287399,-0.251371055841446,1.6233743429184
0,0.647222256128395,-0.312500017310094,0.786111152710659,-0.0901026204228401,-0.353690981864929,1.71928024291992
0,0.676388937052873,-0.388888900705567,0.795833347269579,0.398284137248993,-0.444709897041321,2.05189633369446
0,0.656944450687316,-0.4194444735133,0.788888936477167,0.774577140808105,-0.240070044994354,2.39703512191773
0,0.644444472361887,-0.393055576355329,0.798611131036088,0.956004083156586,0.0662788823246956,2.65115523338318
0,0.641666688595378,-0.416666689746791,0.85138887672817,1.26540732383728,-0.0525344125926495,2.87656450271606
0,0.595833353695709,-0.479166678621653,0.909722238577127,1.68201744556427,-0.157603234052658,2.99415588378906
0,0.505555575779623,-0.456944457113445,1.00416669214298,1.85183799266815,-0.497244298458099,3.13893103599548
0,0.438888911254999,-0.358333352209763,1.0333333244436,1.42362141609192,-1.06931960582733,2.68261480331421
0,0.380555573717971,-0.301388906555989,0.990277773310434,1.06260013580322,-0.892474114894867,2.00852489471436
0,0.406944470875941,-0.251388896006557,0.931944508709193,0.889114379882813,-0.00580321997404099,1.0567969083786
0,0.469444484062732,-0.350000000910239,0.738888925927735,0.885449171066284,-1.26632368564606,0.811839938163757
0,0.563888889004722,-0.334722238818301,0.70416667747024,0.981660425662994,-1.78983521461487,1.12948977947235
0,0.598611137462217,-0.304166666010569,0.715277812536273,1.18171882629395,-1.11421823501587,0.999986410140991
0,0.598611137462217,-0.304166666010569,0.715277812536273,1.09405970573425,-0.973108351230621,0.999070107936859
0,0.577777807837263,-0.305555557893823,0.656944450687316,0.714101493358612,-1.48715138435364,1.11177480220795
0,0.545833343146276,-0.318055560531181,0.569444456537738,0.72906768321991,-1.77609074115753,0.999986410140991
0,0.495833332596844,-0.355555568443255,0.49444444071359,0.903469681739807,-1.90070724487305,0.812756180763245
0,0.495833332596844,-0.355555568443255,0.49444444071359,0.813977956771851,-1.60382664203644,0.816115975379944
0,0.526388905404577,-0.377777789951463,0.512500035195893,0.509767055511475,-1.40621185302734,0.782212972640991
0,0.541666667496514,-0.341666673922643,0.530555581054339,0.39125919342041,-0.852462470531464,0.611476123332977
0,0.536111148587356,-0.323611128064198,0.579166699720517,0.48685958981514,-0.698219001293182,0.472198843955994
0,0.545833343146276,-0.354166676560001,0.587500002396184,0.532979905605316,-1.4190399646759,0.372016936540604
0,0.601388921228725,-0.426388884305712,0.584722267253534,0.518624603748322,-2.00730323791504,0.4544837474823
0,0.654166666920807,-0.447222262554524,0.575000024070755,0.488386750221252,-1.93155586719513,0.406530827283859
0,0.655555558804062,-0.441666695021508,0.561111153862072,0.446237057447434,-1.28923106193543,0.389732033014297
0,0.611111115787646,-0.436111127488491,0.565277780887976,0.409279704093933,-0.854295074939728,0.286801218986511
0,0.588888894279438,-0.47500000297189,0.558333370095563,0.255952537059784,-0.949590027332306,-0.0678060427308083
0,0.6319444454126,-0.525000013521323,0.552777802562547,0.122173048555851,-1.41934537887573,-0.369573473930359
0,0.681944455962032,-0.572222240304247,0.551388910679293,0.186313897371292,-1.3200798034668,-0.468228220939636
0,0.726388898978447,-0.573611132187501,0.568055564654484,0.286190360784531,-1.30755710601807,-0.163101017475128
0,0.786111152710659,-0.661111126337078,0.552777802562547,0.209526777267456,-0.775187969207764,-0.151494577527046
0,0.858333336144441,-0.648611148011649,0.626388926503441,0.382707089185715,0.0201585534960032,-0.484110713005066
0,0.841666730793107,-0.620833358970425,0.645833364245141,0.335670441389084,0.310624986886978,-0.678060412406921
0,0.818055568777787,-0.584722267253534,0.637500012945616,0.0265726372599602,0.277332812547684,-0.873842716217041
0,0.797222239152834,-0.486111138037923,0.679166672195524,-0.118507854640484,0.29657506942749,-0.956614971160889
0,0.880555606276507,-0.427777776188966,0.713888920653019,-0.214719131588936,0.0925460830330849,-0.948368310928345
0,0.92083337364316,-0.351388892793493,0.788888936477167,-0.117591559886932,0.0919352173805237,-1.04763388633728
0,0.877777822509998,-0.298611122789481,0.856944444261187,-0.105374254286289,0.100792765617371,-1.24066734313965
0,0.836111163260091,-0.275000009398019,0.840277838909853,-0.262977480888367,-0.01588249579072,-1.42362141609192
0,0.827777811960566,-0.24583335278547,0.805555590452358,-0.747393608093262,-0.176845490932465,-1.3301590681076
0,0.818055568777787,-0.20972223675665,0.797222239152834,-1.0711522102356,0.078801617026329,-0.999375522136688
0,0.818055568777787,-0.20972223675665,0.797222239152834,-1.45935702323914,0.142637029290199,-0.658512711524963
0,0.701388893703731,-0.0708333340964038,0.725000007095193,-1.82160019874573,0.370184332132339,-0.738841533660889
0,0.701388893703731,-0.0708333340964038,0.725000007095193,-1.61146247386932,0.939205288887024,-1.05649149417877
0,0.633333337295854,-0.0750000036681839,0.637500012945616,-1.20890235900879,1.51525127887726,-1.314581990242
0,0.697222266677827,-0.104166672436698,0.581944483487025,-1.39552164077759,1.35153937339783,-1.17286121845245
0,0.697222266677827,-0.104166672436698,0.581944483487025,-1.6368134021759,0.0342084541916847,-0.780991196632385
0,0.798611131036088,-0.193055558469529,0.661111126337078,-0.781602084636688,0.0949895456433296,-0.605978310108185
0,0.811111157985375,-0.223611131277262,0.643055580478633,-0.22174409031868,0.479223787784576,-0.39125919342041
0,0.762500039319197,-0.186111123365188,0.644444472361887,0.0305432621389627,-0.098960168659687,-0.621249973773956
0,0.762500039319197,-0.186111123365188,0.644444472361887,0.323453158140182,0.384234249591827,-0.704022169113159
0,0.752777796136418,-0.181944447715425,0.700000001820477,0.496633440256119,1.04549586772919,-0.476169466972351
0,0.700000001820477,-0.226388890731841,0.823611136310804,0.434630632400513,-0.00733038317412138,-0.217773467302322
0,0.695833374794573,-0.156944454596674,0.738888925927735,0.0497855171561241,-0.310930401086807,-0.199752941727638
0,0.680555564078778,-0.156944454596674,0.680555564078778,0.230296194553375,-0.577878534793854,-0.0372627787292004
0,0.65833334257057,-0.224999998848587,0.609722223904392,0.498771458864212,-0.590095818042755,-0.0436768643558025
0,0.65833334257057,-0.224999998848587,0.609722223904392,0.742812156677246,-0.011606439948082,0.0800233483314514
0,0.908333346693873,-0.423611149163062,0.544444451263022,0.679282128810883,-0.712879717350006,0.264810085296631
0,0.972222276075846,-0.318055560531181,0.58333337537028,0.587957799434662,-0.9828822016716,0.0971275717020035
0,0.972222276075846,-0.318055560531181,0.58333337537028,0.164628177881241,-0.0180205255746841,-0.321620553731918
0,0.918055589876652,-0.229166674498349,0.443055586904762,-0.471282541751862,2.79012703895569,-0.466701060533524
0,0.772222233878117,-0.193055558469529,0.394444468238583,-1.01892328262329,4.4104471206665,-0.318260788917542
0,0.648611148011649,-0.261111114877407,0.437500019371745,-0.616057574748993,4.06378126144409,-0.239764615893364
0,0.58611111051293,-0.295833339022973,1.04305556762637,0.776104271411896,-0.663399636745453,-0.303294599056244
0,0.577777807837263,-0.263888898643915,0.965277816659576,0.644462823867798,-1.95140898227692,-0.241902634501457
0,0.558333370095563,-0.20138889761309,0.781944477060896,0.5128213763237,-1.90620493888855,0.0287106670439243
0,0.680555564078778,-0.177777784221628,0.679166672195524,0.113315500319004,-0.84574294090271,0.153632611036301
0,0.70416667747024,-0.212499996211229,0.647222256128395,0.119118720293045,0.351247519254685,0.287412106990814
0,0.726388898978447,-0.262500006760661,0.652777823661411,0.295047909021378,0.970359444618225,0.160352125763893
0,0.761111147435943,-0.284722228268869,0.601388921228725,0.346666038036346,0.722653567790985,-0.000305432622553781
0,0.765277823085705,-0.275000009398019,0.591666678045946,0.298102229833603,0.156992360949516,-0.128587126731873
0,0.751388904253164,-0.216666671860991,0.672222261403111,0.200363799929619,-0.809701859951019,-0.129197999835014
0,0.698611158561081,-0.170833336961321,0.705555569353494,0.021685715764761,-1.3600914478302,-0.0620028227567673
0,0.718055596302781,-0.162500009973726,0.670833369519857,-0.0558941699564457,-0.666148543357849,-0.0882700309157372
0,0.75694447178618,-0.161111118090472,0.662500018220332,-0.142026171088219,-0.21685716509819,0.0128281703218818
0,0.798611131036088,-0.172222228844576,0.611111115787646,-0.32742378115654,0.0360410511493683,0.0574213340878487
0,0.788888936477167,-0.19166667874224,0.608333332021137,-0.438906669616699,-0.117591559886932,0.115758962929249
0,0.784722260827405,-0.237500001485945,0.633333337295854,-0.372016936540604,-0.593455612659454,0.139277279376984
0,0.779166693294388,-0.243055569018962,0.611111115787646,-0.277943700551987,-0.495106279850006,0.165239050984383
0,0.75000001236991,-0.238888893369199,0.6125000076709,-0.231212496757507,-0.191506251692772,0.125532805919647
0,0.759722255552688,-0.240277785252453,0.594444461812454,-0.280387133359909,-0.173180297017098,0.124311074614525
0,0.786111152710659,-0.24583335278547,0.587500002396184,-0.243735238909721,-0.0491746515035629,0.124005645513535
0,0.818055568777787,-0.258333331110899,0.590277786162692,-0.229990765452385,-0.241902634501457,0.078801617026329
0,0.788888936477167,-0.266666682410424,0.606944488761742,-0.20616702735424,-0.219300627708435,0.117896988987923
0,0.786111152710659,-0.269444466176932,0.608333332021137,-0.172263994812965,-0.147218525409698,0.163406446576118
0,0.818055568777787,-0.272222225631511,0.587500002396184,-0.182037845253944,0.115148097276688,0.142026171088219
0,0.808333374218867,-0.272222225631511,0.577777807837263,-0.233350530266762,-0.156076073646545,0.152105450630188
0,0.777777801411134,-0.281944444502361,0.573611132187501,-0.214719131588936,-0.101403631269932,0.182954147458077
0,0.752777796136418,-0.283333336385615,0.58611111051293,-0.159130394458771,0.336281329393387,0.147218525409698
0,0.765277823085705,-0.295833339022973,0.594444461812454,-0.122783914208412,0.488081336021423,0.115758962929249
0,0.825000028194058,-0.290277795801886,0.572222240304247,-0.178067222237587,0.230907067656517,0.0696386396884918
0,0.82916670384382,-0.325000019947452,0.579166699720517,-0.145996794104576,-0.145691365003586,-0.0552833043038845
0,0.82916670384382,-0.325000019947452,0.579166699720517,0.0357356183230877,-0.372933238744736,-0.193949714303017
0,0.812500049868629,-0.355555568443255,0.577777807837263,0.183870434761047,-0.446237057447434,-0.301156580448151
0,0.858333336144441,-0.351388892793493,0.47500000297189,0.169820532202721,-0.206777885556221,-0.425467640161514
0,0.858333336144441,-0.351388892793493,0.47500000297189,0.037568211555481,0.0549778714776039,-0.450818538665771
0,0.804166698569104,-0.325000019947452,0.497222224480098,-0.00763581553474069,0.388815730810165,-0.383317947387695
0,0.680555564078778,-0.287500012035377,0.550000018796039,0.11117747426033,0.246789559721947,-0.206472456455231
0,0.63888890482887,-0.277777793164528,0.650000039894903,0.253509074449539,-0.74464476108551,-0.282219737768173
0,0.837500055143345,-0.323611128064198,0.550000018796039,0.0754418596625328,-1.54701626300812,-0.167987942695618
0,0.854166660494678,-0.301388906555989,0.611111115787646,-0.0021380283869803,-0.819475710391998,-0.380874484777451
0,0.918055589876652,-0.223611131277262,0.533333364820847,-0.0305432621389627,-0.84574294090271,-0.835358202457428
0,1.0902777944093,-0.272222225631511,0.531944472937593,-0.221438646316528,0.531147301197052,-1.04610669612884
0,1.01111115155925,-0.247222220356795,0.436111127488491,-0.806036710739136,0.161268427968025,-1.04702305793762
0,0.986111194908388,-0.195833342236038,0.313888909193348,-1.44530713558197,-0.660956203937531,-0.79992800951004
0,0.627777818386695,-0.131944449321958,0.680555564078778,-1.01250910758972,-1.23028254508972,-0.226631000638008
0,0.77638890952788,-0.184722231481934,0.479166678621653,-1.09069991111755,-1.23333692550659,-0.144164204597473
0,0.952777789710289,-0.294444447139719,0.395833335809908,-1.09741938114166,-1.87718892097473,-0.30207285284996
0,0.976388951725609,-0.33750002258481,0.027777779924251,-2.51554298400879,-6.4250807762146,-0.23243422806263
0,0.815277785011279,-0.25555557165632,0.795833347269579,-0.263588339090347,-2.23362874984741,-0.265420943498612
0,0.940277860008718,-0.223611131277262,0.423611149163062,-0.271224170923233,-1.41384756565094,-0.165239050984383
0,0.95000000594378,-0.161111118090472,0.331944455051793,-0.489913940429688,-1.09803032875061,0.0244346093386412
0,0.880555606276507,-0.256944463539574,0.258333331110899,-0.423940479755402,-1.28464961051941,-0.0394008085131645
0,0.899999995394348,-0.261111114877407,0.234722242031366,-0.384234249591827,-1.67713057994843,-0.123089343309402
0,1.06111116210868,-0.202777789496344,0.275000009398019,-0.493884563446045,-2.09771132469177,-0.529009282588959
0,1.13611112930897,-0.256944463539574,0.233333350148112,-0.202501833438873,-1.50089585781097,-1.03022420406342
0,1.15416672379127,-0.322222236180943,0.215277779977737,0.173791155219078,-0.483194410800934,-1.47982108592987
0,1.07222229717471,-0.286111120152123,0.179166676104882,0.432187169790268,0.0592539273202419,-1.58702790737152
0,0.916666697993398,-0.163888889701015,0.0944444474878658,0.249538451433182,-0.632550954818726,-1.51647293567657
0,0.908333346693873,-0.256944463539574,-0.0416666683668809,-0.110566608607769,-1.37750113010406,-1.33779489994049
0,0.959722249126559,-0.262500006760661,-0.0916666697993398,-0.276111096143722,-2.15635442733765,-0.885143756866455
0,0.947222222177272,-0.134722233088466,0.0180555564949145,-0.165849909186363,-1.50303387641907,-0.896444737911224
0,0.880555606276507,0.00277777787846293,0.0972222251763917,-0.0598647929728031,-0.694248378276825,-0.434325188398361
0,0.872222254976982,-0.00694444498106275,0.0736111117849297,-0.0378736443817616,-0.0461203269660473,0.0409279726445675
0,0.899999995394348,-0.0194444453391775,0.0500000014324589,-0.0314595587551594,0.426994800567627,0.251981914043427
0,1.04166667574312,-0.0388888906783549,0.0694444482911319,-0.0940732508897781,0.855211317539215,0.15332718193531
0,1.0305556379248,-0.0236111118719664,0.0902777839940679,-0.175929188728332,0.897666454315186,0.0507018156349659
0,1.10694449700835,-0.00416666691266287,0.0486111125881959,-0.43860125541687,0.39064833521843,-0.133168622851372
0,1.01944450285877,0.00416666691266287,0.055555559848502,-0.592844724655151,0.175318330526352,-0.30146199464798
0,0.89166674134254,-0.0486111125881959,0.0138888899621255,-0.876591622829437,-0.499687761068344,-0.248011291027069
0,0.801388914802596,-0.143055560076062,-0.0930555616825939,-1.16522550582886,-0.686917960643768,0.0571159012615681
0,0.801388914802596,-0.143055560076062,-0.0930555616825939,-1.15758967399597,-1.53754782676697,0.215024560689926
0,1.02222228662528,-0.133333341205212,-0.0388888906783549,-1.07603907585144,-1.44133651256561,-0.11117747426033
0,1.02222228662528,-0.133333341205212,-0.0388888906783549,-0.887587189674377,-0.977078974246979,-0.427605658769607
0,1.08611111875954,-0.181944447715425,-0.0347222241455659,-0.626442313194275,-0.453567445278168,-0.39125919342041
0,1.1708333291426,-0.12777778582816,-0.0805555590452358,-0.390342891216278,-0.445015341043472,-0.208305045962334
0,1.00833336779274,-0.0583333375370279,-0.0652777787193518,-0.295658767223358,-0.239153742790222,-0.0800233483314514
0,0.844444514559616,-0.0513888902767219,-0.159722226207217,-0.469449937343597,-1.22936630249023,0.0293215326964855
0,1.07500008094122,-0.0875000002275597,-0.0680555564078778,-0.0360410511493683,-0.168293371796608,-0.181426972150803
0,1.2402778260576,-0.0763888894734557,-0.17361112072783,0.090408056974411,0.356439858675003,-0.242818936705589
0,1.10972228077486,-0.0805555590452358,-0.13750000469901,0.239459171891212,0.627053201198578,-0.0241291765123606
0,0.890277849459286,-0.0416666683668809,-0.0791666671619817,0.339641064405441,0.848797261714935,0.289855569601059
0,0.880555606276507,-0.0250000007162294,-0.0736111117849297,0.452956587076187,0.86315256357193,0.707992792129517
0,1.00833336779274,-0.0194444453391775,-0.18333333959868,0.192727982997894,0.238848313689232,0.770301103591919
0,1.07222229717471,-0.0486111125881959,-0.18333333959868,0.0387899428606033,0.121256753802299,0.635299861431122
0,1.02500007039179,-0.026388891079988,-0.100000002864918,-0.000916297896765172,0.194866016507149,0.831387579441071
0,0.991666665193688,-0.0652777787193518,-0.0458333348996699,0.0824668109416962,0.683863639831543,0.931569516658783
0,0.800000022919342,-0.166666673467524,-0.102777780553444,0.0650571510195732,-0.554054796695709,1.52380335330963
0,0.944444438410764,-0.152777778946911,-0.0875000002275597,0.0342084541916847,-0.167071640491486,1.25410640239716
0,1.21805555592553,-0.156944454596674,-0.130555557438704,-0.292604446411133,-0.04764748737216,0.313679307699203
0,1.147222264375,-0.187500003092477,-0.0875000002275597,-0.252592772245407,0.364381104707718,-0.0400116741657257
0,1.01944450285877,-0.233333350148112,0.00416666691266287,0.0745255574584007,1.02747535705566,0.267864406108856
0,1.01527782720901,-0.187500003092477,-0.0486111125881959,0.130725160241127,0.947146534919739,0.539394021034241
0,1.05000002704265,-0.200000005729836,-0.0416666683668809,0.10567969083786,0.901637077331543,0.375987559556961
0,1.06388894587519,-0.194444450352783,-0.030555557612777,0.00580321997404099,0.847575545310974,0.0959058403968811
0,1.03750000009336,-0.223611131277262,-0.027777779924251,0.0122173046693206,0.917825043201447,-0.0665843114256859
0,0.948611114060526,-0.208333344873396,0.026388891079988,0.0290160998702049,0.87262099981308,0.0946841165423393
0,0.948611114060526,-0.208333344873396,0.026388891079988,0.00183259579353034,0.543975472450256,0.477696627378464
0,0.975000059842355,-0.200000005729836,0.0513888902767219,-0.143858760595322,0.28496864438057,0.783740103244781
0,0.993055557076942,-0.202777789496344,0.055555559848502,-0.208610475063324,0.386372268199921,0.698219001293182
0,1.06527783775844,-0.24583335278547,0.0486111125881959,-0.159435823559761,0.409585148096085,0.590706706047058
0,1.11527784830787,-0.269444466176932,0.0513888902767219,-0.0491746515035629,0.409585148096085,0.33292156457901
0,1.10138892947533,-0.305555557893823,0.0597222233422998,0.0244346093386412,0.362853944301605,0.037568211555481
0,1.05833337834217,-0.301388906555989,0.104166672436698,0.0595593601465225,0.181121543049812,-0.0516181141138077
0,1.0694445134082,-0.29166668768514,0.0791666671619817,0.118202425539494,0.319482535123825,-0.0213802829384804
0,1.00277780025972,-0.261111114877407,0.104166672436698,0.0323758572340012,0.102319926023483,-0.0027488935738802
0,0.95000000594378,-0.25555557165632,0.140277788465518,-0.124311074614525,-0.212275668978691,0.017409659922123
0,0.993055557076942,-0.276388901281273,0.0986111170596459,-0.01191187184304,-0.215330004692078,-0.013744467869401
0,1.0125000434425,-0.262500006760661,0.0388888906783549,0.0305432621389627,0.0427605658769607,0.00671951752156019
0,0.99583334084345,-0.270833333748257,0.0833333367337618,-0.0332921557128429,0.04764748737216,-0.0161879286170006
0,0.986111194908388,-0.273611117514765,0.0875000002275597,-0.0363464802503586,-0.0995710343122482,-0.0122173046693206
0,0.991666665193688,-0.259722222994153,0.0944444474878658,-0.00946841109544039,-0.213802829384804,0.00702495034784079
0,0.99583334084345,-0.262500006760661,0.0875000002275597,-0.0128281703218818,-0.250149309635162,0.0122173046693206
0,1.00000001649321,-0.263888898643915,0.0750000036681839,-0.00397062394768,-0.262672066688538,0.0351247526705265
0,1.00555558402623,-0.259722222994153,0.0361111129898289,-0.019547687843442,-0.0675006061792374,0.0207694191485643
0,1.00277780025972,-0.254166679773066,-0.0388888906783549,0.187535628676414,0.707992792129517,0.0250454749912024
0,0.99583334084345,-0.252777787889811,-0.00972222266958873,0.108123145997524,1.54823791980743,0.107817716896534
0,0.94305554652751,-0.262500006760661,0.154166670830166,0.0366519130766392,1.21287298202515,0.096211276948452
0,1.00833336779274,-0.315277801076602,0.208333344873396,-0.172263994812965,0.262061178684235,0.0149661982432008
0,0.977777843608863,-0.295833339022973,0.194444450352783,-0.309708684682846,-0.409279704093933,-0.0473420582711697
0,1.00972225967599,-0.286111120152123,0.0916666697993398,0.0387899428606033,0.197004035115242,-0.0229074470698834
0,0.98888888142718,-0.280555576931036,0.126388893944906,-0.0299323964864016,0.117896988987923,-0.0357356183230877
0,1.02361117850853,-0.286111120152123,0.0833333367337618,-0.0693332031369209,0.236404851078987,-0.11636982858181
0,0.962500032893068,-0.262500006760661,0.17361112072783,-0.100181899964809,0.324064016342163,-0.0589484944939613
0,0.894444525109048,-0.25555557165632,0.175000000455119,-0.127365410327911,0.244956970214844,0.100181899964809
0,0.87500003874349,-0.298611122789481,0.190277786858986,-0.144164204597473,0.173180297017098,0.436157792806625
0,0.945833330294018,-0.258333331110899,0.212499996211229,0.00152716308366507,-0.265115529298782,0.468839079141617
0,1.01666671909226,-0.305555557893823,0.144444451959316,0.176540061831474,-0.160657554864883,0.0537561401724815
0,0.99583334084345,-0.252777787889811,0.13750000469901,0.133779495954514,0.0320704244077206,0.236099421977997
0,0.99583334084345,-0.252777787889811,0.13750000469901,0.0164933614432812,-0.102014496922493,0.535423398017883
0,0.87500003874349,-0.290277795801886,0.150000007336368,0.155159771442413,-0.324674874544144,0.0415388382971287
0,1.06527783775844,-0.327777779402031,0.125000002061652,0.08460483700037,-0.576351344585419,0.177761793136597
0,1.02222228662528,-0.330555563168539,0.0958333393711199,0.199142068624496,-0.24342979490757,0.18539759516716
0,1.02222228662528,-0.330555563168539,0.0958333393711199,-0.000305432622553781,0.0855211317539215,0.102319926023483
0,1.0361111082101,-0.333333346935047,0.0430555572111439,0.0439822971820831,0.479223787784576,0.0720821022987366
0,1.02777785415829,-0.308333341660331,0.154166670830166,0.0852157026529312,0.0207694191485643,0.2379320114851
0,1.02777785415829,-0.308333341660331,0.154166670830166,0.0852157026529312,-0.0510072484612465,0.147218525409698
0,1.04583335139288,-0.333333346935047,0.10972222781375,-0.037568211555481,-0.189979091286659,-0.120951317250729
0,0.962500032893068,-0.304166666010569,0.138888896582264,-0.0803287774324417,-0.383317947387695,-0.374765813350677
0,0.962500032893068,-0.304166666010569,0.138888896582264,-0.157908663153648,-0.392480909824371,-1.08917272090912
0,0.712500028769764,-0.29166668768514,0.144444451959316,-0.163406446576118,-0.445015341043472,-2.83288764953613
0,0.912500022343635,-0.361111135976272,0.190277786858986,0.0360410511493683,-0.16951510310173,-1.58641707897186
0,1.16944453450707,-0.123611110178398,0.0347222241455659,-0.0302378293126821,-0.0390953756868839,-1.43400621414185
0,1.0902777944093,-0.186111123365188,0.0652777787193518,0.0565050356090069,0.352163821458816,-0.765414178371429
0,1.19027781550816,-0.126388893944906,0.055555559848502,-0.00519235478714108,0.396451532840729,-0.39675697684288
0,1.05694448645892,-0.10972222781375,0.0847222225390337,-0.0335975885391235,0.682336449623108,-0.145080491900444
0,1.02222228662528,-0.130555557438704,0.108333335930496,0.0546724386513233,0.756556630134583,-0.013744467869401
0,1.03888889197661,-0.136111112815755,0.176388892338373,-0.0659734457731247,-0.0558941699564457,0.070249505341053
0,1.11111117265811,-0.133333341205212,0.17361112072783,-0.0470366254448891,-0.0415388382971287,0.0106901414692402
0,1.06527783775844,-0.144444451959316,0.154166670830166,-0.0369573459029198,0.0632245540618896,0.00610865233466029
0,1.02222228662528,-0.143055560076062,0.136111112815755,-0.133168622851372,0.160657554864883,0.0143553335219622
0,1.02083339474202,-0.14722222356986,0.112499999424294,-0.193949714303017,0.170736834406853,-0.0262672062963247
0,1.04583335139288,-0.163888889701015,0.131944449321958,-0.193338856101036,0.186924770474434,0.019547687843442
0,1.0125000434425,-0.163888889701015,0.14722222356986,-0.0696386396884918,0.216246291995048,0.0763581544160843
0,1.01388893532575,-0.16527778158427,0.134722233088466,0.05283984541893,0.103847093880177,0.0167987942695618
0,0.993055557076942,-0.130555557438704,0.14583334384257,-0.167071640491486,0.0751364231109619,0.096211276948452
0,1.03888889197661,-0.186111123365188,0.130555557438704,0.019547687843442,0.175318330526352,0.10567969083786
0,0.99583334084345,-0.176388892338373,0.144444451959316,-0.0928515195846558,-0.155770644545555,0.189062789082527
0,1.01527782720901,-0.16527778158427,0.136111112815755,0.0378736443817616,0.236404851078987,-0.0616973899304867
0,1.0361111082101,-0.176388892338373,0.126388893944906,-0.0277943685650826,0.0925460830330849,-0.104457959532738
0,1.00277780025972,-0.206944452990142,0.166666673467524,0.0610865242779255,0.0980438739061356,0.0198531206697226
0,0.975000059842355,-0.159722226207217,0.102777780553444,0.0986547395586967,0.215024560689926,0.0711658000946045
0,1.01666671909226,-0.12777778582816,0.226388890731841,0.0998764708638191,-0.0427605658769607,0.098960168659687
0,1.00833336779274,-0.156944454596674,0.20138889761309,-0.0543670058250427,-0.235183119773865,0.135001212358475
0,1.03472221632685,-0.169444445078067,0.168055565350778,0.0952949747443199,-0.157603234052658,0.116675265133381
0,1.00416669214298,-0.176388892338373,0.104166672436698,-0.0302378293126821,0.015577063895762,-0.0128281703218818
0,1.00138890837647,-0.168055565350778,0.140277788465518,-0.0372627787292004,0.0696386396884918,0.00549778714776039
0,1.01944450285877,-0.172222228844576,0.16527778158427,-0.0342084541916847,0.132863193750381,-0.01588249579072
0,1.06805562152495,-0.176388892338373,0.14722222356986,0.117896988987923,-0.00183259579353034,0.0839939713478088
0,1.06805562152495,-0.14722222356986,0.233333350148112,0.252287358045578,-0.265420943498612,0.0675006061792374
0,1.0305556379248,-0.14722222356986,0.0986111170596459,0.164628177881241,0.0561996027827263,0.011606439948082
0,1.04722224327614,-0.180555567988136,0.13750000469901,0.0821613743901253,0.225103840231896,-0.0109955742955208
0,1.03194452980806,-0.18333333959868,0.13750000469901,-0.0201585534960032,0.16371189057827,-0.0259617734700441
0,0.994444448960196,-0.180555567988136,0.180555567988136,0.0439822971820831,0.0549778714776039,-0.0583376325666905
0,1.00277780025972,-0.133333341205212,0.197222234119292,0.109344877302647,0.0113010071218014,-0.0128281703218818
0,1.00833336779274,-0.13750000469901,0.180555567988136,0.118202425539494,-0.0733038261532784,0.0565050356090069
0,0.983333411141879,-0.14722222356986,0.0125000003581147,0.120035022497177,0.124005645513535,-0.01191187184304
0,0.977777843608863,-0.154166670830166,0.180555567988136,0.0772744566202164,-0.0641408488154411,0.0262672062963247
0,0.962500032893068,-0.0416666683668809,0.163888889701015,0.0601702257990837,-0.160962998867035,0.0280998013913631
0,1.05000002704265,-0.108333335930496,0.161111118090472,-0.0986547395586967,0.0852157026529312,0.0491746515035629
0,1.02916674604155,-0.134722233088466,0.168055565350778,-0.115453533828259,0.261755764484406,0.098960168659687
0,1.0305556379248,-0.150000007336368,0.159722226207217,-0.11636982858181,0.492051959037781,0.12156218290329
0,0.931944508709193,-0.188888894975731,0.226388890731841,-0.0433714315295219,0.168598800897598,0.0537561401724815
0,0.981944519258625,-0.200000005729836,0.2194444556275,-0.0256563406437635,0.0678060427308083,0.0497855171561241
0,0.975000059842355,-0.187500003092477,0.215277779977737,0.00824668072164059,-0.0507018156349659,0.119729585945606
0,0.98888888142718,-0.177777784221628,0.197222234119292,-0.0308486949652433,-0.0998764708638191,-0.000305432622553781
0,0.941666654644256,-0.13750000469901,0.20138889761309,-0.0113010071218014,-0.230601623654366,-0.247094988822937
0,1.02222228662528,-0.163888889701015,0.19166667874224,0.0745255574584007,-0.152716308832169,-0.0714712366461754
0,1.10138892947533,-0.186111123365188,0.186111123365188,0.158824965357781,-0.167682513594627,-0.0720821022987366
0,1.05833337834217,-0.156944454596674,0.170833336961321,-0.00244346098043024,-0.190895393490791,0.124616511166096
0,0.976388951725609,-0.0986111170596459,0.176388892338373,-0.16371189057827,-0.0873537287116051,0.0491746515035629
0,0.99583334084345,-0.130555557438704,0.156944454596674,-0.206472456455231,0.16920967400074,-0.0433714315295219
0,0.983333411141879,-0.140277788465518,0.20972223675665,0.0152716310694814,0.17989981174469,0.0280998013913631
0,0.831944487610329,-0.120833338567854,0.130555557438704,0.0366519130766392,-0.329256355762482,-0.0983493030071259
0,0.984722303025134,-0.181944447715425,0.162500009973726,-0.114231802523136,-0.437684953212738,0.0232128798961639
0,1.05972227022542,-0.175000000455119,0.20138889761309,-0.149051114916802,-0.661567032337189,0.0940732508897781
0,1.10416671324184,-0.222222239394008,0.0486111125881959,-0.173791155219078,-0.177456349134445,-0.24342979490757
0,1.0333333244436,-0.197222234119292,0.0902777839940679,-0.156381502747536,0.143858760595322,-0.262061178684235
0,1.08194444310977,-0.223611131277262,0.0680555564078778,-0.0342084541916847,0.668286561965942,-0.208915919065475
0,0.99583334084345,-0.190277786858986,0.224999998848587,0.143247902393341,0.675006091594696,-0.102625362575054
0,1.00694447590948,-0.20972223675665,0.190277786858986,0.527176678180695,0.429438263177872,0.0894917547702789
0,1.00555558402623,-0.163888889701015,0.222222239394008,0.39675697684288,-0.0113010071218014,0.0143553335219622
0,1.00694447590948,-0.141666668192807,0.170833336961321,0.181426972150803,-0.175929188728332,0.107817716896534
0,1.0125000434425,-0.125000002061652,0.154166670830166,0.0910189226269722,-0.00702495034784079,0.149967417120934
0,0.956944465360051,-0.111111119697004,0.180555567988136,0.157297804951668,-0.0198531206697226,0.139582708477974
0,0.986111194908388,-0.123611110178398,0.177777784221628,0.226020142436027,0.0488692186772823,0.0806342139840126
0,1.01527782720901,-0.197222234119292,0.162500009973726,0.245873257517815,0.0791070461273193,0.127976268529892
0,1.01111115155925,-0.208333344873396,0.170833336961321,0.237626582384109,0.144164204597473,0.0503963828086853
0,1.00416669214298,-0.177777784221628,0.186111123365188,-0.000610865245107561,-0.0482583530247212,0.00794124789535999
0,0.984722303025134,-0.17361112072783,0.18333333959868,-0.114231802523136,-0.19028452038765,0.00488692196086049
0,0.991666665193688,-0.166666673467524,0.190277786858986,-0.103236228227615,-0.216246291995048,0.0314595587551594
0,0.991666665193688,-0.166666673467524,0.190277786858986,-0.0421497002243996,-0.13744467496872,0.0201585534960032
0,0.994444448960196,-0.163888889701015,0.176388892338373,-0.015577063895762,0.0311541277915239,0.00977384392172098
0,1.01527782720901,-0.158333334323963,0.169444445078067,-0.0439822971820831,0.0113010071218014,0.01588249579072
0,1.04305556762637,-0.244444460902216,0.223611131277262,-0.401033043861389,-0.437074095010758,0.0397062413394451
0,1.01111115155925,-0.176388892338373,0.143055560076062,-0.309403240680695,0.0800233483314514,0.00397062394768
0,0.990277773310434,-0.170833336961321,0.181944447715425,-0.17440202832222,0.0378736443817616,-0.0335975885391235
0,0.968055600426084,-0.16527778158427,0.190277786858986,-0.1795943826437,-0.262977480888367,-0.0305432621389627
0,1.00833336779274,-0.187500003092477,0.156944454596674,-0.212886542081833,-0.338113903999329,-0.0262672062963247
0,0.986111194908388,-0.172222228844576,0.154166670830166,-0.248011291027069,-0.335670441389084,-0.00641408516094089
0,1.00972225967599,-0.187500003092477,0.14583334384257,-0.0794124826788902,-0.155465200543404,-0.0467311926186085
0,1.01527782720901,-0.17361112072783,0.154166670830166,-0.0256563406437635,-0.105374254286289,-0.0351247526705265
0,1.00694447590948,-0.177777784221628,0.161111118090472,-0.0745255574584007,-0.305738061666489,-0.00671951752156019
0,1.01944450285877,-0.206944452990142,0.141666668192807,-0.18539759516716,-0.395229816436768,-0.0534507073462009
0,0.979166735492117,-0.206944452990142,0.148611115453114,-0.0204639863222837,-0.697608113288879,-0.0775798857212067
0,0.981944519258625,-0.206944452990142,0.0916666697993398,0.128587126731873,-0.550389587879181,-0.0827722400426865
0,1.01527782720901,-0.204166669223633,0.0902777839940679,0.204028993844986,-0.184175878763199,-0.087659165263176
0,1.02222228662528,-0.18333333959868,0.0736111117849297,0.266031801700592,-0.138666406273842,-0.124311074614525
0,1.0361111082101,-0.17361112072783,0.0541666679652478,0.117896988987923,0.0464257597923279,-0.0992656052112579
0,1.04444445950963,-0.156944454596674,0.0930555616825939,0.156686931848526,0.245262399315834,-0.0705549344420433
0,1.04444445950963,-0.156944454596674,0.0930555616825939,0.102014496922493,0.267253547906876,-0.0394008085131645
0,0.994444448960196,-0.134722233088466,0.131944449321958,-0.0189368221908808,0.170431405305862,-0.0439822971820831
0,0.99583334084345,-0.120833338567854,0.150000007336368,-0.0149661982432008,0.226631000638008,-0.0381790772080422
0,0.99583334084345,-0.120833338567854,0.150000007336368,-0.0198531206697226,0.147829383611679,-0.0390953756868839
0,1.01666671909226,-0.134722233088466,0.116666675074056,-0.117896988987923,0.124005645513535,-0.0436768643558025
0,1.00694447590948,-0.15555556271342,0.12777778582816,-0.167071640491486,0.0222965814173222,-0.0864374339580536
0,1.00694447590948,-0.15555556271342,0.12777778582816,-0.17440202832222,0.0684169083833694,-0.0891863256692886
0,1.02916674604155,-0.179166676104882,0.115277783190802,-0.0684169083833694,0.369573473930359,-0.0448985956609249
0,1.0513889189259,-0.170833336961321,0.0888888921108138,0.064446285367012,0.673784375190735,-0.00427605677396059
0,1.0513889189259,-0.170833336961321,0.0888888921108138,-0.0213802829384804,0.734565436840057,0.00122173049021512
0,0.959722249126559,-0.14583334384257,0.190277786858986,-0.0574213340878487,-0.246484130620956,-0.0302378293126821
0,0.959722249126559,-0.14583334384257,0.190277786858986,-0.0574213340878487,-0.246484130620956,-0.0302378293126821
0,0.997222232726705,-0.172222228844576,0.176388892338373,0.0687223374843597,-0.143247902393341,-0.0513126812875271
0,0.983333411141879,-0.172222228844576,0.187500003092477,0.218384325504303,-0.356439858675003,-0.0980438739061356
0,1.01666671909226,-0.148611115453114,0.113888891307548,0.182648703455925,-0.126449108123779,-0.0339030213654041
0,0.98888888142718,-0.13750000469901,0.176388892338373,0.130114302039146,-0.331088960170746,-0.0775798857212067
0,1.00000001649321,-0.0972222251763917,0.234722242031366,0.21135938167572,-0.330783516168594,-0.106290549039841
0,1.02222228662528,-0.134722233088466,0.198611113846581,0.011606439948082,-0.106290549039841,-0.0739146918058395
0,1.06250005399193,-0.126388893944906,0.101388894748172,-0.0222965814173222,0.12675453722477,-0.0424551330506802
0,1.05277781080915,-0.120833338567854,0.101388894748172,-0.0149661982432008,0.188757359981537,-0.0610865242779255
0,0.981944519258625,-0.118055554801345,0.190277786858986,0.115453533828259,0.0610865242779255,-0.0430659987032413
0,0.95000000594378,-0.118055554801345,0.223611131277262,0.0601702257990837,-0.590401232242584,-0.0693332031369209
0,0.954166681593543,-0.13750000469901,0.206944452990142,-0.0219911485910416,-0.976773500442505,-0.0607810914516449
0,0.990277773310434,-0.133333341205212,0.0791666671619817,-0.0610865242779255,-0.869566679000854,-0.0235183127224445
0,1.02500007039179,-0.140277788465518,0.0416666683668809,-0.0748309940099716,-0.302989155054092,-0.0427605658769607
0,1.06805562152495,-0.140277788465518,0.0472222237439329,-0.0592539273202419,-0.00610865233466029,-0.0543670058250427
0,1.06527783775844,-0.136111112815755,0.0652777787193518,-0.143247902393341,0.027488935738802,-0.0372627787292004
0,1.02500007039179,-0.131944449321958,0.0944444474878658,-0.0280998013913631,0.0314595587551594,-0.0366519130766392
0,1.01388893532575,-0.14722222356986,0.101388894748172,0.0473420582711697,0.0873537287116051,-0.0690277740359306
0,1.03194452980806,-0.168055565350778,0.0680555564078778,-0.0183259565383196,0.0763581544160843,-0.0668897479772568
0,1.02638896227504,-0.166666673467524,0.0680555564078778,-0.0662788823246956,-0.0699440687894821,-0.0589484944939613
0,1.02361117850853,-0.161111118090472,0.0986111170596459,0.0821613743901253,-0.0510072484612465,-0.0143553335219622
0,0.986111194908388,-0.166666673467524,0.100000002864918,0.153021737933159,-0.1750128865242,-0.019547687843442
0,0.981944519258625,-0.154166670830166,0.0625000010308258,0.0232128798961639,-0.24862214922905,-0.0302378293126821
0,1.02500007039179,-0.176388892338373,0.055555559848502,0.0415388382971287,-0.0513126812875271,-0.064446285367012
0,1.18750003174166,-0.18333333959868,0.0750000036681839,0.140499010682106,0.32742378115654,-0.01191187184304
0,1.02083339474202,-0.152777778946911,0.140277788465518,0.107512280344963,0.150272846221924,-0.0390953756868839
0,1.02638896227504,-0.120833338567854,0.0805555590452358,0.0901026204228401,0.310624986886978,0.0409279726445675
0,0.930555616825939,-0.113888891307548,0.0805555590452358,0.376903861761093,0.800538897514343,0.0519235469400883
0,1.02500007039179,-0.125000002061652,0.0513888902767219,-0.143553331494331,0.157908663153648,-0.0561996027827263
0,1.02916674604155,-0.0986111170596459,0.143055560076062,-0.213802829384804,0.327729195356369,-0.0684169083833694
0,1.02083339474202,-0.111111119697004,0.161111118090472,-0.266642689704895,0.253509074449539,0.027488935738802
0,1.00555558402623,-0.108333335930496,0.144444451959316,-0.221438646316528,0.0827722400426865,0.0540615729987621
0,1.00555558402623,-0.108333335930496,0.144444451959316,-0.0125227374956012,0.0678060427308083,0.0610865242779255
0,1.03472221632685,-0.120833338567854,0.154166670830166,0.473420560359955,0.285274058580399,0.0103847095742822
0,0.930555616825939,-0.0902777839940679,0.176388892338373,0.268780708312988,-0.0800233483314514,0.0687223374843597
0,0.947222222177272,-0.102777780553444,0.125000002061652,-0.130114302039146,-0.172263994812965,0.0977384373545647
0,0.918055589876652,-0.0388888906783549,-0.13750000469901,0.00244346098043024,-0.189062789082527,-0.027488935738802
0,0.993055557076942,-0.0513888902767219,0.055555559848502,-0.188451930880547,-0.299018532037735,-0.0687223374843597
0,1.06666672964169,-0.105555564319952,0.101388894748172,-0.211970239877701,-0.207999616861343,-0.135306656360626
0,1.01944450285877,-0.0986111170596459,0.12777778582816,-0.221438646316528,-0.341779112815857,-0.114842668175697
0,0.987499989543926,-0.0819444448505077,0.144444451959316,-0.136222943663597,-0.31245756149292,-0.0345138870179653
0,1.00000001649321,-0.104166672436698,0.105555564319952,-0.238542884588242,-0.340862810611725,-0.0106901414692402
0,1.0513889189259,-0.12777778582816,0.0902777839940679,-0.0693332031369209,-0.253509074449539,-0.0146607663482428
0,1.03888889197661,-0.13750000469901,0.0819444448505077,-0.0638354197144508,-0.241291776299477,-0.0549778714776039
0,1.0305556379248,-0.130555557438704,0.0750000036681839,-0.131030589342117,-0.335975885391235,-0.0360410511493683
0,1.01527782720901,-0.112499999424294,0.0708333340964038,-0.198225766420364,-0.26969701051712,-0.0598647929728031
0,1.0513889189259,-0.0513888902767219,-0.133333341205212,-0.169820532202721,0.135001212358475,-0.0320704244077206
0,0.952777789710289,-0.0930555616825939,0.12916666555545,-0.352163821458816,0.346055150032044,-0.00427605677396059
0,1.0361111082101,-0.10972222781375,0.0680555564078778,-0.0711658000946045,0.0525344125926495,0.0427605658769607
0,0.98888888142718,-0.130555557438704,0.0361111129898289,-0.098960168659687,0.0442877300083637,0.0607810914516449
0,0.993055557076942,-0.0652777787193518,0.141666668192807,0.0171042270958424,-0.0106901414692402,0.096211276948452
0,0.997222232726705,-0.111111119697004,0.0375000018340919,-0.0956004112958908,0.176234617829323,0.0436768643558025
0,1.04861113515939,-0.161111118090472,0.0583333375370279,-0.00183259579353034,0.277332812547684,0.0623082555830479
0,1.03888889197661,-0.166666673467524,0.00972222266958873,-0.0497855171561241,0.476169466972351,0.12705996632576
0,1.04583335139288,-0.176388892338373,0.0416666683668809,0.208915919065475,0.551000475883484,0.164933621883392
0,0.987499989543926,-0.172222228844576,0.10972222781375,0.210443079471588,0.376293003559113,0.117896988987923
0,0.95000000594378,-0.163888889701015,0.13750000469901,0.0852157026529312,0.0033597587607801,0.113926365971565
0,0.965277816659576,-0.154166670830166,0.143055560076062,0.0033597587607801,-0.00397062394768,0.0897971913218498
0,1.0125000434425,-0.161111118090472,0.0972222251763917,-0.0503963828086853,-0.0464257597923279,0.015577063895762
0,1.03194452980806,-0.158333334323963,0.0847222225390337,-0.0253509078174829,0.0293215326964855,0.0314595587551594
0,1.04583335139288,-0.152777778946911,0.0875000002275597,0.0198531206697226,0.128281697630882,0.0589484944939613
0,1.02222228662528,-0.154166670830166,0.106944444047242,0.0766635909676552,0.0384845100343227,0.0558941699564457
0,0.99583334084345,-0.180555567988136,0.1194444466846,0.202807262539864,-0.0717766657471657,0.0189368221908808
0,0.993055557076942,-0.20138889761309,0.130555557438704,0.32284227013588,-0.106595985591412,-0.0311541277915239
0,0.99583334084345,-0.194444450352783,0.105555564319952,0.270613312721252,-0.0861319974064827,-0.0763581544160843
0,1.0125000434425,-0.18333333959868,0.0916666697993398,-0.0256563406437635,-0.293215304613113,-0.027488935738802
0,1.03194452980806,-0.14583334384257,0.0722222259796579,-0.0977384373545647,-0.224798411130905,0.0406225398182869
0,1.02916674604155,-0.14722222356986,0.0847222225390337,0.140193566679955,-0.0235183127224445,-0.00977384392172098
0,1.03472221632685,-0.15555556271342,0.0986111170596459,0.262672066688538,-0.011606439948082,0.0302378293126821
0,1.01944450285877,-0.125000002061652,0.120833338567854,0.152716308832169,-0.218384325504303,0.113315500319004
0,1.01944450285877,-0.134722233088466,0.112499999424294,0.0681114718317986,-0.265115529298782,0.106595985591412
0,0.99583334084345,-0.156944454596674,0.111111119697004,0.141109868884087,-0.283441483974457,0.0473420582711697
0,0.993055557076942,-0.152777778946911,0.113888891307548,0.170125976204872,-0.382401645183563,0.0222965814173222
0,1.01805561097552,-0.138888896582264,0.0791666671619817,0.0986547395586967,-0.35979962348938,0.0332921557128429
0,1.0361111082101,-0.134722233088466,0.0694444482911319,0.0204639863222837,-0.259312301874161,0.0354301854968071
0,1.0305556379248,-0.13750000469901,0.0847222225390337,-0.00885754637420177,-0.200974673032761,0.0314595587551594
0,0.99583334084345,-0.131944449321958,0.0986111170596459,0.0638354197144508,-0.246789559721947,0.0143553335219622
0,1.0125000434425,-0.12777778582816,0.0819444448505077,0.0806342139840126,-0.23273965716362,0.0213802829384804
0,1.02638896227504,-0.134722233088466,0.0416666683668809,0.013744467869401,-0.0998764708638191,-0.00580321997404099
0,1.03194452980806,-0.130555557438704,0.0152777788063885,-0.0198531206697226,0.0907134860754013,-0.0143553335219622
0,1.02777785415829,-0.140277788465518,0.0500000014324589,-0.03176499158144,0.224187538027763,-0.02382374368608
0,1.01805561097552,-0.125000002061652,0.0458333348996699,-0.131030589342117,0.304516315460205,-0.0335975885391235
0,1.02361117850853,-0.120833338567854,0.0513888902767219,-0.212886542081833,0.423024177551269,-0.0329867228865623
0,1.0333333244436,-0.134722233088466,0.101388894748172,-0.127670839428902,0.478307485580444,0.0311541277915239
0,1.03194452980806,-0.134722233088466,0.112499999424294,-0.0537561401724815,0.4758640229702,0.0974330082535744
0,1.02361117850853,-0.144444451959316,0.122222230451108,0.0177150927484035,0.423024177551269,0.0879645943641663
0,1.00277780025972,-0.151388899219622,0.126388893944906,0.102319926023483,0.24342979490757,0.0320704244077206
5,1.01666671909226,-0.15555556271342,0.1194444466846,0.15332718193531,0.284052342176437,0.0305432621389627
5,1.00972225967599,-0.154166670830166,0.125000002061652,0.146302223205566,0.205556154251099,0.115148097276688
5,1.00694447590948,-0.134722233088466,0.161111118090472,0.0219911485910416,0.241291776299477,0.0400116741657257
5,1.02083339474202,-0.180555567988136,0.122222230451108,-0.127365410327911,0.284052342176437,0.0122173046693206
5,0.968055600426084,-0.166666673467524,0.163888889701015,-0.0397062413394451,0.0357356183230877,0.00855211354792118
5,0.98888888142718,-0.170833336961321,0.14722222356986,-0.0265726372599602,0.0244346093386412,0.00366519158706069
5,1.00000001649321,-0.166666673467524,0.154166670830166,-0.0198531206697226,0.0293215326964855,0.0021380283869803
5,1.00416669214298,-0.170833336961321,0.150000007336368,-0.0131336031481624,0.0113010071218014,0.00305432616733015
5,1.00694447590948,-0.162500009973726,0.140277788465518,-0.00824668072164059,0.00794124789535999,0.00733038317412138
5,1.0125000434425,-0.163888889701015,0.134722233088466,-0.00671951752156019,0.00397062394768,0.0100792767480016
5,1.01527782720901,-0.159722226207217,0.131944449321958,-0.00183259579353034,-0.00794124789535999,0.0171042270958424
5,1.00972225967599,-0.161111118090472,0.130555557438704,-0.00427605677396059,-0.0180205255746841,0.015577063895762
5,1.00833336779274,-0.161111118090472,0.126388893944906,-0.01588249579072,-0.0109955742955208,0.0180205255746841
5,1.0125000434425,-0.163888889701015,0.120833338567854,-0.0106901414692402,-0.00610865233466029,0.00977384392172098
5,1.00694447590948,-0.166666673467524,0.136111112815755,-0.00641408516094089,-0.00671951752156019,0.00702495034784079
5,1.00555558402623,-0.169444445078067,0.134722233088466,-0.000916297896765172,-0.00733038317412138,0.0027488935738802
5,1.01111115155925,-0.169444445078067,0.118055554801345,0.013744467869401,-0.00366519158706069,-0.00946841109544039
5,1.0125000434425,-0.161111118090472,0.118055554801345,0.0186313893646002,-0.0161879286170006,-0.0186313893646002
5,1.00972225967599,-0.15555556271342,0.125000002061652,0.0183259565383196,-0.00855211354792118,-0.011606439948082
5,1.00972225967599,-0.154166670830166,0.120833338567854,0.0186313893646002,-0.00671951752156019,-0.0241291765123606
5,1.0125000434425,-0.152777778946911,0.120833338567854,0.0131336031481624,0.0045814891345799,-0.0323758572340012
5,1.0125000434425,-0.14722222356986,0.12777778582816,-0.00641408516094089,0.00580321997404099,-0.0342084541916847
5,1.01111115155925,-0.150000007336368,0.125000002061652,-0.0204639863222837,0.00855211354792118,-0.0403171069920063
5,1.0125000434425,-0.148611115453114,0.12916666555545,-0.0372627787292004,0.0186313893646002,-0.0354301854968071
5,1.0125000434425,-0.154166670830166,0.120833338567854,-0.0415388382971287,0.00946841109544039,-0.0329867228865623
5,1.0125000434425,-0.154166670830166,0.120833338567854,-0.0503963828086853,0.00671951752156019,-0.0308486949652433
5,1.00694447590948,-0.151388899219622,0.12777778582816,-0.0549778714776039,-0.000610865245107561,-0.0250454749912024
5,1.01805561097552,-0.163888889701015,0.12777778582816,-0.0534507073462009,0.00244346098043024,-0.0180205255746841
5,1.01527782720901,-0.163888889701015,0.122222230451108,-0.0546724386513233,0.00397062394768,-0.011606439948082
5,1.00000001649321,-0.16527778158427,0.0916666697993398,-0.0803287774324417,-0.0293215326964855,0.00885754637420177
5,0.98888888142718,-0.170833336961321,0.0847222225390337,-0.141720741987228,-0.0968221426010132,0.0198531206697226
5,1.02361117850853,-0.168055565350778,0.12777778582816,-0.03176499158144,-0.0546724386513233,-0.00427605677396059
5,1.01805561097552,-0.177777784221628,0.113888891307548,-0.0366519130766392,0.0445931628346443,0.00702495034784079
5,1.01527782720901,-0.176388892338373,0.102777780553444,-0.0448985956609249,0.037568211555481,-0.00488692196086049
5,1.01666671909226,-0.186111123365188,0.111111119697004,0.0235183127224445,0.101709060370922,-0.0262672062963247
5,0.987499989543926,-0.169444445078067,0.166666673467524,0.0852157026529312,-0.105374254286289,-0.0256563406437635
5,1.04305556762637,-0.163888889701015,0.0916666697993398,-0.0235183127224445,-0.090408056974411,0.0143553335219622
5,1.02500007039179,-0.169444445078067,0.116666675074056,-0.0128281703218818,-0.0241291765123606,0.0372627787292004
5,1.0125000434425,-0.170833336961321,0.10972222781375,0.0305432621389627,-0.01588249579072,0.0146607663482428
5,1.00972225967599,-0.172222228844576,0.101388894748172,0.0433714315295219,-0.0323758572340012,0.0152716310694814
5,1.00833336779274,-0.177777784221628,0.116666675074056,0.058643065392971,-0.0329867228865623,0.0180205255746841
5,1.0125000434425,-0.17361112072783,0.12916666555545,0.0366519130766392,-0.0873537287116051,0.0247400421649218
5,1.0125000434425,-0.17361112072783,0.12916666555545,0.0629191175103188,0.0100792767480016,-0.00610865233466029
5,1.00694447590948,-0.162500009973726,0.118055554801345,0.0488692186772823,-0.013744467869401,0.0033597587607801
5,1.0125000434425,-0.16527778158427,0.113888891307548,0.0335975885391235,-0.0326812900602817,0.0204639863222837
5,1.0125000434425,-0.16527778158427,0.113888891307548,0.0363464802503586,-0.0381790772080422,0.0186313893646002
5,1.01944450285877,-0.161111118090472,0.10972222781375,0.00794124789535999,-0.021685715764761,0.0229074470698834
5,1.01944450285877,-0.154166670830166,0.108333335930496,-0.0268780700862408,0.01191187184304,0.0171042270958424
5,1.01944450285877,-0.154166670830166,0.108333335930496,-0.029626963660121,0.0363464802503586,0.0183259565383196
5,1.01944450285877,-0.154166670830166,0.113888891307548,-0.0293215326964855,0.027488935738802,0.0128281703218818
5,1.00000001649321,-0.14722222356986,0.118055554801345,0.0256563406437635,-0.0723875313997269,-0.0235183127224445
5,1.00000001649321,-0.14722222356986,0.118055554801345,-0.0839939713478088,-0.0803287774324417,0.00763581553474069
5,1.02638896227504,-0.158333334323963,0.102777780553444,-0.0470366254448891,0.00855211354792118,0.0323758572340012
5,1.01944450285877,-0.168055565350778,0.112499999424294,-0.0745255574584007,0.0189368221908808,0.015577063895762
5,1.01944450285877,-0.166666673467524,0.104166672436698,-0.0647517144680023,0.0109955742955208,0.0189368221908808
5,1.00694447590948,-0.166666673467524,0.120833338567854,-0.0455094613134861,-0.0271835029125214,0.0265726372599602
5,1.00416669214298,-0.163888889701015,0.122222230451108,-0.0351247526705265,-0.0647517144680023,0.0351247526705265
5,1.00416669214298,-0.158333334323963,0.126388893944906,-0.0113010071218014,-0.0632245540618896,0.0485637858510017
5,1.01666671909226,-0.169444445078067,0.116666675074056,0.000916297896765172,-0.015577063895762,0.0458148941397667
5,1.01944450285877,-0.166666673467524,0.111111119697004,0.0229074470698834,0.0183259565383196,0.0287106670439243
5,1.01666671909226,-0.166666673467524,0.112499999424294,0.0339030213654041,-0.0164933614432812,0.0131336031481624
5,1.01666671909226,-0.170833336961321,0.112499999424294,0.0455094613134861,0.0198531206697226,0.0152716310694814
5,1.01666671909226,-0.163888889701015,0.111111119697004,0.01191187184304,0.02382374368608,0.0140499006956816
5,1.01111115155925,-0.162500009973726,0.112499999424294,-0.0201585534960032,-0.019547687843442,-0.00488692196086049
5,0.998611124609959,-0.158333334323963,0.113888891307548,-0.0268780700862408,-0.0733038261532784,-0.017409659922123
5,1.00833336779274,-0.163888889701015,0.105555564319952,-0.0369573459029198,-0.00977384392172098,-0.0219911485910416
5,1.01527782720901,-0.15555556271342,0.118055554801345,-0.0250454749912024,0.0479529201984406,-0.0342084541916847
5,1.0333333244436,-0.159722226207217,0.105555564319952,-0.0164933614432812,0.078801617026329,-0.0332921557128429
5,1.02222228662528,-0.156944454596674,0.0902777839940679,-0.03176499158144,0.0974330082535744,-0.0403171069920063
5,1.01527782720901,-0.14722222356986,0.112499999424294,-0.0583376325666905,0.0354301854968071,-0.0323758572340012
5,1.0125000434425,-0.148611115453114,0.118055554801345,-0.0455094613134861,-0.0113010071218014,-0.0189368221908808
5,1.00000001649321,-0.154166670830166,0.12777778582816,-0.0473420582711697,-0.0458148941397667,-0.00671951752156019
5,1.00972225967599,-0.163888889701015,0.108333335930496,-0.027488935738802,-0.0268780700862408,0.00671951752156019
5,1.01527782720901,-0.170833336961321,0.104166672436698,-0.0171042270958424,0.019547687843442,-0.011606439948082
5,1.01527782720901,-0.180555567988136,0.108333335930496,0.0235183127224445,-0.0290160998702049,-0.0140499006956816
5,1.01944450285877,-0.18333333959868,0.100000002864918,0.0131336031481624,0.0033597587607801,-0.0250454749912024
5,1.01805561097552,-0.187500003092477,0.104166672436698,0.0320704244077206,0.0164933614432812,-0.0284052342176437
5,1.00833336779274,-0.187500003092477,0.105555564319952,0.0479529201984406,0.0177150927484035,-0.0351247526705265
5,1.01388893532575,-0.190277786858986,0.105555564319952,0.10048733651638,0.0729983970522881,-0.0546724386513233
5,1.01527782720901,-0.179166676104882,0.108333335930496,0.0714712366461754,0.0574213340878487,-0.0452040284872055
5,1.0125000434425,-0.166666673467524,0.104166672436698,0.0421497002243996,0.0320704244077206,-0.0329867228865623
5,1.0125000434425,-0.162500009973726,0.126388893944906,0.0552833043038845,0.00671951752156019,-0.0363464802503586
5,1.00972225967599,-0.170833336961321,0.115277783190802,0.0748309940099716,0.0262672062963247,-0.0412334054708481
5,1.01944450285877,-0.170833336961321,0.111111119697004,0.0922406539320946,0.0659734457731247,-0.0394008085131645
5,1.01527782720901,-0.163888889701015,0.111111119697004,0.0763581544160843,0.0494800843298435,-0.0320704244077206
5,1.0125000434425,-0.163888889701015,0.122222230451108,0.0568104684352875,0.0210748501121998,-0.0299323964864016
5,1.00972225967599,-0.152777778946911,0.112499999424294,0.0204639863222837,0.00122173049021512,-0.0198531206697226
5,1.0125000434425,-0.152777778946911,0.113888891307548,-0.01588249579072,0.000916297896765172,-0.0348193198442459
5,1.01805561097552,-0.148611115453114,0.115277783190802,-0.00580321997404099,0.00244346098043024,-0.0262672062963247
5,1.01388893532575,-0.154166670830166,0.116666675074056,-0.00122173049021512,-0.0268780700862408,-0.0213802829384804
5,1.0125000434425,-0.150000007336368,0.12777778582816,-0.0293215326964855,-0.02382374368608,-0.0140499006956816
5,1.01527782720901,-0.14722222356986,0.120833338567854,-0.0403171069920063,0.00519235478714108,-0.00427605677396059
5,1.0125000434425,-0.150000007336368,0.122222230451108,-0.0568104684352875,0.0265726372599602,0.0146607663482428
5,0.998611124609959,-0.163888889701015,0.133333341205212,-0.0021380283869803,-0.076052725315094,0.000916297896765172
5,1.00972225967599,-0.161111118090472,0.12777778582816,0.0259617734700441,-0.0595593601465225,-0.000305432622553781
5,1.01944450285877,-0.156944454596674,0.1194444466846,0.0421497002243996,-0.0339030213654041,-0.0033597587607801
5,1.01944450285877,-0.156944454596674,0.12777778582816,0.130419731140137,0.00794124789535999,0.00427605677396059
5,1.02361117850853,-0.152777778946911,0.100000002864918,0.0299323964864016,-0.0372627787292004,-0.00733038317412138
5,1.01944450285877,-0.141666668192807,0.0916666697993398,-0.0213802829384804,-0.0106901414692402,-0.00671951752156019
5,1.01527782720901,-0.144444451959316,0.122222230451108,-0.0445931628346443,-0.0210748501121998,0.0027488935738802
5,1.00833336779274,-0.14722222356986,0.123611110178398,-0.0534507073462009,-0.0320704244077206,0.0045814891345799
5,1.00833336779274,-0.15555556271342,0.12916666555545,-0.0140499006956816,-0.00305432616733015,-0.00519235478714108
5,1.00972225967599,-0.156944454596674,0.12777778582816,-0.0189368221908808,0.0143553335219622,-0.0198531206697226
5,1.01527782720901,-0.161111118090472,0.12777778582816,-0.0210748501121998,0.000916297896765172,-0.0229074470698834
5,1.01527782720901,-0.162500009973726,0.122222230451108,-0.0192422550171614,0.0100792767480016,-0.0213802829384804
5,1.0125000434425,-0.163888889701015,0.12777778582816,-0.00763581553474069,0.00397062394768,-0.0180205255746841
5,1.0125000434425,-0.154166670830166,0.125000002061652,0.00733038317412138,-0.00152716308366507,-0.017409659922123
5,1.0125000434425,-0.154166670830166,0.118055554801345,0.0259617734700441,-0.00305432616733015,-0.0109955742955208
5,1.01388893532575,-0.159722226207217,0.118055554801345,0.0305432621389627,-0.000610865245107561,-0.00244346098043024
5,1.0125000434425,-0.163888889701015,0.120833338567854,0.0482583530247212,0.00427605677396059,-0.0027488935738802
5,1.01527782720901,-0.163888889701015,0.115277783190802,0.0571159012615681,0.0045814891345799,-0.000916297896765172
5,1.01527782720901,-0.161111118090472,0.113888891307548,0.0699440687894821,0.017409659922123,-0.00702495034784079
5,1.01527782720901,-0.156944454596674,0.120833338567854,0.0827722400426865,0.0287106670439243,-0.0280998013913631
5,1.00972225967599,-0.150000007336368,0.122222230451108,0.0897971913218498,0.0348193198442459,-0.0198531206697226
5,1.00972225967599,-0.150000007336368,0.122222230451108,0.0934623852372169,0.0293215326964855,-0.0357356183230877
5,1.00972225967599,-0.14583334384257,0.120833338567854,0.0995710343122482,0.017409659922123,-0.0293215326964855
5,1.01388893532575,-0.13750000469901,0.113888891307548,0.0956004112958908,0.0232128798961639,-0.0412334054708481
5,1.01527782720901,-0.13750000469901,0.123611110178398,0.0833831056952477,0.0207694191485643,-0.0314595587551594
5,1.01944450285877,-0.130555557438704,0.1194444466846,0.0662788823246956,0.0149661982432008,-0.0290160998702049
5,1.01527782720901,-0.12777778582816,0.120833338567854,0.0601702257990837,0.0171042270958424,-0.0241291765123606
5,1.02222228662528,-0.133333341205212,0.118055554801345,0.0522289797663689,0.0192422550171614,-0.0207694191485643
5,1.01527782720901,-0.126388893944906,0.120833338567854,0.0308486949652433,0.0183259565383196,-0.017409659922123
5,1.01111115155925,-0.126388893944906,0.122222230451108,0.0134390350431204,0.0106901414692402,-0.0198531206697226
5,1.01388893532575,-0.126388893944906,0.1194444466846,-0.00427605677396059,0.0140499006956816,-0.0259617734700441
5,1.0125000434425,-0.134722233088466,0.113888891307548,-0.0201585534960032,0.01191187184304,-0.0103847095742822
5,1.0125000434425,-0.141666668192807,0.118055554801345,-0.0311541277915239,0.0045814891345799,-0.017409659922123
5,1.02222228662528,-0.133333341205212,0.104166672436698,-0.0418442711234093,0.0265726372599602,-0.0247400421649218
5,1.02222228662528,-0.133333341205212,0.0958333393711199,-0.0516181141138077,0.0342084541916847,-0.0339030213654041
5,1.02222228662528,-0.133333341205212,0.0986111170596459,-0.0635299831628799,0.0473420582711697,-0.0461203269660473
5,1.01944450285877,-0.12777778582816,0.0847222225390337,-0.0781907513737679,0.0485637858510017,-0.0436768643558025
5,1.01805561097552,-0.122222230451108,0.0986111170596459,-0.0864374339580536,0.0421497002243996,-0.0445931628346443
5,1.01388893532575,-0.111111119697004,0.120833338567854,-0.12156218290329,0.017409659922123,-0.0320704244077206
5,1.01527782720901,-0.101388894748172,0.126388893944906,-0.167071640491486,0.000305432622553781,-0.0262672062963247
5,1.01944450285877,-0.0944444474878658,0.130555557438704,-0.200363799929619,0.0027488935738802,-0.0210748501121998
5,1.01666671909226,-0.0916666697993398,0.126388893944906,-0.244956970214844,-0.0113010071218014,-0.00671951752156019
5,1.0125000434425,-0.0944444474878658,0.125000002061652,-0.292604446411133,-0.0305432621389627,-0.00427605677396059
5,1.0125000434425,-0.104166672436698,0.134722233088466,-0.347887754440308,-0.0354301854968071,-0.00152716308366507
5,1.0125000434425,-0.118055554801345,0.118055554801345,-0.38117989897728,-0.0452040284872055,0.00397062394768
5,1.01527782720901,-0.130555557438704,0.105555564319952,-0.396451532840729,-0.0354301854968071,0.00885754637420177
5,1.00972225967599,-0.144444451959316,0.101388894748172,-0.400422155857086,-0.0305432621389627,0.00824668072164059
5,1.00416669214298,-0.156944454596674,0.108333335930496,-0.379958182573318,-0.0335975885391235,0.00641408516094089
5,1.00694447590948,-0.18333333959868,0.112499999424294,-0.33841934800148,-0.0293215326964855,0.00580321997404099
5,1.00694447590948,-0.190277786858986,0.111111119697004,-0.297491371631622,-0.0314595587551594,-0.0045814891345799
5,1.00972225967599,-0.198611113846581,0.116666675074056,-0.224492982029915,-0.027488935738802,-0.00305432616733015
5,1.01111115155925,-0.206944452990142,0.111111119697004,-0.171958565711975,-0.0164933614432812,0.000916297896765172
5,1.01388893532575,-0.205555561106887,0.102777780553444,-0.116675265133381,-0.0198531206697226,-0.00733038317412138
5,1.01527782720901,-0.204166669223633,0.10972222781375,-0.0403171069920063,-0.0219911485910416,-0.0125227374956012
5,1.01944450285877,-0.197222234119292,0.101388894748172,0.0164933614432812,-0.01191187184304,-0.00488692196086049
5,1.01805561097552,-0.193055558469529,0.104166672436698,0.0647517144680023,-0.0103847095742822,-0.000916297896765172
5,1.01527782720901,-0.187500003092477,0.108333335930496,0.0995710343122482,-0.0128281703218818,-0.00794124789535999
5,1.01527782720901,-0.18333333959868,0.100000002864918,0.135917514562607,-0.013744467869401,-0.00702495034784079
5,1.0125000434425,-0.172222228844576,0.111111119697004,0.154548913240433,-0.011606439948082,0.00305432616733015
5,1.0125000434425,-0.156944454596674,0.113888891307548,0.15851953625679,-0.00488692196086049,-0.00152716308366507
5,1.01388893532575,-0.154166670830166,0.118055554801345,0.160657554864883,-0.011606439948082,0.00244346098043024
5,1.0125000434425,-0.143055560076062,0.106944444047242,0.145385921001434,-0.00916297826915979,0.00580321997404099
5,1.00833336779274,-0.140277788465518,0.101388894748172,0.139888137578964,-0.0045814891345799,0.0027488935738802
5,1.0125000434425,-0.141666668192807,0.108333335930496,0.121867619454861,-0.00916297826915979,0.00244346098043024
5,1.01527782720901,-0.138888896582264,0.118055554801345,0.113926365971565,0.00549778714776039,-0.0103847095742822
5,1.01944450285877,-0.144444451959316,0.1194444466846,0.105374254286289,0.011606439948082,-0.00519235478714108
5,1.01527782720901,-0.13750000469901,0.108333335930496,0.0913243517279625,0.0247400421649218,-0.0180205255746841
5,1.0125000434425,-0.133333341205212,0.113888891307548,0.0699440687894821,0.0342084541916847,-0.0180205255746841
5,1.01527782720901,-0.131944449321958,0.111111119697004,0.0610865242779255,0.0335975885391235,-0.0177150927484035
5,1.02083339474202,-0.12916666555545,0.115277783190802,0.0305432621389627,0.0342084541916847,-0.0103847095742822
5,1.01527782720901,-0.136111112815755,0.116666675074056,0.0265726372599602,0.0329867228865623,-0.0146607663482428
5,1.01388893532575,-0.134722233088466,0.104166672436698,0.011606439948082,0.0167987942695618,-0.0192422550171614
5,1.01527782720901,-0.144444451959316,0.108333335930496,0.00763581553474069,0.0259617734700441,-0.0149661982432008
5,1.01527782720901,-0.144444451959316,0.106944444047242,0.00855211354792118,0.0268780700862408,-0.01588249579072
5,1.00972225967599,-0.140277788465518,0.0916666697993398,0.0134390350431204,0.0329867228865623,-0.0207694191485643
5,1.0125000434425,-0.14722222356986,0.104166672436698,0.0219911485910416,0.027488935738802,-0.0213802829384804
5,1.01527782720901,-0.150000007336368,0.112499999424294,0.0339030213654041,0.0244346093386412,-0.0122173046693206
5,1.00694447590948,-0.151388899219622,0.113888891307548,0.0705549344420433,0.0201585534960032,-0.0152716310694814
5,1.0125000434425,-0.152777778946911,0.1194444466846,0.0778853222727776,0.0045814891345799,-0.0171042270958424
5,1.01944450285877,-0.14722222356986,0.106944444047242,0.0931569486856461,0.00763581553474069,-0.00702495034784079
5,1.02222228662528,-0.14722222356986,0.106944444047242,0.0986547395586967,0.00549778714776039,-0.0180205255746841
5,1.01527782720901,-0.141666668192807,0.120833338567854,0.0986547395586967,-0.0103847095742822,0.00427605677396059
5,1.01388893532575,-0.131944449321958,0.118055554801345,0.0952949747443199,-0.00733038317412138,0.00152716308366507
5,1.01388893532575,-0.133333341205212,0.113888891307548,0.0836885422468185,-0.00244346098043024,0.000305432622553781
5,1.01944450285877,-0.131944449321958,0.112499999424294,0.0772744566202164,-0.00733038317412138,0.00183259579353034
5,1.0125000434425,-0.130555557438704,0.122222230451108,0.0439822971820831,-0.0100792767480016,-0.000305432622553781
5,1.01666671909226,-0.130555557438704,0.113888891307548,0.0409279726445675,0.00152716308366507,0.00122173049021512
5,1.01666671909226,-0.12916666555545,0.113888891307548,0.0219911485910416,-0.00305432616733015,-0.00977384392172098
5,1.01666671909226,-0.123611110178398,0.1194444466846,0.0161879286170006,-0.00152716308366507,-0.00702495034784079
5,1.01527782720901,-0.12777778582816,0.111111119697004,0.00733038317412138,-0.00824668072164059,-0.00855211354792118
5,1.01527782720901,-0.12777778582816,0.111111119697004,-0.00152716308366507,-0.00244346098043024,-0.0033597587607801
5,1.01944450285877,-0.125000002061652,0.118055554801345,-0.019547687843442,0.00519235478714108,-0.00488692196086049
5,1.01388893532575,-0.120833338567854,0.113888891307548,-0.0403171069920063,0.00183259579353034,-0.011606439948082
5,1.01388893532575,-0.120833338567854,0.113888891307548,-0.0403171069920063,-0.00366519158706069,-0.0146607663482428
5,1.01527782720901,-0.125000002061652,0.100000002864918,-0.05283984541893,-0.000305432622553781,-0.0149661982432008
5,1.02083339474202,-0.134722233088466,0.113888891307548,-0.0485637858510017,0.00885754637420177,-0.021685715764761
5,1.02083339474202,-0.134722233088466,0.113888891307548,-0.0558941699564457,0.015577063895762,-0.0213802829384804
5,1.02083339474202,-0.134722233088466,0.113888891307548,-0.0491746515035629,0.019547687843442,-0.0201585534960032
5,1.01666671909226,-0.140277788465518,0.113888891307548,-0.0455094613134861,0.0180205255746841,-0.0226020142436027
5,1.01666671909226,-0.140277788465518,0.113888891307548,-0.0436768643558025,0.0235183127224445,-0.0253509078174829
5,1.01388893532575,-0.143055560076062,0.112499999424294,-0.0390953756868839,0.0241291765123606,-0.0149661982432008
5,1.0125000434425,-0.14583334384257,0.116666675074056,-0.0235183127224445,0.0186313893646002,-0.0204639863222837
5,1.0125000434425,-0.14583334384257,0.116666675074056,-0.0125227374956012,0.0131336031481624,-0.0186313893646002
5,1.01527782720901,-0.14722222356986,0.115277783190802,-0.0134390350431204,0.013744467869401,-0.0180205255746841
5,1.01805561097552,-0.144444451959316,0.115277783190802,-0.0113010071218014,0.00946841109544039,-0.0198531206697226
5,1.01527782720901,-0.13750000469901,0.118055554801345,-0.00152716308366507,0.0164933614432812,-0.00946841109544039
5,1.01944450285877,-0.136111112815755,0.116666675074056,-0.00305432616733015,0.00549778714776039,-0.0100792767480016
5,1.01527782720901,-0.136111112815755,0.112499999424294,-0.00183259579353034,0.01191187184304,-0.0146607663482428
5,1.01111115155925,-0.144444451959316,0.118055554801345,-0.00763581553474069,0.0146607663482428,-0.01191187184304
5,1.01388893532575,-0.141666668192807,0.116666675074056,-0.0152716310694814,0.0186313893646002,-0.0201585534960032
5,1.01527782720901,-0.140277788465518,0.113888891307548,-0.011606439948082,0.0207694191485643,-0.0210748501121998
5,1.01527782720901,-0.13750000469901,0.111111119697004,-0.0164933614432812,0.0247400421649218,-0.0131336031481624
5,1.0125000434425,-0.136111112815755,0.113888891307548,-0.0351247526705265,0.0213802829384804,-0.0198531206697226
5,1.00972225967599,-0.138888896582264,0.113888891307548,-0.02382374368608,0.0109955742955208,-0.0125227374956012
5,1.0125000434425,-0.143055560076062,0.120833338567854,-0.017409659922123,0.0106901414692402,-0.00488692196086049
5,1.01111115155925,-0.140277788465518,0.122222230451108,-0.000916297896765172,0.00397062394768,0.000305432622553781
5,1.00833336779274,-0.144444451959316,0.120833338567854,0.0140499006956816,-0.00244346098043024,-0.0103847095742822
5,1.0125000434425,-0.14722222356986,0.115277783190802,0.0305432621389627,0.0021380283869803,-0.00152716308366507
5,1.01944450285877,-0.154166670830166,0.116666675074056,0.0491746515035629,0.00824668072164059,-0.00397062394768
5,1.01805561097552,-0.151388899219622,0.116666675074056,0.0543670058250427,0.0177150927484035,-0.0143553335219622
5,1.01388893532575,-0.14583334384257,0.131944449321958,0.0613919571042061,0.0152716310694814,-0.00916297826915979
5,1.0125000434425,-0.138888896582264,0.125000002061652,0.0589484944939613,0.0140499006956816,-0.0167987942695618
5,1.0125000434425,-0.138888896582264,0.123611110178398,0.0635299831628799,0.01191187184304,-0.0140499006956816
5,1.01666671909226,-0.136111112815755,0.118055554801345,0.0653625801205635,0.0192422550171614,-0.0198531206697226
5,1.01666671909226,-0.133333341205212,0.1194444466846,0.0503963828086853,0.0131336031481624,-0.0268780700862408
5,1.01805561097552,-0.126388893944906,0.120833338567854,0.0302378293126821,0.0183259565383196,-0.0183259565383196
5,1.01527782720901,-0.120833338567854,0.120833338567854,0.0192422550171614,0.0125227374956012,-0.0201585534960032
5,1.01805561097552,-0.122222230451108,0.123611110178398,0.00152716308366507,0.0305432621389627,-0.0192422550171614
5,1.01666671909226,-0.125000002061652,0.130555557438704,0.00549778714776039,0.0244346093386412,-0.0171042270958424
5,1.01527782720901,-0.125000002061652,0.126388893944906,0.00397062394768,0.0219911485910416,-0.0128281703218818
5,1.01527782720901,-0.130555557438704,0.125000002061652,0.0140499006956816,0.0167987942695618,-0.0134390350431204
5,1.0125000434425,-0.12777778582816,0.118055554801345,0.0146607663482428,0.0180205255746841,-0.0204639863222837
5,1.01944450285877,-0.120833338567854,0.122222230451108,-0.00397062394768,0.0164933614432812,-0.0183259565383196
5,1.01666671909226,-0.123611110178398,0.120833338567854,-0.0140499006956816,0.0113010071218014,-0.0152716310694814
5,1.01527782720901,-0.112499999424294,0.120833338567854,-0.0189368221908808,0.0122173046693206,-0.0125227374956012
5,1.01805561097552,-0.116666675074056,0.118055554801345,-0.0308486949652433,0.0109955742955208,-0.0143553335219622
5,1.01666671909226,-0.113888891307548,0.118055554801345,-0.0384845100343227,0.0143553335219622,-0.0164933614432812
5,1.01944450285877,-0.118055554801345,0.123611110178398,-0.0455094613134861,0.0146607663482428,-0.0128281703218818
5,1.01805561097552,-0.116666675074056,0.12777778582816,-0.0601702257990837,0.00794124789535999,-0.0045814891345799
5,1.01805561097552,-0.1194444466846,0.12777778582816,-0.0595593601465225,0.000916297896765172,-0.0125227374956012
5,1.0125000434425,-0.123611110178398,0.126388893944906,-0.0565050356090069,0.00427605677396059,-0.00610865233466029
5,1.00972225967599,-0.126388893944906,0.12916666555545,-0.0418442711234093,-0.000610865245107561,-0.000916297896765172
5,1.0125000434425,-0.12777778582816,0.126388893944906,-0.0345138870179653,0.000305432622553781,-0.0134390350431204
5,1.01388893532575,-0.134722233088466,0.125000002061652,-0.0262672062963247,0.00366519158706069,-0.0125227374956012
5,1.01527782720901,-0.13750000469901,0.125000002061652,-0.02382374368608,-0.00610865233466029,-0.00427605677396059
5,1.01527782720901,-0.141666668192807,0.12777778582816,-0.0045814891345799,0.00519235478714108,-0.0210748501121998
5,1.01388893532575,-0.13750000469901,0.136111112815755,0.00916297826915979,0.00641408516094089,-0.0308486949652433
5,1.01388893532575,-0.131944449321958,0.130555557438704,0.0201585534960032,0.019547687843442,-0.0253509078174829
5,1.01527782720901,-0.112499999424294,0.123611110178398,0.00733038317412138,0.0204639863222837,-0.021685715764761
5,1.00000001649321,-0.108333335930496,0.126388893944906,-0.0134390350431204,0.0140499006956816,-0.0113010071218014
5,1.00972225967599,-0.10972222781375,0.131944449321958,-0.0342084541916847,0.017409659922123,-0.000916297896765172
5,1.01527782720901,-0.12777778582816,0.130555557438704,-0.0387899428606033,0.0140499006956816,-0.00671951752156019
5,1.01805561097552,-0.134722233088466,0.133333341205212,-0.02382374368608,0.0146607663482428,-0.00488692196086049
5,1.00972225967599,-0.138888896582264,0.140277788465518,-0.011606439948082,0.015577063895762,0.0021380283869803
5,1.0125000434425,-0.14722222356986,0.12916666555545,-0.000305432622553781,0.0103847095742822,-0.00305432616733015
5,1.0125000434425,-0.140277788465518,0.12777778582816,0.0103847095742822,0.01191187184304,-0.00183259579353034
5,1.01527782720901,-0.143055560076062,0.12777778582816,0.0164933614432812,0.00824668072164059,0.00519235478714108
5,1.01666671909226,-0.143055560076062,0.1194444466846,0.0247400421649218,0.0180205255746841,0.00671951752156019
5,1.0125000434425,-0.13750000469901,0.1194444466846,0.0256563406437635,0.0134390350431204,0.0100792767480016
5,1.0125000434425,-0.134722233088466,0.12916666555545,0.0552833043038845,0.00641408516094089,0.00733038317412138
5,1.0125000434425,-0.134722233088466,0.131944449321958,0.0592539273202419,0.00733038317412138,0.00122173049021512
5,1.00833336779274,-0.12777778582816,0.144444451959316,0.0675006061792374,0.00794124789535999,0.0033597587607801
5,1.00972225967599,-0.12777778582816,0.134722233088466,0.0687223374843597,-0.00244346098043024,0.00549778714776039
5,1.01527782720901,-0.120833338567854,0.12777778582816,0.0717766657471657,-0.00183259579353034,0.000916297896765172
5,1.01666671909226,-0.123611110178398,0.12777778582816,0.0604756586253643,-0.00305432616733015,0.00519235478714108
5,1.01944450285877,-0.12777778582816,0.136111112815755,0.04764748737216,-0.000610865245107561,0.00152716308366507
5,1.01111115155925,-0.126388893944906,0.141666668192807,0.0448985956609249,0.00152716308366507,-0.00122173049021512
5,1.01388893532575,-0.123611110178398,0.12916666555545,0.0418442711234093,0.00244346098043024,0.0027488935738802
5,1.01527782720901,-0.122222230451108,0.120833338567854,0.0277943685650826,0.0100792767480016,-0.011606439948082
5,1.01805561097552,-0.118055554801345,0.122222230451108,0.00152716308366507,0.00610865233466029,0.00549778714776039
5,1.01944450285877,-0.113888891307548,0.120833338567854,-0.00916297826915979,0.013744467869401,0.00488692196086049
5,1.01388893532575,-0.1194444466846,0.125000002061652,-0.0213802829384804,0.00183259579353034,0.0109955742955208
5,1.00972225967599,-0.130555557438704,0.12916666555545,-0.0271835029125214,-0.00977384392172098,0.011606439948082
5,1.01111115155925,-0.13750000469901,0.123611110178398,-0.0131336031481624,-0.0106901414692402,-0.00549778714776039
5,1.0125000434425,-0.136111112815755,0.12777778582816,-0.00488692196086049,-0.00885754637420177,-0.0045814891345799
5,1.01666671909226,-0.134722233088466,0.12777778582816,0.000916297896765172,-0.00610865233466029,-0.00152716308366507
5,1.01388893532575,-0.122222230451108,0.125000002061652,-0.000610865245107561,-0.0146607663482428,0.00794124789535999
5,1.01666671909226,-0.118055554801345,0.134722233088466,-0.00366519158706069,-0.0229074470698834,0.00733038317412138
5,1.01944450285877,-0.115277783190802,0.125000002061652,-0.0180205255746841,-0.0171042270958424,0.00610865233466029
5,1.0125000434425,-0.120833338567854,0.130555557438704,-0.0213802829384804,-0.0103847095742822,0.00427605677396059
5,1.0125000434425,-0.12777778582816,0.12777778582816,-0.0100792767480016,0.000305432622553781,0.00610865233466029
5,1.00833336779274,-0.134722233088466,0.125000002061652,0.000305432622553781,0.00824668072164059,-0.015577063895762
5,1.01666671909226,-0.130555557438704,0.122222230451108,0.0122173046693206,0.00549778714776039,-0.0308486949652433
5,1.01944450285877,-0.131944449321958,0.12777778582816,0.0253509078174829,0.0183259565383196,-0.02382374368608
5,1.01388893532575,-0.122222230451108,0.130555557438704,0.0244346093386412,0.0161879286170006,-0.0210748501121998
5,1.01388893532575,-0.122222230451108,0.130555557438704,0.015577063895762,0.0045814891345799,-0.0329867228865623
5,1.01805561097552,-0.118055554801345,0.130555557438704,-0.0113010071218014,0.0045814891345799,-0.0103847095742822
5,1.01527782720901,-0.120833338567854,0.140277788465518,-0.0164933614432812,0.0125227374956012,-0.01588249579072
5,1.01527782720901,-0.120833338567854,0.140277788465518,-0.015577063895762,0.01191187184304,-0.0106901414692402
5,1.01527782720901,-0.116666675074056,0.140277788465518,-0.0210748501121998,0.0204639863222837,-0.0103847095742822
5,1.01527782720901,-0.111111119697004,0.134722233088466,-0.0357356183230877,0.01191187184304,-0.0226020142436027
5,1.01527782720901,-0.111111119697004,0.134722233088466,-0.0635299831628799,0.0143553335219622,-0.0198531206697226
5,1.01805561097552,-0.106944444047242,0.12916666555545,-0.0864374339580536,0.0280998013913631,-0.0171042270958424
5,1.01805561097552,-0.106944444047242,0.120833338567854,-0.103236228227615,0.0412334054708481,-0.0342084541916847
5,1.01805561097552,-0.106944444047242,0.120833338567854,-0.120340451598167,0.0458148941397667,-0.0342084541916847
5,1.01666671909226,-0.104166672436698,0.126388893944906,-0.129808858036995,0.0430659987032413,-0.0287106670439243
5,1.01944450285877,-0.101388894748172,0.12777778582816,-0.139277279376984,0.0430659987032413,-0.0265726372599602
5,1.01944450285877,-0.101388894748172,0.12777778582816,-0.142942473292351,0.0394008085131645,-0.0241291765123606
5,1.02222228662528,-0.111111119697004,0.1194444466846,-0.141415297985077,0.0311541277915239,-0.0152716310694814
5,1.01944450285877,-0.1194444466846,0.1194444466846,-0.122173048555851,0.0226020142436027,-0.000916297896765172
5,1.00972225967599,-0.12777778582816,0.113888891307548,-0.087659165263176,0.00977384392172098,-0.0106901414692402
5,1.00972225967599,-0.140277788465518,0.122222230451108,-0.0421497002243996,-0.00855211354792118,0.00397062394768
5,1.01111115155925,-0.14583334384257,0.12916666555545,-0.00519235478714108,-0.017409659922123,0.00733038317412138
5,1.0125000434425,-0.140277788465518,0.123611110178398,0.0244346093386412,-0.0164933614432812,0.0033597587607801
5,1.01527782720901,-0.134722233088466,0.125000002061652,0.0332921557128429,-0.0143553335219622,0.00580321997404099
5,1.01666671909226,-0.133333341205212,0.125000002061652,0.0458148941397667,-0.01191187184304,0.0146607663482428
5,1.0125000434425,-0.12777778582816,0.12777778582816,0.037568211555481,-0.0109955742955208,0.0180205255746841
5,1.01666671909226,-0.125000002061652,0.12916666555545,0.037568211555481,-0.0131336031481624,0.015577063895762
5,1.01388893532575,-0.125000002061652,0.13750000469901,0.0351247526705265,-0.0103847095742822,0.0256563406437635
5,1.00972225967599,-0.1194444466846,0.131944449321958,0.0384845100343227,-0.0131336031481624,0.0222965814173222
5,1.0125000434425,-0.125000002061652,0.133333341205212,0.0390953756868839,-0.0180205255746841,0.0250454749912024
5,1.01111115155925,-0.122222230451108,0.140277788465518,0.0397062413394451,-0.027488935738802,0.0204639863222837
5,1.01805561097552,-0.125000002061652,0.144444451959316,0.0308486949652433,-0.0259617734700441,0.02382374368608
5,1.01805561097552,-0.112499999424294,0.12916666555545,0.0219911485910416,-0.0259617734700441,0.0339030213654041
5,1.01666671909226,-0.115277783190802,0.130555557438704,0.015577063895762,-0.0222965814173222,0.0262672062963247
5,1.01527782720901,-0.118055554801345,0.130555557438704,0.0131336031481624,-0.0131336031481624,0.0262672062963247
5,1.01527782720901,-0.12777778582816,0.133333341205212,0.01191187184304,-0.00549778714776039,0.0241291765123606
5,1.01527782720901,-0.134722233088466,0.136111112815755,0.0229074470698834,-0.0134390350431204,0.0219911485910416
5,1.01944450285877,-0.138888896582264,0.125000002061652,0.0360410511493683,-0.00519235478714108,0.0164933614432812
5,1.01527782720901,-0.13750000469901,0.12777778582816,0.0467311926186085,-0.00946841109544039,0.017409659922123
5,1.00972225967599,-0.140277788465518,0.130555557438704,0.0598647929728031,-0.0045814891345799,0.01588249579072
5,1.01111115155925,-0.144444451959316,0.13750000469901,0.0665843114256859,-0.0033597587607801,0.0131336031481624
5,1.01527782720901,-0.134722233088466,0.125000002061652,0.0668897479772568,0.0021380283869803,0.0113010071218014
5,1.01527782720901,-0.126388893944906,0.126388893944906,0.0595593601465225,0.00916297826915979,0.00671951752156019
5,1.01666671909226,-0.130555557438704,0.131944449321958,0.0574213340878487,0.0149661982432008,0.000610865245107561
5,1.01388893532575,-0.125000002061652,0.134722233088466,0.0357356183230877,0.00977384392172098,-0.00519235478714108
5,1.01666671909226,-0.120833338567854,0.126388893944906,0.0171042270958424,0.0027488935738802,-0.00366519158706069
5,1.01666671909226,-0.118055554801345,0.120833338567854,-0.00397062394768,0.0045814891345799,-0.00244346098043024
5,1.01805561097552,-0.12777778582816,0.130555557438704,-0.00946841109544039,0.0207694191485643,0.000916297896765172
5,1.01805561097552,-0.12777778582816,0.125000002061652,-0.0045814891345799,0.00977384392172098,-0.0021380283869803
5,1.01944450285877,-0.12777778582816,0.125000002061652,0.00244346098043024,0.00305432616733015,-0.00702495034784079
5,1.01944450285877,-0.131944449321958,0.125000002061652,0.0128281703218818,0.00183259579353034,-0.0103847095742822
5,1.01388893532575,-0.13750000469901,0.122222230451108,0.0253509078174829,0.00549778714776039,-0.0045814891345799
5,1.01111115155925,-0.140277788465518,0.120833338567854,0.03176499158144,0.00366519158706069,-0.00794124789535999
5,1.01944450285877,-0.140277788465518,0.1194444466846,0.0470366254448891,0.00702495034784079,-0.00397062394768
5,1.01805561097552,-0.13750000469901,0.123611110178398,0.0565050356090069,0.00855211354792118,-0.00977384392172098
5,1.01527782720901,-0.130555557438704,0.122222230451108,0.0708603709936142,0.00122173049021512,-0.00671951752156019
5,1.00972225967599,-0.130555557438704,0.126388893944906,0.0797179117798805,-0.0106901414692402,-0.00152716308366507
5,1.0125000434425,-0.130555557438704,0.123611110178398,0.0769690200686455,-0.0161879286170006,0.00702495034784079
5,1.01388893532575,-0.131944449321958,0.1194444466846,0.0784961804747581,-0.0201585534960032,0.013744467869401
5,1.01805561097552,-0.130555557438704,0.12777778582816,0.0717766657471657,-0.0152716310694814,0.00855211354792118
5,1.01527782720901,-0.12777778582816,0.126388893944906,0.0577267669141293,-0.0259617734700441,0.0241291765123606
5,1.01527782720901,-0.125000002061652,0.12777778582816,0.0461203269660473,-0.0299323964864016,0.0280998013913631
5,1.01805561097552,-0.126388893944906,0.126388893944906,0.0320704244077206,-0.0226020142436027,0.0226020142436027
5,1.01527782720901,-0.126388893944906,0.125000002061652,0.01588249579072,-0.0299323964864016,0.0232128798961639
5,1.01805561097552,-0.125000002061652,0.1194444466846,-0.00152716308366507,-0.0345138870179653,0.0256563406437635
5,1.01666671909226,-0.12916666555545,0.120833338567854,-0.00122173049021512,-0.0256563406437635,0.015577063895762
5,1.01944450285877,-0.131944449321958,0.118055554801345,-0.01191187184304,-0.00855211354792118,0.0128281703218818
5,1.01944450285877,-0.134722233088466,0.125000002061652,-0.00946841109544039,-0.00305432616733015,0.00610865233466029
5,1.01805561097552,-0.140277788465518,0.115277783190802,-0.0113010071218014,0.0164933614432812,-0.00488692196086049
5,1.01111115155925,-0.143055560076062,0.115277783190802,-0.0128281703218818,0.027488935738802,-0.0103847095742822
5,1.0125000434425,-0.150000007336368,0.118055554801345,-0.00580321997404099,0.0311541277915239,-0.0339030213654041
5,1.01111115155925,-0.14722222356986,0.123611110178398,0.0192422550171614,0.0470366254448891,-0.0369573459029198
5,1.01111115155925,-0.152777778946911,0.125000002061652,0.0277943685650826,0.0470366254448891,-0.029626963660121
5,1.01388893532575,-0.14722222356986,0.123611110178398,0.0360410511493683,0.0342084541916847,-0.0363464802503586
5,1.01527782720901,-0.141666668192807,0.118055554801345,0.0461203269660473,0.0394008085131645,-0.0400116741657257
5,1.01666671909226,-0.134722233088466,0.123611110178398,0.0513126812875271,0.0406225398182869,-0.0394008085131645
5,1.01527782720901,-0.126388893944906,0.130555557438704,0.0561996027827263,0.0384845100343227,-0.0424551330506802
5,1.01527782720901,-0.122222230451108,0.130555557438704,0.0433714315295219,0.0485637858510017,-0.0204639863222837
5,1.00972225967599,-0.120833338567854,0.144444451959316,0.0201585534960032,0.0262672062963247,-0.0100792767480016
5,1.01527782720901,-0.123611110178398,0.13750000469901,0.01191187184304,0.00733038317412138,0.00183259579353034
5,1.0125000434425,-0.120833338567854,0.133333341205212,0.0045814891345799,0.00183259579353034,0.00488692196086049
5,1.00694447590948,-0.123611110178398,0.13750000469901,0.00763581553474069,-0.0100792767480016,0.0149661982432008
5,1.0125000434425,-0.126388893944906,0.133333341205212,0.0125227374956012,-0.0201585534960032,0.0192422550171614
5,1.0125000434425,-0.12916666555545,0.130555557438704,0.0103847095742822,-0.0265726372599602,0.0106901414692402
5,1.01527782720901,-0.12777778582816,0.138888896582264,0.0122173046693206,-0.0256563406437635,0.0219911485910416
5,1.01527782720901,-0.12777778582816,0.138888896582264,0.0134390350431204,-0.0265726372599602,0.0210748501121998
5,1.01666671909226,-0.118055554801345,0.123611110178398,0.0143553335219622,-0.0229074470698834,0.0290160998702049
5,1.01527782720901,-0.112499999424294,0.120833338567854,0.0167987942695618,-0.0271835029125214,0.0345138870179653
5,1.01527782720901,-0.112499999424294,0.120833338567854,0.00671951752156019,-0.0213802829384804,0.0323758572340012
5,1.00972225967599,-0.113888891307548,0.138888896582264,0.0134390350431204,-0.0143553335219622,0.0262672062963247
5,1.01527782720901,-0.113888891307548,0.136111112815755,0.00824668072164059,-0.0339030213654041,0.0287106670439243
5,1.01527782720901,-0.113888891307548,0.136111112815755,-0.0045814891345799,-0.0311541277915239,0.0287106670439243
5,1.01666671909226,-0.112499999424294,0.138888896582264,-0.0262672062963247,-0.0256563406437635,0.0387899428606033
5,1.01944450285877,-0.108333335930496,0.126388893944906,-0.0455094613134861,-0.0290160998702049,0.0387899428606033
5,1.01944450285877,-0.108333335930496,0.126388893944906,-0.0510072484612465,-0.0268780700862408,0.0427605658769607
5,1.01388893532575,-0.113888891307548,0.112499999424294,-0.0626136884093285,-0.0250454749912024,0.0415388382971287
5,1.01527782720901,-0.130555557438704,0.125000002061652,-0.0650571510195732,-0.0210748501121998,0.0259617734700441
5,1.01527782720901,-0.130555557438704,0.125000002061652,-0.0574213340878487,-0.00916297826915979,0.027488935738802
5,1.01111115155925,-0.134722233088466,0.130555557438704,-0.0403171069920063,-0.0180205255746841,0.015577063895762
5,1.01527782720901,-0.13750000469901,0.130555557438704,-0.0332921557128429,-0.0335975885391235,0.017409659922123
5,1.00972225967599,-0.134722233088466,0.125000002061652,-0.0262672062963247,-0.0259617734700441,0.00702495034784079
5,1.01527782720901,-0.13750000469901,0.130555557438704,-0.0152716310694814,-0.0320704244077206,0.013744467869401
5,1.01666671909226,-0.138888896582264,0.125000002061652,-0.0128281703218818,-0.0277943685650826,0.0103847095742822
5,1.01666671909226,-0.144444451959316,0.126388893944906,-0.0143553335219622,-0.0265726372599602,0.0161879286170006
5,1.01388893532575,-0.138888896582264,0.12916666555545,0.01191187184304,-0.0348193198442459,0.0339030213654041
5,1.00416669214298,-0.138888896582264,0.126388893944906,0.0171042270958424,-0.0430659987032413,0.0418442711234093
5,1.00972225967599,-0.14722222356986,0.123611110178398,0.0253509078174829,-0.0290160998702049,0.0268780700862408
5,1.0125000434425,-0.152777778946911,0.125000002061652,0.0394008085131645,-0.0219911485910416,0.0219911485910416
5,1.01388893532575,-0.156944454596674,0.123611110178398,0.0403171069920063,-0.0177150927484035,0.0235183127224445
5,1.0125000434425,-0.152777778946911,0.1194444466846,0.0332921557128429,-0.011606439948082,0.00916297826915979
5,1.00972225967599,-0.148611115453114,0.10972222781375,0.0339030213654041,-0.00427605677396059,0.0113010071218014
5,1.01111115155925,-0.152777778946911,0.113888891307548,0.0320704244077206,0.00763581553474069,0.00916297826915979
5,1.01527782720901,-0.148611115453114,0.116666675074056,0.0320704244077206,0.00122173049021512,0.00824668072164059
5,1.01388893532575,-0.14722222356986,0.112499999424294,0.0287106670439243,-0.00244346098043024,0.011606439948082
5,1.01527782720901,-0.144444451959316,0.140277788465518,0.0244346093386412,-0.00824668072164059,0.00855211354792118
5,1.0125000434425,-0.143055560076062,0.115277783190802,0.0219911485910416,-0.0033597587607801,0.00977384392172098
5,1.0125000434425,-0.143055560076062,0.122222230451108,0.0177150927484035,0.000610865245107561,0.0106901414692402
5,1.01388893532575,-0.151388899219622,0.120833338567854,0.015577063895762,0.00488692196086049,0.00305432616733015
5,1.01388893532575,-0.148611115453114,0.116666675074056,0.0284052342176437,0.0045814891345799,0.00855211354792118
5,1.01527782720901,-0.14722222356986,0.1194444466846,0.0250454749912024,0.0183259565383196,-0.00641408516094089
5,1.01666671909226,-0.150000007336368,0.115277783190802,0.0360410511493683,0.0134390350431204,0.0027488935738802
5,1.0125000434425,-0.150000007336368,0.1194444466846,0.0284052342176437,0.0177150927484035,0.00519235478714108
5,1.00555558402623,-0.154166670830166,0.115277783190802,0.0259617734700441,0.011606439948082,-0.00183259579353034
5,1.0125000434425,-0.150000007336368,0.116666675074056,0.0183259565383196,0.00885754637420177,-0.0027488935738802
5,1.00972225967599,-0.14722222356986,0.120833338567854,0.0180205255746841,0.0128281703218818,-0.0027488935738802
5,1.0125000434425,-0.144444451959316,0.113888891307548,0.0131336031481624,0.00855211354792118,-0.00641408516094089
5,1.01666671909226,-0.150000007336368,0.108333335930496,-0.00183259579353034,0.0299323964864016,-0.0027488935738802
5,1.0125000434425,-0.152777778946911,0.120833338567854,-0.000610865245107561,0.00763581553474069,0.000916297896765172
5,1.01944450285877,-0.15555556271342,0.116666675074056,0.0021380283869803,0.0109955742955208,-0.00427605677396059
5,1.01527782720901,-0.152777778946911,0.112499999424294,0.0045814891345799,0.00183259579353034,0.00977384392172098
5,1.01527782720901,-0.150000007336368,0.113888891307548,0.00733038317412138,0.0100792767480016,0.00641408516094089
5,1.01111115155925,-0.152777778946911,0.113888891307548,0.0100792767480016,0.0113010071218014,0.0134390350431204
5,1.01388893532575,-0.151388899219622,0.118055554801345,0.0311541277915239,0.000916297896765172,0.00733038317412138
5,1.01388893532575,-0.152777778946911,0.108333335930496,0.0323758572340012,0.00183259579353034,0.00946841109544039
5,1.01666671909226,-0.148611115453114,0.106944444047242,0.0351247526705265,-0.00305432616733015,0.00610865233466029
5,1.01527782720901,-0.14722222356986,0.112499999424294,0.0418442711234093,0.00244346098043024,0.00305432616733015
5,1.0125000434425,-0.143055560076062,0.111111119697004,0.0436768643558025,0.00519235478714108,0.0103847095742822
5,1.01388893532575,-0.138888896582264,0.108333335930496,0.0427605658769607,-0.000916297896765172,0.000916297896765172
5,1.01388893532575,-0.140277788465518,0.111111119697004,0.0381790772080422,-0.0033597587607801,-0.00305432616733015
5,1.01388893532575,-0.136111112815755,0.106944444047242,0.0354301854968071,0.000610865245107561,-0.000916297896765172
5,1.01388893532575,-0.134722233088466,0.112499999424294,0.0253509078174829,0.00122173049021512,-0.00152716308366507
5,1.01527782720901,-0.130555557438704,0.108333335930496,0.0222965814173222,0.000305432622553781,-0.00641408516094089
5,1.01527782720901,-0.13750000469901,0.116666675074056,0.0143553335219622,-0.0033597587607801,-0.0109955742955208
5,1.01666671909226,-0.143055560076062,0.122222230451108,0.00855211354792118,-0.00366519158706069,-0.0106901414692402
5,1.0125000434425,-0.143055560076062,0.118055554801345,0.000916297896765172,-0.00183259579353034,-0.0125227374956012
5,1.01805561097552,-0.144444451959316,0.118055554801345,-0.00397062394768,0.000610865245107561,-0.01191187184304
5,1.01527782720901,-0.141666668192807,0.10972222781375,-0.0027488935738802,-0.000916297896765172,-0.0180205255746841
5,1.01527782720901,-0.141666668192807,0.115277783190802,-0.00488692196086049,-0.00885754637420177,-0.0183259565383196
5,1.01666671909226,-0.144444451959316,0.125000002061652,-0.0213802829384804,0.00641408516094089,-0.00946841109544039
5,1.01388893532575,-0.144444451959316,0.113888891307548,-0.0372627787292004,0.00824668072164059,-0.013744467869401
5,1.00972225967599,-0.138888896582264,0.108333335930496,-0.0473420582711697,0.0045814891345799,-0.00671951752156019
5,1.01527782720901,-0.136111112815755,0.10972222781375,-0.0583376325666905,0.0134390350431204,-0.0149661982432008
5,1.01527782720901,-0.148611115453114,0.1194444466846,-0.0534507073462009,0.0189368221908808,-0.01191187184304
5,1.01527782720901,-0.14722222356986,0.113888891307548,-0.0394008085131645,0.0207694191485643,-0.0143553335219622
5,1.0125000434425,-0.14583334384257,0.125000002061652,-0.0363464802503586,0.0146607663482428,-0.00946841109544039
5,1.00833336779274,-0.150000007336368,0.125000002061652,-0.0241291765123606,0.00427605677396059,-0.00885754637420177
5,1.0125000434425,-0.154166670830166,0.12777778582816,-0.0189368221908808,0.00794124789535999,-0.000610865245107561
5,1.0125000434425,-0.154166670830166,0.12916666555545,-0.00152716308366507,0.00671951752156019,-0.0103847095742822
5,1.0125000434425,-0.154166670830166,0.125000002061652,0.00519235478714108,0.00519235478714108,-0.00122173049021512
5,1.01388893532575,-0.151388899219622,0.126388893944906,0.0149661982432008,0.00397062394768,-0.0140499006956816
5,1.01388893532575,-0.154166670830166,0.123611110178398,0.0207694191485643,0.01191187184304,-0.00244346098043024
5,1.0125000434425,-0.14722222356986,0.125000002061652,0.0241291765123606,0.0128281703218818,-0.00855211354792118
5,1.0125000434425,-0.151388899219622,0.133333341205212,0.017409659922123,0.0131336031481624,-0.0021380283869803
5,1.0125000434425,-0.150000007336368,0.13750000469901,0.0167987942695618,0.0027488935738802,-0.00305432616733015
5,1.01944450285877,-0.143055560076062,0.136111112815755,0.0232128798961639,0.00610865233466029,-0.0103847095742822
5,1.0125000434425,-0.144444451959316,0.12777778582816,0.029626963660121,0.00122173049021512,-0.011606439948082
5,1.01388893532575,-0.134722233088466,0.12777778582816,0.0207694191485643,0.00916297826915979,-0.0109955742955208
5,1.0125000434425,-0.134722233088466,0.125000002061652,0.0219911485910416,0.00488692196086049,-0.0171042270958424
5,1.01388893532575,-0.133333341205212,0.12777778582816,0.00824668072164059,-0.000305432622553781,-0.0131336031481624
5,1.01944450285877,-0.134722233088466,0.12916666555545,-0.0021380283869803,0.00580321997404099,-0.0143553335219622
5,1.01527782720901,-0.136111112815755,0.130555557438704,0.000305432622553781,0.00519235478714108,-0.00794124789535999
5,1.00833336779274,-0.134722233088466,0.12916666555545,0.00183259579353034,0.00763581553474069,-0.00305432616733015
5,1.0125000434425,-0.144444451959316,0.122222230451108,0.00916297826915979,0.000916297896765172,-0.00152716308366507
5,1.01388893532575,-0.143055560076062,0.123611110178398,0.0146607663482428,0.00610865233466029,-0.00885754637420177
5,1.00972225967599,-0.140277788465518,0.126388893944906,0.0244346093386412,0.00794124789535999,-0.0128281703218818
5,1.00833336779274,-0.144444451959316,0.12916666555545,0.0271835029125214,0.00427605677396059,-0.0143553335219622
5,1.0125000434425,-0.13750000469901,0.122222230451108,0.03176499158144,-0.00519235478714108,-0.0198531206697226
5,0.986111194908388,-0.144444451959316,0.13750000469901,0.019547687843442,0.0378736443817616,-0.0128281703218818
5,1.07777786470773,-0.123611110178398,0.10972222781375,0.0794124826788902,-0.210137650370598,0.0503963828086853
5,1.02638896227504,-0.141666668192807,0.0694444482911319,0.05283984541893,-0.0167987942695618,0.0836885422468185
5,1.00833336779274,-0.140277788465518,0.102777780553444,0.0287106670439243,0.0482583530247212,-0.0244346093386412
5,1.00833336779274,-0.140277788465518,0.141666668192807,0.00519235478714108,0.116675265133381,-0.0726929605007172
5,1.01805561097552,-0.14722222356986,0.13750000469901,0.037568211555481,0.0522289797663689,-0.0210748501121998
