Activity,acc_x,acc_y,acc_z,gyro_x,gyro_y,gyro_z
0,0.400000011459671,0.00972222266958873,0.92083337364316,0.0033597587607801,-0.011606439948082,0.0470366254448891
0,0.400000011459671,0.00416666691266287,0.923611157409668,0.0464257597923279,-0.0665843114256859,-0.00733038317412138
0,0.401388903342925,0.00555555575692586,0.930555616825939,0.0271835029125214,-0.102625362575054,-0.0149661982432008
0,0.401388903342925,0.00555555575692586,0.930555616825939,-0.0167987942695618,-0.0390953756868839,-0.0244346093386412
0,0.415277797863537,0.00416666691266287,0.930555616825939,-0.0595593601465225,0.0149661982432008,-0.0256563406437635
0,0.416666689746791,-0.00277777787846293,0.922222265526414,-0.0800233483314514,0.0510072484612465,0.00580321997404099
0,0.416666689746791,-0.00277777787846293,0.922222265526414,-0.0555887371301651,0.0335975885391235,0.00641408516094089
0,0.397222227693163,-0.00694444498106275,0.92083337364316,-0.0552833043038845,0.0406225398182869,-0.0397062413394451
0,0.395833335809908,-0.00138888893923146,0.92083337364316,-0.0879645943641663,0.115148097276688,-0.104763388633728
0,0.395833335809908,-0.00138888893923146,0.92083337364316,-0.123394779860973,0.16890424489975,-0.131030589342117
0,0.397222227693163,-0.00972222266958873,0.934722292475701,-0.175929188728332,0.133474051952362,-0.12156218290329
0,0.400000011459671,-0.0138888899621255,0.933333400592447,-0.164322748780251,0.027488935738802,-0.109955742955208
0,0.397222227693163,-0.0180555564949145,0.938888968125464,-0.0907134860754013,-0.0968221426010132,-0.12705996632576
0,0.391666684472075,-0.0250000007162294,0.931944508709193,-0.0256563406437635,-0.0671951770782471,-0.164322748780251
0,0.388888900705567,-0.0166666676506515,0.936111184358955,0.0027488935738802,0.108734011650086,-0.199447497725487
0,0.402777795226179,-0.00694444498106275,0.922222265526414,0.0189368221908808,0.181121543049812,-0.200974673032761
0,0.406944470875941,-0.00277777787846293,0.919444481759906,-0.00305432616733015,-0.00580321997404099,-0.176845490932465
0,0.413888905980283,0.0125000003581147,0.923611157409668,-0.00794124789535999,-0.119424156844616,-0.138360977172852
0,0.413888905980283,0.0111111115138517,0.922222265526414,0.0106901414692402,-0.0561996027827263,-0.126143679022789
0,0.4194444735133,0.0208333341834404,0.898611103511094,-0.00610865233466029,0.00671951752156019,-0.109039448201656
0,0.416666689746791,0.0194444453391775,0.905555562927365,-0.000305432622553781,-0.0384845100343227,-0.064446285367012
0,0.422222257279808,0.0125000003581147,0.899999995394348,0.0418442711234093,0.0207694191485643,-0.0204639863222837
0,0.405555578992687,0.00555555575692586,0.904166671044111,0.0601702257990837,0.08460483700037,-0.0305432621389627
0,0.390277792588821,0.00555555575692586,0.905555562927365,0.02382374368608,0.00855211354792118,-0.0390953756868839
0,0.390277792588821,-0.00277777787846293,0.919444481759906,0.0149661982432008,0.0613919571042061,-0.0311541277915239
0,0.390277792588821,-0.00277777787846293,0.92083337364316,0.0277943685650826,0.0714712366461754,-0.037568211555481
0,0.384722225055805,0.00138888893923146,0.916666697993398,0.0113010071218014,-0.0464257597923279,-0.0342084541916847
0,0.383333357484479,-0.00277777787846293,0.929166724942685,0.0161879286170006,0.0342084541916847,-0.0638354197144508
0,0.394444468238583,-0.00277777787846293,0.93750007624221,0.0277943685650826,0.125838235020638,-0.0705549344420433
0,0.393055576355329,0.00277777787846293,0.94305554652751,0.000610865245107561,0.0623082555830479,-0.0684169083833694
0,0.391666684472075,0.00972222266958873,0.940277860008718,-0.0204639863222837,0.0284052342176437,-0.087659165263176
0,0.391666684472075,0.0125000003581147,0.940277860008718,-0.0277943685650826,-0.000305432622553781,-0.0910189226269722
0,0.409722230330521,0.0166666676506515,0.933333400592447,-0.0210748501121998,0.0534507073462009,-0.0711658000946045
0,0.411111122213775,0.0180555564949145,0.927777833059431,-0.011606439948082,0.0745255574584007,-0.0580321997404099
0,0.423611149163062,0.0208333341834404,0.926388941176177,-0.00610865233466029,0.0891863256692886,-0.0342084541916847
0,0.434722235605237,0.0250000007162294,0.930555616825939,-0.000305432622553781,0.0897971913218498,-0.00855211354792118
0,0.440277803138253,0.029166668768514,0.923611157409668,0.0106901414692402,-0.0177150927484035,0.0192422550171614
0,0.443055586904762,0.03194444645704,0.95000000594378,0.0372627787292004,-0.0592539273202419,0.076052725315094
0,0.443055586904762,0.03194444645704,0.95000000594378,0.021685715764761,-0.0772744566202164,0.0968221426010132
0,0.437500019371745,0.0222222230277034,0.947222222177272,0.00702495034784079,-0.126449108123779,0.100181899964809
0,0.438888911254999,0.029166668768514,0.940277860008718,0.0189368221908808,-0.148745685815811,0.0797179117798805
0,0.454166673346937,0.026388891079988,0.940277860008718,0.0305432621389627,-0.113620936870575,0.122173048555851
0,0.452777781463682,0.027777779924251,0.940277860008718,0.0033597587607801,-0.0717766657471657,0.210137650370598
0,0.426388884305712,0.0180555564949145,0.922222265526414,-0.0262672062963247,-0.0729983970522881,0.275194793939591
0,0.388888900705567,0.0138888899621255,0.911111130460381,-0.0229074470698834,-0.177456349134445,0.246484130620956
0,0.366666679197359,0.00277777787846293,0.92083337364316,-0.0448985956609249,-0.378736466169357,0.162184715270996
0,0.366666679197359,0.00277777787846293,0.92083337364316,-0.0736092627048492,-0.560774266719818,0.0540615729987621
0,0.33750002258481,-0.0111111115138517,0.890277849459286,-0.0910189226269722,-0.695775508880615,-0.0629191175103188
0,0.334722238818301,-0.0250000007162294,0.884722281926269,-0.104457959532738,-0.699440717697144,-0.130419731140137
0,0.334722238818301,-0.0250000007162294,0.884722281926269,-0.0671951770782471,-0.217162594199181,-0.12675453722477
0,0.344444457689151,-0.0486111125881959,0.880555606276507,-0.113315500319004,0.522900640964508,-0.166460782289505
0,0.284722228268869,-0.0916666697993398,0.899999995394348,-0.210137650370598,0.959363877773285,-0.100792765617371
0,0.284722228268869,-0.0916666697993398,0.899999995394348,-0.107817716896534,0.784350991249084,-0.226020142436027
0,0.20138889761309,-0.140277788465518,0.92083337364316,-0.0839939713478088,0.463646709918976,-0.50182580947876
0,0.25555557165632,-0.0819444448505077,0.89722221162784,-0.197920337319374,0.0733038261532784,-0.844215750694275
0,0.25555557165632,-0.0819444448505077,0.89722221162784,-0.256563395261765,0.0106901414692402,-0.974940955638885
0,0.519444445988306,0.0416666683668809,0.948611114060526,-0.201585531234741,0.0748309940099716,-0.915381550788879
0,0.618055575203916,0.0652777787193518,0.940277860008718,-0.244346097111702,0.124005645513535,-0.696997225284576
0,0.618055575203916,0.0652777787193518,0.940277860008718,-0.303905457258224,-0.08460483700037,-0.315511912107468
0,0.644444472361887,0.0888888921108138,0.918055589876652,-0.236710280179977,-0.336892187595367,-0.0668897479772568
0,0.644444472361887,0.0888888921108138,0.918055589876652,-0.0992656052112579,-0.468228220939636,0.108734011650086
0,0.641666688595378,0.0944444474878658,0.89722221162784,-0.000610865245107561,-0.431270867586136,0.303905457258224
0,0.6125000076709,0.0875000002275597,0.883333390043015,0.0626136884093285,-0.374765813350677,0.424245923757553
0,0.559722261978817,0.0680555564078778,0.887500065692777,0.101403631269932,-0.400422155857086,0.522595226764679
0,0.486111138037923,0.0416666683668809,0.894444525109048,0.109039448201656,-0.268169850111008,0.628885746002197
0,0.390277792588821,0.00277777787846293,0.902777779160856,0.0913243517279625,-0.0784961804747581,0.58551436662674
0,0.265277790527169,-0.0388888906783549,0.92083337364316,-0.0125227374956012,-0.131641462445259,0.296880513429642
0,0.150000007336368,-0.0819444448505077,0.954166681593543,-0.21685716509819,-0.18539759516716,-0.152716308832169
0,0.113888891307548,-0.134722233088466,0.96666670854283,-0.439822971820831,-0.0397062413394451,-0.707992792129517
0,0.14722222356986,-0.168055565350778,0.944444438410764,-0.529314756393433,0.276721954345703,-0.966999709606171
0,0.222222239394008,-0.144444451959316,0.923611157409668,-0.528092980384827,0.619417369365692,-1.13987457752228
0,0.344444457689151,-0.102777780553444,0.894444525109048,-0.488997638225555,0.743422985076904,-1.16278195381165
0,0.488888921804431,-0.0625000010308258,0.877777822509998,-0.321620553731918,0.424856781959534,-0.880562245845795
0,0.644444472361887,-0.00694444498106275,0.888888957576031,-0.119729585945606,0.0021380283869803,-0.42852196097374
0,0.733333358394718,0.0430555572111439,0.893055633225794,0.0723875313997269,-0.363770246505737,-0.00855211354792118
0,0.747222228603401,0.0625000010308258,0.923611157409668,0.296880513429642,-0.514653980731964,0.279165416955948
0,0.709722245003256,0.0680555564078778,0.923611157409668,0.304821759462357,-0.418442696332932,0.471587955951691
0,0.634722229179108,0.0986111170596459,0.947222222177272,0.157297804951668,-0.163406446576118,0.58062744140625
0,0.525000013521323,0.0833333367337618,0.954166681593543,-0.0589484944939613,0.0308486949652433,0.595899045467377
0,0.394444468238583,0.00694444498106275,0.933333400592447,-0.185703039169311,-0.190895393490791,0.583681762218475
0,0.281944444502361,-0.0847222225390337,0.912500022343635,-0.0977384373545647,-0.40164390206337,0.456010907888412
0,0.186111123365188,-0.120833338567854,0.89722221162784,0.0125227374956012,-0.372016936540604,0.211664810776711
0,0.150000007336368,-0.120833338567854,0.883333390043015,-0.157603234052658,-0.0910189226269722,-0.0598647929728031
0,0.123611110178398,-0.134722233088466,0.87500003874349,-0.343000829219818,0.273667633533478,-0.325591176748276
0,0.118055554801345,-0.14722222356986,0.863888903677457,-0.430354565382004,0.456316351890564,-0.639270484447479
0,0.152777778946911,-0.166666673467524,0.827777811960566,-0.458759784698486,0.548251569271088,-0.965777933597565
0,0.280555576931036,-0.136111112815755,0.823611136310804,-0.21135938167572,0.74006325006485,-1.20157194137573
0,0.480555570504907,-0.0513888902767219,0.812500049868629,0.154854342341423,0.943786799907684,-1.05740773677826
0,0.679166672195524,0.026388891079988,0.833333379493583,0.41263946890831,0.807258427143097,-0.667981147766113
0,0.781944477060896,0.0875000002275597,0.925000049292922,0.514959394931793,0.300240278244019,-0.0287106670439243
0,0.729166682744956,0.106944444047242,0.987499989543926,0.375987559556961,0.0458148941397667,0.326812893152237
0,0.6125000076709,0.104166672436698,1.02638896227504,0.175318330526352,-0.01191187184304,0.446237057447434
0,0.49444444071359,0.029166668768514,1.04722224327614,0.111788339912891,0.248011291027069,0.437684953212738
0,0.366666679197359,-0.0416666683668809,1.03194452980806,0.0439822971820831,0.654236674308777,0.247094988822937
0,0.254166679773066,-0.104166672436698,1.01527782720901,0.0113010071218014,0.666148543357849,-0.0134390350431204
0,0.179166676104882,-0.120833338567854,0.958333357243305,0.00427605677396059,0.572075307369232,-0.263588339090347
0,0.134722233088466,-0.104166672436698,0.923611157409668,-0.0525344125926495,0.415388375520706,-0.586125195026398
0,0.152777778946911,-0.0736111117849297,0.913888914226889,-0.00305432616733015,0.477696627378464,-0.792597651481628
0,0.152777778946911,-0.0736111117849297,0.913888914226889,0.0769690200686455,0.789848744869232,-0.879951357841492
0,0.226388890731841,-0.0180555564949145,0.906944454810619,0.0668897479772568,0.821613729000092,-0.841772317886353
0,0.226388890731841,-0.0180555564949145,0.906944454810619,-0.0394008085131645,0.483805269002914,-0.735481739044189
0,0.248611112240049,-0.0180555564949145,0.906944454810619,-0.0613919571042061,0.383012503385544,-0.643241107463837
0,0.273611117514765,-0.0111111115138517,0.922222265526414,0.0332921557128429,0.487470477819443,-0.575435042381287
0,0.29166668768514,0.00416666691266287,0.933333400592447,0.0592539273202419,0.315511912107468,-0.533896207809448
0,0.302777798439244,0.00833333382532574,0.936111184358955,-0.0763581544160843,-0.129197999835014,-0.411723166704178
0,0.312500017310094,-0.00277777787846293,0.941666654644256,-0.0708603709936142,-0.273056775331497,-0.317955374717712
0,0.312500017310094,0.00277777787846293,0.947222222177272,-0.00305432616733015,-0.389426589012146,-0.34330627322197
0,0.306944449777077,0.00972222266958873,0.972222276075846,0.115148097276688,-0.30207285284996,-0.410806864500046
0,0.331944455051793,0.03194444645704,1.00000001649321,0.109955742955208,-0.412944912910461,-0.374765813350677
0,0.390277792588821,0.0472222237439329,0.983333411141879,0.0183259565383196,-0.496633440256119,-0.131030589342117
0,0.411111122213775,0.055555559848502,0.975000059842355,0.120340451598167,-0.28008171916008,-0.0977384373545647
0,0.372222246730376,0.0694444482911319,0.969444492309338,0.0839939713478088,-0.333532422780991,-0.237015709280968
0,0.352777784676747,0.0625000010308258,0.963888924776322,0.05283984541893,-0.337503045797348,-0.309403240680695
0,0.348611133338914,0.0513888902767219,0.976388951725609,0.0522289797663689,-0.18509216606617,-0.35979962348938
0,0.330555563168539,0.0416666683668809,0.956944465360051,0.00977384392172098,-0.140193566679955,-0.371711492538452
0,0.354166676560001,0.0250000007162294,0.954166681593543,0.0510072484612465,-0.166460782289505,-0.32742378115654
0,0.347222241455659,0.0236111118719664,0.952777789710289,0.03176499158144,-0.205250725150108,-0.28557950258255
0,0.341666673922643,0.029166668768514,0.94305554652751,0.0543670058250427,-0.305738061666489,-0.303294599056244
0,0.33750002258481,0.052777782159976,0.94305554652751,0.13744467496872,-0.257174253463745,-0.330783516168594
0,0.344444457689151,0.0722222259796579,0.938888968125464,0.0916297882795334,-0.186619326472282,-0.324674874544144
0,0.366666679197359,0.0847222225390337,0.931944508709193,0.00641408516094089,-0.0998764708638191,-0.290771842002869
0,0.368055571080613,0.0736111117849297,0.918055589876652,-0.0497855171561241,0.00610865233466029,-0.336892187595367
0,0.365277787314105,0.0652777787193518,0.92083337364316,-0.0922406539320946,0.0482583530247212,-0.346055150032044
0,0.344444457689151,0.0652777787193518,0.916666697993398,-0.155770644545555,0.0235183127224445,-0.294742494821549
0,0.338888890156135,0.0652777787193518,0.909722238577127,-0.134084925055504,-0.00580321997404099,-0.282219737768173
0,0.344444457689151,0.0611111152255539,0.913888914226889,-0.106901414692402,0.019547687843442,-0.249538451433182
0,0.343055565805897,0.0722222259796579,0.919444481759906,-0.155770644545555,-0.019547687843442,-0.220216915011406
0,0.348611133338914,0.0708333340964038,0.915277806110144,-0.175623759627342,0.0351247526705265,-0.200363799929619
0,0.347222241455659,0.0763888894734557,0.927777833059431,-0.219300627708435,0.239153742790222,-0.257785141468048
0,0.325000019947452,0.0777777813567098,0.940277860008718,-0.235793977975845,0.286801218986511,-0.280387133359909
0,0.325000019947452,0.0777777813567098,0.941666654644256,-0.250760197639465,0.235183119773865,-0.298407673835754
0,0.345833349572405,0.055555559848502,0.944444438410764,-0.220827788114548,0.231517925858498,-0.278859972953796
0,0.341666673922643,0.0486111125881959,0.945833330294018,-0.129197999835014,0.203723564743996,-0.269391566514969
0,0.333333346935047,0.0375000018340919,0.944444438410764,-0.122173048555851,0.129197999835014,-0.270918726921081
0,0.341666673922643,0.0472222237439329,0.94305554652751,-0.123700208961964,0.198225766420364,-0.259006857872009
0,0.336111130701556,0.0513888902767219,0.93750007624221,-0.204639852046967,0.147523954510689,-0.211053937673569
0,0.333333346935047,0.0458333348996699,0.941666654644256,-0.221133217215538,0.0592539273202419,-0.218384325504303
0,0.322222236180943,0.0444444460554069,0.933333400592447,-0.203418120741844,-0.058643065392971,-0.22754730284214
0,0.325000019947452,0.0472222237439329,0.945833330294018,-0.113010071218014,0.0604756586253643,-0.2379320114851
0,0.325000019947452,0.0472222237439329,0.945833330294018,-0.118813291192055,0.115758962929249,-0.238848313689232
0,0.325000019947452,0.0472222237439329,0.945833330294018,-0.0986547395586967,0.0503963828086853,-0.204334422945976
0,0.336111130701556,0.0152777788063885,0.945833330294018,-0.0421497002243996,0.0473420582711697,-0.175623759627342
0,0.327777779402031,0.026388891079988,0.961111141009813,-0.0033597587607801,0.0140499006956816,-0.155159771442413
0,0.298611122789481,0.055555559848502,0.976388951725609,0.0277943685650826,-0.0131336031481624,-0.204028993844986
0,0.302777798439244,0.0666666706026059,0.98888888142718,0.0290160998702049,-0.04764748737216,-0.207694187760353
0,0.318055560531181,0.052777782159976,0.994444448960196,-0.0213802829384804,-0.0430659987032413,-0.200363799929619
0,0.322222236180943,0.0500000014324589,0.983333411141879,-0.102014496922493,-0.00610865233466029,-0.188757359981537
0,0.315277801076602,0.0458333348996699,0.973611167959101,-0.126449108123779,-0.0543670058250427,-0.159435823559761
0,0.302777798439244,0.0486111125881959,0.955555573476797,-0.131030589342117,-0.0293215326964855,-0.167682513594627
0,0.302777798439244,0.0486111125881959,0.955555573476797,-0.0992656052112579,-0.0794124826788902,-0.155465200543404
0,0.315277801076602,0.0375000018340919,0.941666654644256,-0.0714712366461754,-0.0500909499824047,-0.150272846221924
0,0.318055560531181,0.0458333348996699,0.973611167959101,-0.0739146918058395,-0.05283984541893,-0.142331600189209
0,0.319444452414435,0.0486111125881959,0.979166735492117,-0.0757472887635231,-0.101098194718361,-0.148440256714821
0,0.312500017310094,0.0513888902767219,0.973611167959101,-0.0736092627048492,-0.13225232064724,-0.132863193750381
0,0.320833344297689,0.0458333348996699,0.94305554652751,-0.0995710343122482,-0.136833816766739,-0.131641462445259
0,0.322222236180943,0.0430555572111439,0.941666654644256,-0.131641462445259,-0.131946891546249,-0.143553331494331
0,0.326388911830706,0.0458333348996699,0.936111184358955,-0.147829383611679,-0.05283984541893,-0.149356558918953
0,0.334722238818301,0.0402777795226179,0.94305554652751,-0.151189148426056,-0.0436768643558025,-0.148745685815811
0,0.318055560531181,0.0347222241455659,0.94305554652751,-0.126143679022789,-0.10048733651638,-0.145385921001434
0,0.298611122789481,0.0347222241455659,0.95000000594378,-0.124311074614525,-0.189062789082527,-0.127976268529892
0,0.298611122789481,0.0361111129898289,0.930555616825939,-0.158824965357781,-0.251371055841446,-0.142026171088219
0,0.325000019947452,0.029166668768514,0.923611157409668,-0.202196389436722,-0.136833816766739,-0.178678080439568
0,0.334722238818301,0.029166668768514,0.933333400592447,-0.253203630447388,-0.0293215326964855,-0.196698606014252
0,0.345833349572405,0.0138888899621255,0.95000000594378,-0.269391566514969,-0.0516181141138077,-0.192422553896904
0,0.327777779402031,-0.00277777787846293,0.954166681593543,-0.233350530266762,-0.189979091286659,-0.150272846221924
0,0.323611128064198,0.00694444498106275,0.93750007624221,-0.191811680793762,-0.346971452236175,-0.175929188728332
0,0.358333352209763,-0.0152777788063885,0.925000049292922,-0.188146501779556,-0.260534018278122,-0.240375474095344
0,0.379166681834717,-0.033333335301303,0.908333346693873,-0.224492982029915,-0.192117124795914,-0.320093393325806
0,0.413888905980283,-0.0847222225390337,0.887500065692777,-0.193338856101036,0.00733038317412138,-0.398894995450974
0,0.416666689746791,-0.0652777787193518,0.934722292475701,-0.136833816766739,-0.0772744566202164,-0.465173870325089
0,0.430555559955475,-0.0513888902767219,0.976388951725609,-0.139582708477974,-0.500909507274628,-0.434325188398361
0,0.437500019371745,-0.0777777813567098,0.922222265526414,-0.0897971913218498,-0.604756593704224,-0.402560204267502
0,0.438888911254999,-0.126388893944906,0.820833352544296,-0.154243469238281,-0.807258427143097,-0.415388375520706
0,0.433333343721983,-0.125000002061652,0.680555564078778,-0.37568211555481,-1.14079082012176,-0.546724379062653
0,0.420833365396554,-0.0680555564078778,0.693055591028065,-0.97371917963028,-3.16703081130981,-0.558025419712067
0,0.47500000297189,-0.0986111170596459,0.831944487610329,-1.53113377094269,-2.38359618186951,0.209221348166466
0,0.50138890012986,-0.0541666679652478,0.843055622676362,-1.72294545173645,-2.23485040664673,0.0604756586253643
0,0.526388905404577,-0.0500000014324589,0.652777823661411,-2.20369648933411,-1.63314819335938,0.19028452038765
0,0.556944478212309,-0.0513888902767219,0.63888890482887,-2.6456573009491,-0.736092627048492,0.171958565711975
0,0.556944478212309,-0.0513888902767219,0.63888890482887,-2.20827794075012,-0.495106279850006,-0.165849909186363
0,0.683333347845286,-0.138888896582264,0.752777796136418,-2.35793995857239,0.336586743593216,-0.589790403842926
0,0.727777790861702,-0.158333334323963,0.847222298326124,-2.07999610900879,0.855211317539215,-0.892474114894867
0,0.616666683320662,-0.218055563744246,0.923611157409668,-1.23486411571503,-0.620639085769653,-0.556498229503632
0,0.572222240304247,-0.276388901281273,1.1083333888916,-0.16920967400074,-2.94039988517761,-0.403171062469482
0,0.761111147435943,-0.331944455051793,0.751388904253164,-0.489608496427536,-3.25010848045349,-0.70829826593399
0,0.675000045169619,-0.269444466176932,0.609722223904392,-0.830776751041412,-2.36710286140442,-0.223271250724793
0,0.723611115211939,-0.204166669223633,0.863888903677457,-0.292299032211304,-2.16368460655212,-0.136833816766739
0,0.808333374218867,-0.2194444556275,0.718055596302781,-0.305127203464508,-1.71133899688721,-0.114537231624126
0,0.841666730793107,-0.251388896006557,0.623611142736933,-0.0864374339580536,-1.44652891159058,-0.236404851078987
0,0.929166724942685,-0.301388906555989,0.575000024070755,-0.3378084897995,-1.37994456291199,-0.473726004362106
0,0.766666714968959,-0.134722233088466,0.42916666807222,-0.50335294008255,-1.16950154304504,-0.349720358848572
0,0.772222233878117,-0.112499999424294,0.444444478788016,-0.487165033817291,-0.93554013967514,-0.484110713005066
0,0.754166688019672,-0.168055565350778,0.461111132763207,-0.551916778087616,-0.739452362060547,-0.421497017145157
0,0.768055606852213,-0.270833333748257,0.443055586904762,-0.666148543357849,-0.880562245845795,-0.60903263092041
0,0.899999995394348,-0.243055569018962,0.46527780841297,-0.574213325977325,-0.929126024246216,-0.551916778087616
0,0.89722221162784,-0.250000004123303,0.47500000297189,-0.448680520057678,-0.66737025976181,-0.650571465492249
0,0.923611157409668,-0.345833349572405,0.462500024646461,-0.416915535926819,-0.446847915649414,-0.808480143547058
0,0.849999984844916,-0.334722238818301,0.449999997697174,-0.933707535266876,-0.340557366609573,-0.67683869600296
0,0.861111119910949,-0.348611133338914,0.462500024646461,-1.42759203910828,-0.0833831056952477,-0.32742378115654
0,0.888888957576031,-0.356944460326509,0.456944457113445,-1.50395023822784,-0.39125919342041,-0.268475264310837
0,0.947222222177272,-0.327777779402031,0.411111122213775,-1.51066970825195,-0.615446746349335,-0.404087364673615
0,1.07500008094122,-0.258333331110899,0.379166681834717,-1.89765286445618,-1.91384077072144,-0.409585148096085
0,1.21944444780878,-0.134722233088466,0.381944465601225,-1.44439089298248,-1.42942464351654,-0.318566232919693
0,1.12777777800944,-0.327777779402031,0.268055574293678,-1.07512283325195,-1.10322260856628,-0.898888230323792
0,1.04027778385987,-0.305555557893823,0.252777787889811,-0.907440304756165,-1.02075576782227,-1.01556348800659
0,1.04861113515939,-0.269444466176932,0.179166676104882,-1.15942227840424,-1.0845912694931,-0.775798857212067
0,1.00555558402623,-0.240277785252453,0.156944454596674,-1.08275866508484,-0.81428337097168,-0.736092627048492
0,0.96666670854283,-0.212499996211229,0.208333344873396,-1.01220369338989,-1.02716994285583,-0.825584352016449
0,0.841666730793107,-0.19166667874224,0.241666677135707,-0.722653567790985,-0.772744536399841,-0.534201681613922
0,0.841666730793107,-0.19166667874224,0.241666677135707,-0.69730269908905,-0.792903065681458,-0.368351757526398
0,0.981944519258625,-0.159722226207217,0.234722242031366,-0.959669291973114,-0.862541735172272,-0.133168622851372
0,0.976388951725609,-0.177777784221628,0.202777789496344,-1.01434171199799,-0.806342124938965,-0.183259576559067
0,0.963888924776322,-0.206944452990142,0.166666673467524,-0.787099897861481,-0.772744536399841,-0.378125578165054
0,0.94305554652751,-0.177777784221628,0.193055558469529,-0.707076549530029,-0.679587602615356,-0.37079519033432
0,0.940277860008718,-0.187500003092477,0.206944452990142,-0.551611304283142,-0.558636248111725,-0.30207285284996
0,1.00277780025972,-0.250000004123303,0.156944454596674,-0.328645497560501,-0.479223787784576,-0.215024560689926
0,0.965277816659576,-0.238888893369199,0.123611110178398,-0.72418075799942,-2.06716799736023,0.111788339912891
0,0.872222254976982,-0.268055574293678,-0.0958333393711199,-1.351233959198,-4.15754890441895,0.60261857509613
0,0.973611167959101,-0.297222230906227,-0.0458333348996699,-0.976162672042847,-3.2647693157196,0.509767055511475
0,1.11388895642462,-0.184722231481934,0.0250000007162294,-0.58215457201004,-2.28249788284302,0.465784758329391
0,1.09583336194232,-0.115277783190802,-0.0680555564078778,-0.549473285675049,-1.87657809257507,0.491746515035629
0,1.02916674604155,-0.162500009973726,-0.0722222259796579,-0.221133217215538,-0.870177567005157,0.212275668978691
0,1.00277780025972,-0.197222234119292,-0.150000007336368,-0.0500909499824047,-0.546418964862823,-0.186619326472282
0,1.00000001649321,-0.162500009973726,-0.216666671860991,-0.1750128865242,-0.925155401229858,-0.480445504188538
0,1.04305556762637,-0.125000002061652,-0.236111109602691,-0.198225766420364,-0.805425822734833,-0.827416956424713
0,0.952777789710289,-0.14722222356986,-0.229166674498349,-0.131030589342117,-0.531147301197052,-0.851851582527161
0,0.904166671044111,-0.202777789496344,-0.283333336385615,-0.0198531206697226,-0.208610475063324,-0.544586360454559
0,0.852777768611424,-0.131944449321958,-0.269444466176932,-0.0641408488154411,-0.295353353023529,-0.355523586273193
0,0.85138887672817,-0.166666673467524,-0.304166666010569,-0.0659734457731247,-0.398589581251144,-0.213497400283814
0,0.831944487610329,-0.175000000455119,-0.269444466176932,0.149967417120934,0.0842994004487991,0.096211276948452
0,0.729166682744956,-0.202777789496344,-0.252777787889811,0.273667633533478,-0.0650571510195732,0.602007687091827
0,0.934722292475701,-0.113888891307548,-0.198611113846581,0.379652738571167,0.521678924560547,0.230296194553375
0,1.00833336779274,-0.13750000469901,-0.2194444556275,0.311235845088959,0.750447928905487,-0.0299323964864016
0,0.970833384192592,-0.187500003092477,-0.190277786858986,0.34880405664444,0.969748556613922,0.00763581553474069
0,1.0125000434425,-0.2194444556275,-0.184722231481934,0.401033043861389,1.28281700611115,0.260534018278122
0,1.16666675074056,-0.188888894975731,-0.263888898643915,-0.00427605677396059,0.670424580574036,-0.13225232064724
0,1.08472222687628,-0.244444460902216,-0.162500009973726,0.105374254286289,0.941037893295288,0.0717766657471657
0,0.89166674134254,-0.166666673467524,-0.166666673467524,0.0687223374843597,1.03266775608063,-0.0699440687894821
0,0.800000022919342,-0.14722222356986,-0.159722226207217,0.118202425539494,1.03602743148804,-0.0256563406437635
0,0.911111130460381,-0.176388892338373,-0.0916666697993398,0.32192599773407,1.66857838630676,0.00488692196086049
0,1.06805562152495,-0.262500006760661,-0.194444450352783,0.16920967400074,1.28098440170288,-0.013744467869401
0,0.968055600426084,-0.254166679773066,-0.0916666697993398,0.101403631269932,1.55495750904083,-0.446542501449585
0,1.06666672964169,-0.226388890731841,-0.055555559848502,0.286801218986511,1.26723992824554,1.1267409324646
0,1.18472224797515,-0.216666671860991,-0.0347222241455659,0.138055548071861,0.808785557746887,0.80481493473053
0,1.23888893417434,-0.212499996211229,-0.0583333375370279,0.0775798857212067,0.82375180721283,0.365602850914002
0,1.2041667343407,-0.140277788465518,-0.0833333367337618,0.0210748501121998,0.394924372434616,0.334448724985123
0,0.89722221162784,-0.166666673467524,0.0513888902767219,0.223576679825783,0.641103088855743,0.567799270153046
0,0.85138887672817,-0.138888896582264,0.0930555616825939,0.103847093880177,0.543364644050598,0.554360210895538
0,1.00694447590948,-0.141666668192807,-0.00277777787846293,0.00305432616733015,0.809091031551361,0.108734011650086
0,0.925000049292922,-0.187500003092477,-0.00277777787846293,0.0815505087375641,0.691193997859955,-0.17440202832222
0,1.05972227022542,-0.340277782039389,0.027777779924251,-0.122478485107422,0.469449937343597,-0.308792382478714
0,1.25138896112363,-0.434722235605237,0.0486111125881959,-0.0571159012615681,0.441960990428925,0.0302378293126821
0,1.05416670269241,-0.248611112240049,0.0736111117849297,-0.135917514562607,0.275500237941742,-0.0378736443817616
0,1.02222228662528,-0.281944444502361,0.0680555564078778,-0.0839939713478088,0.0956004112958908,-0.0931569486856461
0,0.963888924776322,-0.29166668768514,0.0611111152255539,0.147523954510689,0.402865618467331,-0.134695783257484
0,0.933333400592447,-0.252777787889811,0.0625000010308258,0.145996794104576,0.314290165901184,-0.341168224811554
0,0.979166735492117,-0.244444460902216,0.0736111117849297,0.0027488935738802,0.245873257517815,-0.458454370498657
0,0.993055557076942,-0.218055563744246,0.0750000036681839,-0.104763388633728,0.0974330082535744,-0.480445504188538
0,0.984722303025134,-0.206944452990142,0.0875000002275597,-0.120645888149738,0.0372627787292004,-0.455705463886261
0,1.0361111082101,-0.206944452990142,0.0750000036681839,0.0400116741657257,0.0638354197144508,-0.408668845891953
0,1.00972225967599,-0.2194444556275,0.0763888894734557,0.0192422550171614,0.0555887371301651,-0.4331034719944
0,1.00416669214298,-0.180555567988136,0.0875000002275597,-0.0122173046693206,0.0189368221908808,-0.399200439453125
0,1.01944450285877,-0.161111118090472,0.102777780553444,-0.0806342139840126,-0.28008171916008,-0.128892570734024
0,1.03750000009336,-0.180555567988136,0.0694444482911319,0.0442877300083637,-0.251371055841446,-0.0207694191485643
0,0.998611124609959,-0.20138889761309,0.0694444482911319,0.0503963828086853,-0.205556154251099,-0.0833831056952477
0,1.04305556762637,-0.186111123365188,0.055555559848502,0.101403631269932,-0.143858760595322,-0.0879645943641663
0,1.01527782720901,-0.168055565350778,0.0458333348996699,0.17440202832222,-0.0488692186772823,0.0265726372599602
0,1.01111115155925,-0.170833336961321,0.0513888902767219,0.0729983970522881,-0.0366519130766392,0.00855211354792118
0,1.00000001649321,-0.156944454596674,0.0458333348996699,0.0390953756868839,0.0610865242779255,0.0284052342176437
0,1.03472221632685,-0.152777778946911,-0.101388894748172,-0.456927210092545,0.813977956771851,-0.0164933614432812
0,1.04027778385987,-0.198611113846581,0.00416666691266287,0.102625362575054,1.85000538825989,0.0357356183230877
0,0.968055600426084,-0.176388892338373,0.250000004123303,0.0812450796365738,-0.351247519254685,0.0134390350431204
0,0.99583334084345,-0.180555567988136,0.0916666697993398,0.00641408516094089,-0.271529614925385,-0.01191187184304
0,1.02500007039179,-0.176388892338373,0.0180555564949145,-0.0284052342176437,0.386677712202072,-0.00885754637420177
0,1.01388893532575,-0.180555567988136,0.125000002061652,0.0122173046693206,-0.0543670058250427,0.00580321997404099
0,1.02222228662528,-0.177777784221628,0.0791666671619817,0.0146607663482428,-0.0568104684352875,-0.00152716308366507
0,1.00416669214298,-0.111111119697004,0.0666666706026059,0.070249505341053,0.300240278244019,0.0711658000946045
0,1.00416669214298,-0.111111119697004,0.0666666706026059,-0.0299323964864016,0.15851953625679,0.0149661982432008
0,1.00555558402623,-0.18333333959868,0.118055554801345,-0.0452040284872055,-0.0977384373545647,-0.00519235478714108
0,1.00972225967599,-0.180555567988136,0.13750000469901,0.0342084541916847,-0.0638354197144508,-0.0473420582711697
0,1.00972225967599,-0.180555567988136,0.13750000469901,0.011606439948082,-0.0583376325666905,-0.0180205255746841
0,1.02638896227504,-0.163888889701015,0.0722222259796579,-0.00916297826915979,0.0784961804747581,-0.0207694191485643
0,1.01944450285877,-0.175000000455119,0.10972222781375,-0.019547687843442,0.106901414692402,-0.0213802829384804
0,1.01944450285877,-0.175000000455119,0.10972222781375,-0.00977384392172098,0.0568104684352875,-0.0171042270958424
0,1.01388893532575,-0.177777784221628,0.116666675074056,-0.0122173046693206,0.0290160998702049,-0.0201585534960032
0,0.99583334084345,-0.169444445078067,0.140277788465518,-0.0384845100343227,-0.0882700309157372,-0.00580321997404099
0,0.99583334084345,-0.169444445078067,0.140277788465518,-0.0192422550171614,-0.32742378115654,0.0045814891345799
0,1.00000001649321,-0.17361112072783,0.113888891307548,0.000916297896765172,-0.244346097111702,0.00977384392172098
0,1.01805561097552,-0.179166676104882,0.055555559848502,-0.0201585534960032,-0.0687223374843597,0.000916297896765172
0,1.01805561097552,-0.179166676104882,0.055555559848502,-0.0421497002243996,0.142637029290199,-0.00855211354792118
0,1.0361111082101,-0.180555567988136,0.055555559848502,-0.0696386396884918,0.306043475866318,0.013744467869401
0,0.993055557076942,-0.170833336961321,0.144444451959316,-0.0384845100343227,0.181732416152954,0.0394008085131645
0,1.00972225967599,-0.170833336961321,0.120833338567854,0.0366519130766392,0.0552833043038845,0.0265726372599602
0,1.00000001649321,-0.151388899219622,0.123611110178398,0.0339030213654041,0.0290160998702049,0.136222943663597
0,0.991666665193688,-0.17361112072783,0.108333335930496,0.0378736443817616,0.0629191175103188,0.188146501779556
0,0.965277816659576,-0.168055565350778,0.100000002864918,0.021685715764761,0.0326812900602817,0.279470860958099
0,0.997222232726705,-0.186111123365188,0.105555564319952,0.0277943685650826,0.102319926023483,0.265420943498612
0,0.959722249126559,-0.198611113846581,0.102777780553444,-0.0442877300083637,0.107817716896534,0.320704251527786
0,0.940277860008718,-0.194444450352783,0.125000002061652,-0.0152716310694814,0.11087204515934,0.2379320114851
0,0.96666670854283,-0.216666671860991,0.123611110178398,-0.0027488935738802,0.149356558918953,0.126449108123779
0,1.09444447005906,-0.195833342236038,0.113888891307548,0.0265726372599602,0.158214092254639,0.197309479117393
0,1.00277780025972,-0.200000005729836,0.123611110178398,0.0613919571042061,0.149967417120934,0.42363503575325
0,0.926388941176177,-0.205555561106887,0.144444451959316,0.154243469238281,0.123700208961964,0.748920798301697
0,1.01527782720901,-0.226388890731841,0.108333335930496,0.0561996027827263,0.192422553896904,0.579405665397644
0,0.96666670854283,-0.236111109602691,0.125000002061652,0.103541657328606,0.226020142436027,0.414472073316574
0,1.01666671909226,-0.251388896006557,0.130555557438704,0.11117747426033,0.215940862894058,0.381485342979431
0,0.963888924776322,-0.272222225631511,0.163888889701015,0.105068825185299,0.0928515195846558,0.0470366254448891
0,0.962500032893068,-0.268055574293678,0.17361112072783,0.0171042270958424,0.0534507073462009,-0.632856369018555
0,0.825000028194058,-0.251388896006557,0.14583334384257,-0.0219911485910416,0.298407673835754,-1.84939455986023
0,0.912500022343635,-0.188888894975731,0.208333344873396,-0.0836885422468185,0.149661988019943,-1.10077917575836
0,1.32777782020717,-0.176388892338373,0.140277788465518,0.0589484944939613,0.379958182573318,-0.131641462445259
0,1.08750001064279,-0.206944452990142,0.148611115453114,0.0241291765123606,0.356134444475174,-0.331699818372726
0,1.14444448060849,-0.18333333959868,0.177777784221628,0.00733038317412138,0.186008468270302,-0.0842994004487991
0,1.07500008094122,-0.190277786858986,0.175000000455119,-0.0424551330506802,0.22785273194313,-0.304516315460205
0,1.0902777944093,-0.193055558469529,0.166666673467524,0.013744467869401,0.203723564743996,-0.443182736635208
0,1.07638897282447,-0.154166670830166,0.181944447715425,0.0180205255746841,0.114842668175697,-0.334448724985123
0,1.03750000009336,-0.156944454596674,0.197222234119292,-0.0320704244077206,-0.0751364231109619,-0.135612085461616
0,1.02500007039179,-0.150000007336368,0.18333333959868,-0.0821613743901253,-0.087659165263176,-0.0714712366461754
0,1.02083339474202,-0.14722222356986,0.17361112072783,-0.0671951770782471,0.0458148941397667,-0.0314595587551594
0,1.01527782720901,-0.141666668192807,0.175000000455119,-0.0354301854968071,0.167071640491486,-0.0177150927484035
0,1.00694447590948,-0.141666668192807,0.200000005729836,0.0421497002243996,0.155465200543404,-0.0580321997404099
0,1.00972225967599,-0.140277788465518,0.188888894975731,0.0601702257990837,0.13744467496872,-0.0339030213654041
0,1.01944450285877,-0.163888889701015,0.194444450352783,0.00916297826915979,0.0412334054708481,-0.0500909499824047
0,0.99583334084345,-0.148611115453114,0.193055558469529,0.0219911485910416,-0.00152716308366507,0.00885754637420177
0,0.970833384192592,-0.154166670830166,0.213888888094483,0.106290549039841,0.00152716308366507,0.0293215326964855
0,1.00000001649321,-0.140277788465518,0.190277786858986,0.155465200543404,0.0934623852372169,-0.0623082555830479
0,1.01527782720901,-0.136111112815755,0.180555567988136,0.10598511993885,0.0739146918058395,-0.0378736443817616
0,1.01388893532575,-0.152777778946911,0.194444450352783,0.0339030213654041,-0.064446285367012,-0.0100792767480016
0,1.00555558402623,-0.154166670830166,0.188888894975731,-0.0342084541916847,-0.107206851243973,-0.0262672062963247
0,0.99583334084345,-0.14722222356986,0.193055558469529,-0.00977384392172098,-0.0839939713478088,-0.0293215326964855
0,0.997222232726705,-0.151388899219622,0.190277786858986,0.0323758572340012,-0.0256563406437635,-0.0400116741657257
0,1.01944450285877,-0.141666668192807,0.176388892338373,0.0488692186772823,0.0907134860754013,-0.000305432622553781
0,1.00138890837647,-0.136111112815755,0.193055558469529,0.0045814891345799,0.076052725315094,-0.00824668072164059
0,0.986111194908388,-0.156944454596674,0.224999998848587,0.0873537287116051,-0.113315500319004,-0.0497855171561241
0,1.0125000434425,-0.161111118090472,0.190277786858986,0.126143679022789,-0.142637029290199,-0.0537561401724815
0,1.01666671909226,-0.144444451959316,0.176388892338373,0.120035022497177,-0.0210748501121998,-0.0623082555830479
0,1.02222228662528,-0.134722233088466,0.163888889701015,0.0717766657471657,0.090408056974411,-0.0458148941397667
0,1.00694447590948,-0.133333341205212,0.177777784221628,0.0241291765123606,0.214413702487946,-0.0122173046693206
0,1.00416669214298,-0.12916666555545,0.181944447715425,0.0342084541916847,0.294437050819397,0.00885754637420177
0,0.991666665193688,-0.133333341205212,0.206944452990142,0.0277943685650826,0.284663200378418,0.0403171069920063
0,0.998611124609959,-0.138888896582264,0.20138889761309,-0.02382374368608,0.172874867916107,0.00946841109544039
0,1.01111115155925,-0.136111112815755,0.190277786858986,-0.119118720293045,0.115453533828259,-0.0207694191485643
0,1.01805561097552,-0.140277788465518,0.170833336961321,-0.189673662185669,0.349720358848572,-0.0213802829384804
0,0.987499989543926,-0.14722222356986,0.216666671860991,-0.182037845253944,0.496633440256119,0.0366519130766392
0,0.987499989543926,-0.14722222356986,0.216666671860991,-0.182954147458077,0.142331600189209,0.0161879286170006
0,0.980555627375371,-0.14722222356986,0.295833339022973,-0.027488935738802,-0.247705861926079,-0.0125227374956012
0,1.00416669214298,-0.13750000469901,0.283333336385615,0.172874867916107,-0.479529231786728,-0.0623082555830479
0,1.00416669214298,-0.13750000469901,0.283333336385615,0.245873257517815,-0.513432264328003,-0.0537561401724815
0,1.00000001649321,-0.122222230451108,0.223611131277262,0.0366519130766392,-0.525344133377075,-0.0629191175103188
0,1.03194452980806,-0.118055554801345,0.197222234119292,0.0907134860754013,-0.229685336351395,-0.0372627787292004
0,1.03194452980806,-0.118055554801345,0.197222234119292,-0.064446285367012,-0.200974673032761,0.0592539273202419
0,1.04583335139288,-0.123611110178398,0.14722222356986,-0.0546724386513233,0.037568211555481,0.0650571510195732
0,1.0125000434425,-0.12916666555545,0.200000005729836,-0.0723875313997269,-0.0992656052112579,0.029626963660121
0,1.0125000434425,-0.12916666555545,0.200000005729836,-0.0189368221908808,-0.01191187184304,0.00641408516094089
0,1.00555558402623,-0.140277788465518,0.18333333959868,-0.0256563406437635,-0.0323758572340012,0.0100792767480016
0,1.00000001649321,-0.14722222356986,0.186111123365188,0.000610865245107561,-0.000305432622553781,-0.0103847095742822
0,1.00000001649321,-0.14722222356986,0.186111123365188,0.0100792767480016,-0.01191187184304,-0.00519235478714108
0,1.00833336779274,-0.143055560076062,0.19166667874224,0.00580321997404099,-0.00183259579353034,-0.0146607663482428
0,1.00833336779274,-0.17361112072783,0.216666671860991,0.0219911485910416,-0.0219911485910416,-0.0113010071218014
0,1.01111115155925,-0.141666668192807,0.179166676104882,-0.013744467869401,0.00549778714776039,0.00885754637420177
0,1.00000001649321,-0.133333341205212,0.18333333959868,-0.0262672062963247,-0.00183259579353034,-0.00641408516094089
0,1.00138890837647,-0.14583334384257,0.180555567988136,-0.01191187184304,0.00122173049021512,0.00702495034784079
0,1.00555558402623,-0.14583334384257,0.175000000455119,-0.017409659922123,-0.0229074470698834,0.00183259579353034
0,1.00138890837647,-0.144444451959316,0.180555567988136,-0.02382374368608,-0.0210748501121998,0.00244346098043024
0,0.99583334084345,-0.143055560076062,0.176388892338373,-0.0140499006956816,-0.027488935738802,0.00397062394768
0,0.990277773310434,-0.138888896582264,0.166666673467524,-0.109955742955208,0.136833816766739,0.00916297826915979
0,1.00000001649321,-0.13750000469901,0.150000007336368,-0.172874867916107,0.138666406273842,0.0290160998702049
0,1.00416669214298,-0.161111118090472,0.176388892338373,-0.0873537287116051,0.0351247526705265,0.0021380283869803
0,1.02083339474202,-0.152777778946911,0.20972223675665,-0.0167987942695618,-0.00488692196086049,0.0311541277915239
0,1.00833336779274,-0.158333334323963,0.208333344873396,0.000305432622553781,-0.0629191175103188,-0.00244346098043024
0,1.01805561097552,-0.172222228844576,0.161111118090472,0.0387899428606033,0.153632611036301,-0.0421497002243996
0,1.00833336779274,-0.163888889701015,0.190277786858986,0.0500909499824047,0.139277279376984,-0.00763581553474069
0,0.977777843608863,-0.131944449321958,0.190277786858986,0.0711658000946045,0.0675006061792374,-0.000916297896765172
0,0.959722249126559,-0.15555556271342,0.197222234119292,0.0733038261532784,0.118507854640484,0.0500909499824047
0,0.98888888142718,-0.161111118090472,0.168055565350778,-0.119729585945606,0.0198531206697226,0.027488935738802
0,1.0125000434425,-0.166666673467524,0.193055558469529,-0.0665843114256859,-0.0201585534960032,0.00733038317412138
0,1.01944450285877,-0.144444451959316,0.197222234119292,0.0381790772080422,-0.0412334054708481,0.0406225398182869
0,1.02916674604155,-0.13750000469901,0.202777789496344,0.138055548071861,-0.00122173049021512,-0.00671951752156019
0,1.04305556762637,-0.151388899219622,0.190277786858986,0.136833816766739,0.129503428936005,-0.0558941699564457
0,0.987499989543926,-0.152777778946911,0.168055565350778,0.0439822971820831,0.141415297985077,-0.0430659987032413
0,0.970833384192592,-0.141666668192807,0.184722231481934,0.0510072484612465,0.0940732508897781,0.0299323964864016
0,0.965277816659576,-0.133333341205212,0.202777789496344,0.0445931628346443,0.0351247526705265,0.03176499158144
0,0.976388951725609,-0.144444451959316,0.223611131277262,0.128892570734024,-0.124921940267086,-0.0351247526705265
0,0.970833384192592,-0.118055554801345,0.223611131277262,0.119424156844616,-0.148134827613831,0.0870482996106148
0,1.02916674604155,-0.14722222356986,0.216666671860991,0.0671951770782471,-0.123700208961964,0.104763388633728
0,1.07222229717471,-0.150000007336368,0.250000004123303,0.202501833438873,-0.167377084493637,0.231212496757507
0,0.986111194908388,-0.152777778946911,0.223611131277262,0.125227376818657,-0.125838235020638,-0.00824668072164059
0,1.12777777800944,-0.197222234119292,0.12916666555545,-0.264810085296631,-0.120645888149738,-0.322231411933899
0,1.03194452980806,-0.140277788465518,0.176388892338373,-0.390953749418259,-0.0733038261532784,0.0381790772080422
0,0.979166735492117,-0.13750000469901,0.206944452990142,-0.271835029125214,-0.10048733651638,0.0394008085131645
0,0.975000059842355,-0.144444451959316,0.215277779977737,-0.157297804951668,-0.184481307864189,-0.0287106670439243
0,1.01944450285877,-0.118055554801345,0.197222234119292,-0.0259617734700441,-0.154243469238281,0.0433714315295219
0,1.05555559457566,-0.133333341205212,0.187500003092477,0.021685715764761,-0.0522289797663689,-0.0421497002243996
0,1.03472221632685,-0.133333341205212,0.200000005729836,0.0690277740359306,-0.124616511166096,-0.0354301854968071
0,0.925000049292922,-0.104166672436698,0.262500006760661,0.168598800897598,-0.177150920033455,-0.0280998013913631
0,0.959722249126559,-0.123611110178398,0.125000002061652,-0.17409659922123,0.319177091121674,-0.01191187184304
0,0.965277816659576,-0.13750000469901,0.190277786858986,-0.0140499006956816,0.0229074470698834,0.00549778714776039
0,0.98888888142718,-0.154166670830166,0.16527778158427,-0.0247400421649218,0.0864374339580536,0.00916297826915979
0,1.0125000434425,-0.156944454596674,0.175000000455119,-0.00916297826915979,0.0366519130766392,-0.000610865245107561
0,1.00555558402623,-0.148611115453114,0.177777784221628,-0.0140499006956816,0.0180205255746841,-0.00855211354792118
0,1.00972225967599,-0.151388899219622,0.166666673467524,-0.00946841109544039,0.0232128798961639,-0.0143553335219622
0,1.00694447590948,-0.151388899219622,0.176388892338373,-0.00824668072164059,0.0131336031481624,-0.0143553335219622
0,1.01527782720901,-0.156944454596674,0.16527778158427,-0.0519235469400883,0.0769690200686455,0.02382374368608
0,1.00694447590948,-0.163888889701015,0.17361112072783,-0.015577063895762,0.000305432622553781,0.00549778714776039
0,1.02222228662528,-0.154166670830166,0.162500009973726,0.00885754637420177,0.0665843114256859,-0.0400116741657257
0,1.01527782720901,-0.150000007336368,0.194444450352783,0.00977384392172098,0.0470366254448891,-0.03176499158144
0,0.994444448960196,-0.148611115453114,0.16527778158427,-0.0265726372599602,0.03176499158144,-0.0152716310694814
0,0.969444492309338,-0.126388893944906,0.18333333959868,-0.0265726372599602,0.0128281703218818,0.0739146918058395
0,0.987499989543926,-0.140277788465518,0.187500003092477,0.00763581553474069,0.00122173049021512,0.0784961804747581
0,1.00972225967599,-0.159722226207217,0.180555567988136,-0.03176499158144,-0.0183259565383196,-0.00733038317412138
0,1.0125000434425,-0.158333334323963,0.181944447715425,0.00397062394768,-0.0235183127224445,-0.00977384392172098
0,1.00972225967599,-0.150000007336368,0.18333333959868,-0.019547687843442,-0.0180205255746841,-0.0207694191485643
0,1.00833336779274,-0.148611115453114,0.170833336961321,-0.029626963660121,-0.0100792767480016,-0.0244346093386412
0,1.00694447590948,-0.133333341205212,0.14583334384257,-0.0277943685650826,0.0171042270958424,-0.0406225398182869
0,1.00000001649321,-0.156944454596674,0.170833336961321,-0.0287106670439243,0.00427605677396059,-0.015577063895762
0,1.00277780025972,-0.177777784221628,0.144444451959316,-0.0671951770782471,0.0922406539320946,-0.0448985956609249
0,1.00972225967599,-0.156944454596674,0.16527778158427,-0.0351247526705265,0.0458148941397667,-0.00671951752156019
0,1.01944450285877,-0.144444451959316,0.202777789496344,0.0186313893646002,-0.00244346098043024,0.00794124789535999
0,1.02500007039179,-0.17361112072783,0.190277786858986,0.0455094613134861,-0.0345138870179653,-0.0415388382971287
0,1.0125000434425,-0.134722233088466,0.156944454596674,0.00977384392172098,0.0268780700862408,0.00794124789535999
0,0.991666665193688,-0.136111112815755,0.163888889701015,-0.0268780700862408,0.00794124789535999,0.0320704244077206
0,1.00277780025972,-0.148611115453114,0.176388892338373,-0.0290160998702049,-0.00519235478714108,0.02382374368608
0,1.00972225967599,-0.161111118090472,0.172222228844576,0.00183259579353034,-0.00183259579353034,-0.0143553335219622
0,1.00138890837647,-0.162500009973726,0.187500003092477,0.0125227374956012,-0.0146607663482428,-0.011606439948082
0,0.99583334084345,-0.13750000469901,0.172222228844576,-0.0140499006956816,-0.027488935738802,0.0198531206697226
0,1.00138890837647,-0.13750000469901,0.179166676104882,-0.0345138870179653,-0.0314595587551594,0.00549778714776039
0,1.00277780025972,-0.14722222356986,0.175000000455119,-0.0192422550171614,-0.08460483700037,0.01191187184304
0,1.00694447590948,-0.14583334384257,0.163888889701015,0.0372627787292004,-0.0766635909676552,0.0213802829384804
0,1.00277780025972,-0.156944454596674,0.176388892338373,0.0189368221908808,-0.0433714315295219,0.00977384392172098
0,0.981944519258625,-0.150000007336368,0.186111123365188,0.0513126812875271,-0.263588339090347,0.021685715764761
0,1.00416669214298,-0.150000007336368,0.154166670830166,0.0262672062963247,-0.146913096308708,0.0198531206697226
0,1.00972225967599,-0.156944454596674,0.166666673467524,0.0378736443817616,-0.0870482996106148,0.0268780700862408
0,1.00277780025972,-0.154166670830166,0.14722222356986,0.0507018156349659,-0.152716308832169,0.0366519130766392
0,1.01388893532575,-0.148611115453114,0.1194444466846,-0.0635299831628799,-0.0033597587607801,0.0311541277915239
0,0.962500032893068,-0.161111118090472,0.236111109602691,-0.163406446576118,0.0418442711234093,0.0265726372599602
0,0.973611167959101,-0.161111118090472,0.20972223675665,-0.0671951770782471,-0.383928805589676,0.029626963660121
0,0.954166681593543,-0.163888889701015,0.213888888094483,0.130419731140137,-0.611170649528503,0.0448985956609249
0,1.00555558402623,-0.14583334384257,0.0986111170596459,0.118813291192055,-0.339641064405441,0.0806342139840126
0,1.02777785415829,-0.14722222356986,0.0986111170596459,0.00855211354792118,-0.201280102133751,0.11087204515934
0,1.03194452980806,-0.140277788465518,0.0916666697993398,-0.0687223374843597,-0.04764748737216,0.0464257597923279
0,1.08750001064279,-0.150000007336368,0.118055554801345,-0.103236228227615,0.327729195356369,0.000916297896765172
0,1.0513889189259,-0.180555567988136,0.140277788465518,0.000916297896765172,0.483805269002914,0.00763581553474069
0,0.998611124609959,-0.179166676104882,0.156944454596674,-0.0378736443817616,0.177150920033455,-0.00671951752156019
0,0.975000059842355,-0.158333334323963,0.12777778582816,-0.00916297826915979,0.144164204597473,0.027488935738802
0,0.991666665193688,-0.150000007336368,0.140277788465518,-0.098960168659687,0.0629191175103188,0.0293215326964855
0,0.990277773310434,-0.154166670830166,0.14722222356986,-0.0861319974064827,-0.021685715764761,0.0510072484612465
0,0.994444448960196,-0.188888894975731,0.151388899219622,-0.0830776765942574,-0.0125227374956012,0.0409279726445675
0,1.03194452980806,-0.194444450352783,0.141666668192807,-0.0412334054708481,0.0632245540618896,0.00855211354792118
0,0.98888888142718,-0.163888889701015,0.168055565350778,-0.0455094613134861,-0.127670839428902,0.00794124789535999
0,0.98888888142718,-0.163888889701015,0.168055565350778,-0.0143553335219622,-0.117896988987923,-0.0219911485910416
0,1.00138890837647,-0.181944447715425,0.130555557438704,-0.0253509078174829,-0.124311074614525,-0.0500909499824047
0,1.04305556762637,-0.179166676104882,0.122222230451108,-0.0366519130766392,-0.0235183127224445,-0.0177150927484035
0,1.04305556762637,-0.179166676104882,0.122222230451108,-0.111788339912891,0.0555887371301651,-0.00122173049021512
0,1.02361117850853,-0.158333334323963,0.14722222356986,-0.0415388382971287,-0.05283984541893,-0.0161879286170006
0,0.962500032893068,-0.193055558469529,0.176388892338373,0.141415297985077,-0.0983493030071259,0.00305432616733015
0,0.962500032893068,-0.193055558469529,0.176388892338373,0.189368233084679,-0.21685716509819,-0.0213802829384804
0,0.965277816659576,-0.188888894975731,0.144444451959316,0.108428582549095,-0.215330004692078,0.000916297896765172
0,1.05277781080915,-0.134722233088466,0.0986111170596459,-0.0965167060494423,-0.0757472887635231,0.0106901414692402
0,1.05277781080915,-0.134722233088466,0.0986111170596459,-0.107206851243973,0.0045814891345799,-0.0152716310694814
0,1.02916674604155,-0.154166670830166,0.14583334384257,-0.102014496922493,-0.0998764708638191,-0.0143553335219622
0,0.959722249126559,-0.158333334323963,0.113888891307548,-0.0778853222727776,-0.251065611839294,0.0400116741657257
0,0.98888888142718,-0.168055565350778,0.0972222251763917,-0.0613919571042061,-0.239153742790222,0.0378736443817616
0,0.98888888142718,-0.168055565350778,0.0972222251763917,-0.0507018156349659,-0.173180297017098,0.0543670058250427
0,1.07777786470773,-0.17361112072783,0.0680555564078778,-0.0470366254448891,0.0995710343122482,-0.0681114718317986
0,1.07500008094122,-0.190277786858986,0.0833333367337618,-0.0100792767480016,0.154548913240433,-0.0879645943641663
0,1.02222228662528,-0.211111128639904,0.118055554801345,-0.0045814891345799,0.0494800843298435,-0.0406225398182869
0,1.02638896227504,-0.17361112072783,0.120833338567854,0.0351247526705265,-0.0271835029125214,-0.000610865245107561
0,1.02638896227504,-0.168055565350778,0.134722233088466,0.16890424489975,-0.0815505087375641,-0.00610865233466029
0,1.00138890837647,-0.186111123365188,0.158333334323963,0.155159771442413,-0.207388743758202,-0.0418442711234093
0,1.00277780025972,-0.200000005729836,0.140277788465518,-0.0409279726445675,-0.393702656030655,-0.176845490932465
0,0.94305554652751,-0.166666673467524,0.0916666697993398,-0.122783914208412,0.019547687843442,-0.202807262539864
0,1.03194452980806,-0.169444445078067,0.0847222225390337,-0.126449108123779,0.177150920033455,-0.11606439948082
0,1.02916674604155,-0.131944449321958,0.12777778582816,-0.0222965814173222,0.189368233084679,-0.0201585534960032
0,1.07638897282447,-0.116666675074056,0.134722233088466,-0.0131336031481624,0.199142068624496,0.0192422550171614
0,1.03888889197661,-0.111111119697004,0.125000002061652,-0.00244346098043024,0.189368233084679,-0.0494800843298435
0,1.02500007039179,-0.130555557438704,0.102777780553444,0.0387899428606033,0.226325571537018,-0.0742201283574104
0,1.01805561097552,-0.125000002061652,0.102777780553444,-0.0595593601465225,0.151494577527046,-0.0885754600167274
0,0.986111194908388,-0.131944449321958,0.113888891307548,-0.129197999835014,0.183565005660057,-0.0830776765942574
0,0.962500032893068,-0.200000005729836,0.134722233088466,-0.134084925055504,0.283746898174286,-0.0781907513737679
0,0.956944465360051,-0.200000005729836,0.161111118090472,0.0394008085131645,0.231823354959488,0.011606439948082
0,1.02500007039179,-0.13750000469901,0.116666675074056,-0.0180205255746841,0.154854342341423,0.0406225398182869
0,1.01527782720901,-0.144444451959316,0.130555557438704,-0.0842994004487991,0.150272846221924,0.0632245540618896
0,0.98888888142718,-0.138888896582264,0.134722233088466,-0.0806342139840126,0.141720741987228,0.0470366254448891
0,1.00972225967599,-0.151388899219622,0.161111118090472,-0.0125227374956012,0.0571159012615681,0.000305432622553781
0,1.00000001649321,-0.134722233088466,0.150000007336368,0.0339030213654041,-0.0152716310694814,-0.00610865233466029
0,0.979166735492117,-0.140277788465518,0.163888889701015,0.0363464802503586,-0.138055548071861,0.0213802829384804
0,1.00694447590948,-0.150000007336368,0.16527778158427,0.0675006061792374,-0.129808858036995,0.0424551330506802
0,1.02361117850853,-0.148611115453114,0.134722233088466,-0.0320704244077206,-0.0687223374843597,-0.0192422550171614
0,0.973611167959101,-0.13750000469901,0.13750000469901,0.0183259565383196,-0.0888808965682983,-0.01191187184304
0,1.00416669214298,-0.14583334384257,0.13750000469901,0.0247400421649218,-0.087659165263176,-0.037568211555481
0,1.0513889189259,-0.166666673467524,0.166666673467524,-0.0574213340878487,-0.0937678143382072,-0.0345138870179653
0,1.0305556379248,-0.150000007336368,0.130555557438704,-0.076052725315094,-0.0491746515035629,-0.0235183127224445
0,1.01527782720901,-0.140277788465518,0.140277788465518,-0.0717766657471657,-0.0308486949652433,-0.0531452745199203
0,0.986111194908388,-0.17361112072783,0.180555567988136,0.02382374368608,-0.122478485107422,-0.0314595587551594
0,0.99583334084345,-0.169444445078067,0.14722222356986,0.0510072484612465,-0.194560587406159,0.0442877300083637
0,1.01527782720901,-0.172222228844576,0.13750000469901,0.0479529201984406,-0.165239050984383,0.0152716310694814
0,1.04027778385987,-0.172222228844576,0.1194444466846,0.0534507073462009,-0.0247400421649218,-0.0436768643558025
0,1.02916674604155,-0.168055565350778,0.112499999424294,-0.0140499006956816,0.0894917547702789,-0.0351247526705265
0,1.02916674604155,-0.152777778946911,0.123611110178398,-0.00397062394768,-0.0100792767480016,-0.000610865245107561
0,1.00555558402623,-0.150000007336368,0.15555556271342,0.125838235020638,-0.124921940267086,0.0308486949652433
0,1.00416669214298,-0.150000007336368,0.156944454596674,0.247094988822937,-0.184786736965179,0.0125227374956012
0,1.00277780025972,-0.159722226207217,0.140277788465518,0.208915919065475,-0.204334422945976,-0.0265726372599602
0,1.00555558402623,-0.148611115453114,0.116666675074056,0.0690277740359306,-0.155770644545555,-0.0152716310694814
0,1.00138890837647,-0.14722222356986,0.12916666555545,0.0167987942695618,-0.124005645513535,0.0345138870179653
0,1.00972225967599,-0.140277788465518,0.104166672436698,-0.0568104684352875,-0.0372627787292004,0.0403171069920063
0,1.00555558402623,-0.14722222356986,0.111111119697004,-0.070249505341053,-0.0384845100343227,0.0100792767480016
0,1.00972225967599,-0.151388899219622,0.1194444466846,-0.0394008085131645,-0.0439822971820831,-0.0149661982432008
0,1.02500007039179,-0.154166670830166,0.113888891307548,-0.0146607663482428,0.0287106670439243,-0.0259617734700441
0,1.02638896227504,-0.150000007336368,0.112499999424294,-0.0219911485910416,0.0897971913218498,0.00794124789535999
0,1.01527782720901,-0.150000007336368,0.118055554801345,-0.00152716308366507,0.137750118970871,-0.00152716308366507
0,0.994444448960196,-0.156944454596674,0.111111119697004,0.0497855171561241,0.223271250724793,-0.0256563406437635
0,1.02222228662528,-0.156944454596674,0.0902777839940679,0.0751364231109619,0.530536472797394,-0.0180205255746841
0,1.05833337834217,-0.158333334323963,0.118055554801345,-0.00641408516094089,0.566882967948914,0.0339030213654041
0,1.01666671909226,-0.150000007336368,0.175000000455119,0.0186313893646002,0.37568211555481,0.0268780700862408
0,0.991666665193688,-0.140277788465518,0.158333334323963,0.0412334054708481,0.195171445608139,0.013744467869401
0,0.990277773310434,-0.134722233088466,0.141666668192807,-0.0180205255746841,0.115758962929249,0.00152716308366507
0,0.99583334084345,-0.148611115453114,0.162500009973726,-0.00122173049021512,0.0910189226269722,-0.0180205255746841
5,1.05694448645892,-0.12916666555545,0.222222239394008,-0.0134390350431204,0.0803287774324417,-0.0467311926186085
5,1.02916674604155,-0.122222230451108,0.188888894975731,0.120340451598167,0.0827722400426865,-0.01588249579072
5,1.0125000434425,-0.130555557438704,0.158333334323963,0.0891863256692886,0.0308486949652433,-0.011606439948082
5,1.00694447590948,-0.140277788465518,0.140277788465518,0.0497855171561241,0.0320704244077206,-0.00244346098043024
5,0.997222232726705,-0.148611115453114,0.180555567988136,0.00763581553474069,-0.0305432621389627,0.0122173046693206
5,1.00694447590948,-0.144444451959316,0.17361112072783,0.021685715764761,-0.0259617734700441,0.0219911485910416
5,1.01388893532575,-0.131944449321958,0.150000007336368,0.0222965814173222,-0.08460483700037,0.0277943685650826
5,1.01527782720901,-0.12916666555545,0.150000007336368,0.029626963660121,-0.0412334054708481,0.00488692196086049
5,1.00694447590948,-0.12916666555545,0.143055560076062,-0.0943786799907684,-0.100181899964809,-0.0033597587607801
5,1.04166667574312,-0.156944454596674,0.15555556271342,-0.0952949747443199,0.0152716310694814,-0.00916297826915979
5,1.03194452980806,-0.156944454596674,0.16527778158427,-0.000610865245107561,0.0378736443817616,-0.0192422550171614
5,1.00833336779274,-0.134722233088466,0.172222228844576,0.0265726372599602,-0.0109955742955208,-0.015577063895762
5,1.00694447590948,-0.141666668192807,0.141666668192807,0.013744467869401,0.00794124789535999,0.0198531206697226
5,1.01666671909226,-0.140277788465518,0.143055560076062,-0.0717766657471657,0.0491746515035629,-0.000305432622553781
5,1.00972225967599,-0.150000007336368,0.170833336961321,0.0439822971820831,0.0284052342176437,0.0131336031481624
5,1.02361117850853,-0.166666673467524,0.170833336961321,0.155159771442413,0.0592539273202419,-0.01191187184304
5,1.00694447590948,-0.166666673467524,0.14722222356986,0.0897971913218498,0.00641408516094089,-0.00183259579353034
5,0.994444448960196,-0.14722222356986,0.130555557438704,-0.0366519130766392,-0.00733038317412138,-0.00610865233466029
5,0.994444448960196,-0.140277788465518,0.12777778582816,-0.0164933614432812,0.0632245540618896,0.015577063895762
5,1.00000001649321,-0.14722222356986,0.150000007336368,0.00244346098043024,-0.0302378293126821,-0.0106901414692402
5,1.00833336779274,-0.154166670830166,0.159722226207217,0.011606439948082,-0.02382374368608,-0.00152716308366507
5,1.0125000434425,-0.150000007336368,0.156944454596674,0.00733038317412138,-0.0180205255746841,0.0027488935738802
5,1.00833336779274,-0.144444451959316,0.163888889701015,0.00488692196086049,-0.0232128798961639,0.00549778714776039
5,1.00277780025972,-0.150000007336368,0.161111118090472,-0.00152716308366507,-0.0253509078174829,0.00366519158706069
5,1.00277780025972,-0.151388899219622,0.158333334323963,0.00244346098043024,-0.01588249579072,0.00366519158706069
5,1.00555558402623,-0.152777778946911,0.16527778158427,0.00305432616733015,-0.0152716310694814,0.00305432616733015
5,1.00000001649321,-0.150000007336368,0.154166670830166,-0.00427605677396059,-0.0183259565383196,0.000305432622553781
5,0.998611124609959,-0.150000007336368,0.158333334323963,-0.01588249579072,-0.0229074470698834,-0.00122173049021512
5,1.00694447590948,-0.144444451959316,0.154166670830166,-0.0198531206697226,-0.04764748737216,0.000916297896765172
5,1.0125000434425,-0.143055560076062,0.159722226207217,-0.0271835029125214,-0.0610865242779255,0.00488692196086049
5,1.0125000434425,-0.154166670830166,0.150000007336368,-0.0277943685650826,-0.0452040284872055,0.0125227374956012
5,1.00555558402623,-0.156944454596674,0.150000007336368,-0.01588249579072,-0.0433714315295219,0.00366519158706069
5,1.00833336779274,-0.150000007336368,0.156944454596674,-0.02382374368608,-0.0412334054708481,-0.00488692196086049
5,1.00972225967599,-0.14722222356986,0.172222228844576,-0.0271835029125214,-0.0372627787292004,0.011606439948082
5,1.00972225967599,-0.14722222356986,0.172222228844576,-0.021685715764761,-0.0348193198442459,0.00733038317412138
5,1.00833336779274,-0.14722222356986,0.154166670830166,-0.0186313893646002,-0.0497855171561241,0.0192422550171614
5,1.01666671909226,-0.166666673467524,0.14583334384257,0.00305432616733015,0.00733038317412138,0.00885754637420177
5,1.01666671909226,-0.166666673467524,0.14583334384257,0.0021380283869803,-0.0546724386513233,0.0293215326964855
5,1.00972225967599,-0.138888896582264,0.156944454596674,-0.0207694191485643,-0.0549778714776039,0.02382374368608
5,1.00694447590948,-0.13750000469901,0.151388899219622,-0.0290160998702049,-0.0589484944939613,0.0360410511493683
5,1.00694447590948,-0.13750000469901,0.151388899219622,-0.0250454749912024,-0.0540615729987621,0.0302378293126821
5,1.00555558402623,-0.141666668192807,0.14722222356986,-0.0229074470698834,-0.0616973899304867,0.0164933614432812
5,1.00277780025972,-0.150000007336368,0.162500009973726,-0.0342084541916847,-0.0632245540618896,0.0103847095742822
5,1.00277780025972,-0.150000007336368,0.162500009973726,0.0033597587607801,-0.0339030213654041,0.0403171069920063
5,1.02361117850853,-0.166666673467524,0.14722222356986,0.000916297896765172,-0.0244346093386412,0.02382374368608
5,1.02222228662528,-0.15555556271342,0.156944454596674,-0.00366519158706069,-0.0167987942695618,0.017409659922123
5,1.00833336779274,-0.150000007336368,0.150000007336368,-0.0253509078174829,-0.0232128798961639,-0.00885754637420177
5,0.993055557076942,-0.13750000469901,0.154166670830166,-0.0045814891345799,-0.0571159012615681,-0.00152716308366507
5,1.0125000434425,-0.161111118090472,0.134722233088466,0.00763581553474069,0.00122173049021512,-0.0299323964864016
5,1.0125000434425,-0.16527778158427,0.130555557438704,0.00305432616733015,0.029626963660121,-0.0445931628346443
5,0.998611124609959,-0.170833336961321,0.130555557438704,-0.0033597587607801,0.01588249579072,-0.0623082555830479
5,0.99583334084345,-0.14722222356986,0.148611115453114,-0.0290160998702049,-0.0833831056952477,-0.0287106670439243
5,1.01527782720901,-0.120833338567854,0.161111118090472,-0.0265726372599602,-0.112399205565453,0.0222965814173222
5,1.04166667574312,-0.123611110178398,0.150000007336368,-0.0507018156349659,-0.0809396430850029,0.0106901414692402
5,1.03194452980806,-0.133333341205212,0.140277788465518,-0.0726929605007172,-0.00702495034784079,-0.0198531206697226
5,1.02500007039179,-0.163888889701015,0.115277783190802,-0.0629191175103188,0.0571159012615681,-0.0479529201984406
5,1.01388893532575,-0.176388892338373,0.13750000469901,-0.0583376325666905,0.0888808965682983,-0.0516181141138077
5,1.00972225967599,-0.163888889701015,0.133333341205212,-0.0555887371301651,0.0510072484612465,-0.0360410511493683
5,1.00555558402623,-0.151388899219622,0.133333341205212,-0.0360410511493683,0.0415388382971287,-0.0381790772080422
5,0.993055557076942,-0.156944454596674,0.133333341205212,-0.0320704244077206,0.00885754637420177,-0.0458148941397667
5,0.986111194908388,-0.152777778946911,0.131944449321958,-0.0293215326964855,-0.0232128798961639,-0.0369573459029198
5,0.99583334084345,-0.162500009973726,0.134722233088466,-0.0241291765123606,-0.0479529201984406,-0.0345138870179653
5,1.00555558402623,-0.161111118090472,0.12916666555545,-0.0287106670439243,-0.0491746515035629,-0.0485637858510017
5,1.00277780025972,-0.15555556271342,0.123611110178398,-0.0271835029125214,-0.0519235469400883,-0.0491746515035629
5,1.00416669214298,-0.156944454596674,0.12777778582816,-0.00824668072164059,-0.0775798857212067,-0.0320704244077206
5,1.01805561097552,-0.144444451959316,0.138888896582264,-0.00427605677396059,-0.0824668109416962,-0.0152716310694814
5,1.02222228662528,-0.148611115453114,0.120833338567854,-0.0103847095742822,-0.0708603709936142,-0.00366519158706069
5,1.02083339474202,-0.14583334384257,0.118055554801345,-0.0204639863222837,-0.0491746515035629,-0.00610865233466029
5,1.0125000434425,-0.15555556271342,0.123611110178398,-0.0284052342176437,-0.0339030213654041,0.00122173049021512
5,1.01527782720901,-0.156944454596674,0.125000002061652,-0.0128281703218818,-0.0320704244077206,-0.00244346098043024
5,1.00972225967599,-0.158333334323963,0.12777778582816,0.00519235478714108,-0.0180205255746841,-0.00397062394768
5,0.99583334084345,-0.1194444466846,0.140277788465518,-0.0415388382971287,-0.104152522981167,-0.00122173049021512
5,1.00277780025972,-0.113888891307548,0.140277788465518,-0.0577267669141293,-0.124616511166096,0.0177150927484035
5,1.02638896227504,-0.122222230451108,0.113888891307548,-0.0589484944939613,-0.0952949747443199,0.01588249579072
5,1.03194452980806,-0.134722233088466,0.112499999424294,-0.0769690200686455,-0.0390953756868839,-0.0299323964864016
5,1.02222228662528,-0.14722222356986,0.111111119697004,-0.0934623852372169,-0.0113010071218014,-0.0430659987032413
5,1.02916674604155,-0.148611115453114,0.113888891307548,-0.0842994004487991,0.0149661982432008,-0.0436768643558025
5,1.03888889197661,-0.140277788465518,0.108333335930496,-0.0867428630590439,0.0699440687894821,-0.0592539273202419
5,1.03194452980806,-0.14722222356986,0.118055554801345,-0.0665843114256859,0.0803287774324417,-0.0671951770782471
5,1.00972225967599,-0.14722222356986,0.118055554801345,-0.0717766657471657,0.0650571510195732,-0.0711658000946045
5,0.99583334084345,-0.12916666555545,0.115277783190802,-0.0717766657471657,-0.00427605677396059,-0.0592539273202419
5,1.00277780025972,-0.130555557438704,0.12777778582816,-0.0888808965682983,-0.0406225398182869,-0.0400116741657257
5,1.00555558402623,-0.123611110178398,0.12777778582816,-0.103236228227615,-0.0448985956609249,-0.0424551330506802
5,1.00277780025972,-0.125000002061652,0.125000002061652,-0.129503428936005,-0.0858265683054924,-0.0424551330506802
5,1.02222228662528,-0.148611115453114,0.120833338567854,-0.109650313854218,-0.00702495034784079,-0.0733038261532784
5,1.01388893532575,-0.152777778946911,0.118055554801345,-0.125227376818657,-0.0271835029125214,-0.0687223374843597
5,1.0125000434425,-0.148611115453114,0.116666675074056,-0.130114302039146,0.00183259579353034,-0.0662788823246956
5,1.02916674604155,-0.156944454596674,0.113888891307548,-0.100792765617371,0.0183259565383196,-0.0482583530247212
5,1.02500007039179,-0.16527778158427,0.104166672436698,-0.0803287774324417,0.0653625801205635,-0.0601702257990837
5,1.0125000434425,-0.16527778158427,0.123611110178398,-0.0452040284872055,0.0510072484612465,-0.0571159012615681
5,0.986111194908388,-0.161111118090472,0.102777780553444,-0.0378736443817616,0.0436768643558025,-0.101403631269932
5,0.981944519258625,-0.141666668192807,0.126388893944906,-0.0455094613134861,-0.0922406539320946,-0.0620028227567673
5,1.02500007039179,-0.13750000469901,0.104166672436698,-0.0262672062963247,-0.0842994004487991,-0.0394008085131645
5,1.0513889189259,-0.140277788465518,0.101388894748172,-0.0109955742955208,-0.0357356183230877,-0.0131336031481624
5,1.03472221632685,-0.15555556271342,0.0944444474878658,0.00427605677396059,0.0421497002243996,-0.0198531206697226
5,1.01527782720901,-0.172222228844576,0.101388894748172,0.0372627787292004,0.05283984541893,-0.011606439948082
5,1.01527782720901,-0.158333334323963,0.0875000002275597,0.0833831056952477,0.0726929605007172,0.0403171069920063
5,1.0125000434425,-0.14583334384257,0.0930555616825939,0.0833831056952477,0.08460483700037,0.0629191175103188
5,0.99583334084345,-0.12777778582816,0.120833338567854,0.0821613743901253,0.0864374339580536,0.0610865242779255
5,0.987499989543926,-0.130555557438704,0.122222230451108,0.0821613743901253,0.0500909499824047,0.0485637858510017
5,0.98888888142718,-0.123611110178398,0.118055554801345,0.0552833043038845,0.00366519158706069,0.0543670058250427
5,1.02500007039179,-0.118055554801345,0.106944444047242,0.0204639863222837,-0.00885754637420177,0.0659734457731247
5,1.03194452980806,-0.113888891307548,0.10972222781375,-0.00519235478714108,-0.00183259579353034,0.0500909499824047
5,1.04027778385987,-0.133333341205212,0.118055554801345,-0.0171042270958424,0.0665843114256859,0.0369573459029198
5,1.0361111082101,-0.138888896582264,0.104166672436698,-0.0299323964864016,0.0974330082535744,0.02382374368608
5,1.02222228662528,-0.134722233088466,0.111111119697004,-0.0500909499824047,0.127976268529892,0.000916297896765172
5,1.02222228662528,-0.125000002061652,0.125000002061652,-0.0580321997404099,0.108734011650086,0.0134390350431204
5,1.01944450285877,-0.12777778582816,0.120833338567854,-0.0537561401724815,0.0632245540618896,0.0204639863222837
5,1.00555558402623,-0.136111112815755,0.118055554801345,-0.0470366254448891,0.0635299831628799,0.0189368221908808
5,1.00416669214298,-0.140277788465518,0.113888891307548,-0.037568211555481,0.0293215326964855,0.0186313893646002
5,0.994444448960196,-0.144444451959316,0.12916666555545,-0.0552833043038845,0.0106901414692402,0.017409659922123
5,0.997222232726705,-0.162500009973726,0.134722233088466,-0.0271835029125214,0.00427605677396059,0.01191187184304
5,1.00277780025972,-0.159722226207217,0.1194444466846,-0.0232128798961639,0.0143553335219622,0.0149661982432008
5,1.00972225967599,-0.152777778946911,0.126388893944906,-0.00610865233466029,0.00610865233466029,-0.00366519158706069
5,1.00972225967599,-0.158333334323963,0.138888896582264,0.0122173046693206,0.0164933614432812,-0.0134390350431204
5,1.00972225967599,-0.141666668192807,0.13750000469901,0.013744467869401,-0.0140499006956816,-0.0149661982432008
5,1.02222228662528,-0.136111112815755,0.140277788465518,0.0171042270958424,-0.0314595587551594,-0.0027488935738802
5,1.03194452980806,-0.134722233088466,0.136111112815755,0.0164933614432812,-0.0045814891345799,-0.00244346098043024
5,1.02638896227504,-0.133333341205212,0.116666675074056,0.0192422550171614,-0.011606439948082,0.00671951752156019
5,1.01805561097552,-0.138888896582264,0.120833338567854,0.0204639863222837,0.0140499006956816,-0.00824668072164059
5,1.01388893532575,-0.141666668192807,0.12777778582816,0.0186313893646002,0.0265726372599602,-0.0128281703218818
5,1.01111115155925,-0.14583334384257,0.125000002061652,0.0183259565383196,0.0164933614432812,-0.0201585534960032
5,1.00833336779274,-0.141666668192807,0.134722233088466,0.0152716310694814,0.0021380283869803,-0.0256563406437635
5,1.01666671909226,-0.143055560076062,0.125000002061652,0.0113010071218014,0.0146607663482428,-0.0311541277915239
5,1.01527782720901,-0.14583334384257,0.12777778582816,-0.00366519158706069,0.0378736443817616,-0.0204639863222837
5,1.01944450285877,-0.14722222356986,0.12777778582816,-0.0140499006956816,0.0320704244077206,-0.019547687843442
5,1.01527782720901,-0.140277788465518,0.12777778582816,-0.0131336031481624,0.0427605658769607,-0.0360410511493683
5,1.01527782720901,-0.143055560076062,0.126388893944906,-0.00733038317412138,0.0302378293126821,-0.0424551330506802
5,1.01944450285877,-0.151388899219622,0.12777778582816,-0.00610865233466029,0.0714712366461754,-0.0326812900602817
5,1.01944450285877,-0.151388899219622,0.12777778582816,-0.00397062394768,0.0952949747443199,-0.0568104684352875
5,1.01805561097552,-0.140277788465518,0.1194444466846,-0.0109955742955208,0.0901026204228401,-0.0360410511493683
5,1.01388893532575,-0.148611115453114,0.134722233088466,-0.0143553335219622,0.0937678143382072,-0.0332921557128429
5,1.01388893532575,-0.148611115453114,0.134722233088466,-0.00183259579353034,0.0736092627048492,-0.0271835029125214
5,1.00555558402623,-0.150000007336368,0.12777778582816,0.0247400421649218,0.0659734457731247,-0.0253509078174829
5,1.01111115155925,-0.143055560076062,0.113888891307548,0.0366519130766392,0.0561996027827263,-0.011606439948082
5,1.01111115155925,-0.143055560076062,0.113888891307548,0.0403171069920063,0.0485637858510017,0.00671951752156019
5,1.01527782720901,-0.140277788465518,0.126388893944906,0.0482583530247212,0.0534507073462009,0.00122173049021512
5,1.01944450285877,-0.141666668192807,0.134722233088466,0.0589484944939613,0.0497855171561241,0.00244346098043024
5,1.01944450285877,-0.141666668192807,0.134722233088466,0.0806342139840126,0.0277943685650826,0.00763581553474069
5,1.01527782720901,-0.141666668192807,0.131944449321958,0.0571159012615681,0.0497855171561241,-0.00671951752156019
5,1.02083339474202,-0.140277788465518,0.125000002061652,0.027488935738802,0.070249505341053,-0.0207694191485643
5,1.02083339474202,-0.140277788465518,0.125000002061652,0.0171042270958424,0.116675265133381,-0.0189368221908808
5,1.02083339474202,-0.134722233088466,0.134722233088466,0.019547687843442,0.118202425539494,-0.0268780700862408
5,1.0125000434425,-0.126388893944906,0.150000007336368,0.0167987942695618,0.102014496922493,-0.0219911485910416
5,1.00000001649321,-0.120833338567854,0.152777778946911,0.0152716310694814,0.0497855171561241,-0.0146607663482428
5,1.00000001649321,-0.12916666555545,0.159722226207217,0.0210748501121998,0.00305432616733015,-0.00763581553474069
5,1.00972225967599,-0.12916666555545,0.143055560076062,0.01191187184304,-0.00855211354792118,-0.0128281703218818
5,1.0125000434425,-0.126388893944906,0.140277788465518,0.0021380283869803,-0.0128281703218818,-0.0143553335219622
5,1.00972225967599,-0.123611110178398,0.133333341205212,-0.0149661982432008,-0.00885754637420177,-0.0210748501121998
5,1.00555558402623,-0.122222230451108,0.140277788465518,-0.0326812900602817,-0.0287106670439243,-0.00244346098043024
5,1.00972225967599,-0.12916666555545,0.152777778946911,-0.0339030213654041,-0.0394008085131645,0.00641408516094089
5,1.00833336779274,-0.133333341205212,0.154166670830166,-0.0384845100343227,-0.0513126812875271,0.0280998013913631
5,1.00277780025972,-0.13750000469901,0.158333334323963,-0.0299323964864016,-0.0733038261532784,0.0280998013913631
5,1.00416669214298,-0.141666668192807,0.156944454596674,-0.01588249579072,-0.0824668109416962,0.0329867228865623
5,1.00972225967599,-0.14583334384257,0.144444451959316,-0.0149661982432008,-0.0568104684352875,0.0342084541916847
5,1.01388893532575,-0.14722222356986,0.151388899219622,-0.0143553335219622,-0.0647517144680023,0.0311541277915239
5,1.01527782720901,-0.14722222356986,0.14722222356986,-0.0113010071218014,-0.0662788823246956,0.0284052342176437
5,1.01527782720901,-0.14722222356986,0.14722222356986,-0.00580321997404099,-0.0461203269660473,0.0308486949652433
5,1.02083339474202,-0.152777778946911,0.158333334323963,0.00397062394768,-0.0277943685650826,0.0400116741657257
5,1.02222228662528,-0.152777778946911,0.154166670830166,0.0256563406437635,0.0021380283869803,0.0397062413394451
5,1.02361117850853,-0.151388899219622,0.154166670830166,0.0467311926186085,0.00610865233466029,0.0360410511493683
5,1.01805561097552,-0.14583334384257,0.156944454596674,0.0598647929728031,-0.00122173049021512,0.0357356183230877
5,1.01388893532575,-0.143055560076062,0.150000007336368,0.0565050356090069,-0.0109955742955208,0.0339030213654041
5,1.00277780025972,-0.130555557438704,0.150000007336368,0.0552833043038845,-0.01191187184304,0.0293215326964855
5,1.00555558402623,-0.131944449321958,0.148611115453114,0.0409279726445675,-0.00824668072164059,0.0171042270958424
5,1.00833336779274,-0.138888896582264,0.150000007336368,0.0418442711234093,-0.011606439948082,0.00580321997404099
5,1.00972225967599,-0.130555557438704,0.150000007336368,0.0369573459029198,0.000305432622553781,0.0192422550171614
5,1.00972225967599,-0.133333341205212,0.136111112815755,0.0397062413394451,-0.00183259579353034,0.00824668072164059
5,1.00694447590948,-0.140277788465518,0.151388899219622,0.0323758572340012,-0.00610865233466029,0.000610865245107561
5,1.01111115155925,-0.140277788465518,0.14722222356986,0.0400116741657257,-0.00244346098043024,0.00977384392172098
5,1.01805561097552,-0.14722222356986,0.15555556271342,0.0519235469400883,0.0021380283869803,0.019547687843442
5,1.01805561097552,-0.14583334384257,0.144444451959316,0.0565050356090069,0.00763581553474069,0.0143553335219622
5,1.01111115155925,-0.143055560076062,0.140277788465518,0.0687223374843597,0.00855211354792118,0.00702495034784079
5,1.00972225967599,-0.141666668192807,0.14583334384257,0.0665843114256859,0.0027488935738802,0.0109955742955208
5,1.00555558402623,-0.130555557438704,0.150000007336368,0.0668897479772568,-0.00397062394768,0.013744467869401
5,1.01111115155925,-0.12916666555545,0.140277788465518,0.0589484944939613,0.00397062394768,0.0149661982432008
5,1.01527782720901,-0.130555557438704,0.14722222356986,0.0543670058250427,-0.00427605677396059,0.00885754637420177
5,1.0125000434425,-0.126388893944906,0.14583334384257,0.0406225398182869,-0.0122173046693206,-0.000916297896765172
5,1.00555558402623,-0.131944449321958,0.161111118090472,0.0305432621389627,-0.0262672062963247,-0.00488692196086049
5,1.00972225967599,-0.134722233088466,0.151388899219622,0.0308486949652433,-0.0271835029125214,-0.0125227374956012
5,1.00972225967599,-0.136111112815755,0.14722222356986,0.0186313893646002,-0.0241291765123606,-0.0140499006956816
5,1.01527782720901,-0.133333341205212,0.14583334384257,0.000610865245107561,-0.0284052342176437,-0.00671951752156019
5,1.0125000434425,-0.12916666555545,0.148611115453114,-0.000305432622553781,-0.0171042270958424,-0.0287106670439243
5,1.00833336779274,-0.136111112815755,0.144444451959316,-0.00794124789535999,-0.0219911485910416,-0.0311541277915239
5,1.00972225967599,-0.140277788465518,0.14722222356986,-0.0167987942695618,-0.0348193198442459,-0.0299323964864016
5,1.01666671909226,-0.144444451959316,0.140277788465518,-0.01588249579072,-0.0268780700862408,-0.0131336031481624
5,1.00000001649321,-0.143055560076062,0.134722233088466,-0.00885754637420177,0.00488692196086049,-0.01588249579072
5,1.01527782720901,-0.152777778946911,0.130555557438704,-0.00549778714776039,0.0021380283869803,-0.0131336031481624
5,1.0125000434425,-0.156944454596674,0.136111112815755,0.00733038317412138,0.00122173049021512,-0.00549778714776039
5,1.0125000434425,-0.154166670830166,0.131944449321958,0.0226020142436027,-0.00305432616733015,0.0021380283869803
5,1.00833336779274,-0.14583334384257,0.13750000469901,0.0305432621389627,-0.0146607663482428,0.00122173049021512
5,1.00972225967599,-0.144444451959316,0.138888896582264,0.0342084541916847,-0.0143553335219622,0.00122173049021512
5,1.01388893532575,-0.141666668192807,0.130555557438704,0.0357356183230877,0.000916297896765172,0.00488692196086049
5,1.01527782720901,-0.141666668192807,0.12777778582816,0.02382374368608,-0.00733038317412138,-0.00366519158706069
5,1.01388893532575,-0.13750000469901,0.133333341205212,0.0161879286170006,-0.000916297896765172,-0.0021380283869803
5,1.01527782720901,-0.136111112815755,0.134722233088466,0.0045814891345799,0.00824668072164059,-0.0131336031481624
5,1.01527782720901,-0.136111112815755,0.138888896582264,0.00244346098043024,0.0100792767480016,-0.000610865245107561
5,1.01527782720901,-0.140277788465518,0.134722233088466,-0.00946841109544039,0.0152716310694814,-0.0109955742955208
5,1.00833336779274,-0.134722233088466,0.12916666555545,-0.0207694191485643,0.000305432622553781,-0.00580321997404099
5,1.01527782720901,-0.140277788465518,0.134722233088466,-0.0213802829384804,0.00702495034784079,-0.00152716308366507
5,1.0125000434425,-0.138888896582264,0.13750000469901,-0.0259617734700441,0.00580321997404099,-0.00733038317412138
5,1.01111115155925,-0.143055560076062,0.130555557438704,-0.00702495034784079,-0.00855211354792118,0.000610865245107561
5,1.00972225967599,-0.140277788465518,0.13750000469901,0.000305432622553781,-0.00977384392172098,0.00305432616733015
5,1.01527782720901,-0.140277788465518,0.12777778582816,0.000610865245107561,-0.0122173046693206,0.00671951752156019
5,1.0125000434425,-0.131944449321958,0.130555557438704,0.00977384392172098,-0.0128281703218818,0.00671951752156019
5,1.01388893532575,-0.120833338567854,0.12777778582816,0.00519235478714108,-0.000916297896765172,-0.00397062394768
5,1.00694447590948,-0.123611110178398,0.126388893944906,-0.00488692196086049,-0.011606439948082,-0.0134390350431204
5,1.01527782720901,-0.134722233088466,0.130555557438704,-0.00794124789535999,-0.0143553335219622,0.00733038317412138
5,1.01527782720901,-0.140277788465518,0.134722233088466,-0.0192422550171614,-0.000305432622553781,-0.00610865233466029
5,1.00555558402623,-0.138888896582264,0.130555557438704,-0.019547687843442,-0.00366519158706069,-0.00427605677396059
5,1.00972225967599,-0.13750000469901,0.13750000469901,-0.0134390350431204,-0.000305432622553781,-0.0134390350431204
5,1.0125000434425,-0.13750000469901,0.130555557438704,-0.015577063895762,-0.01191187184304,-0.0103847095742822
5,1.0125000434425,-0.13750000469901,0.130555557438704,-0.0149661982432008,-0.00183259579353034,-0.00702495034784079
5,1.01944450285877,-0.13750000469901,0.134722233088466,-0.00885754637420177,-0.00733038317412138,-0.00397062394768
5,1.01666671909226,-0.134722233088466,0.123611110178398,-0.013744467869401,0.00916297826915979,-0.0143553335219622
5,1.00972225967599,-0.136111112815755,0.125000002061652,-0.00855211354792118,-0.0100792767480016,-0.00610865233466029
5,1.00972225967599,-0.140277788465518,0.12916666555545,-0.00702495034784079,-0.0113010071218014,-0.00977384392172098
5,1.00972225967599,-0.140277788465518,0.12916666555545,-0.00183259579353034,-0.0113010071218014,-0.00641408516094089
5,1.02222228662528,-0.14583334384257,0.126388893944906,0.00885754637420177,-0.015577063895762,0.00183259579353034
5,1.01944450285877,-0.144444451959316,0.12916666555545,0.017409659922123,-0.0027488935738802,0.000916297896765172
5,1.01944450285877,-0.144444451959316,0.12916666555545,0.00885754637420177,0.0125227374956012,-0.00427605677396059
5,1.00416669214298,-0.134722233088466,0.12777778582816,0.0103847095742822,-0.00244346098043024,-0.00641408516094089
5,1.00833336779274,-0.136111112815755,0.134722233088466,0.011606439948082,-0.00488692196086049,-0.00427605677396059
5,1.00833336779274,-0.136111112815755,0.134722233088466,0.0100792767480016,-0.0128281703218818,-0.00549778714776039
5,1.0125000434425,-0.136111112815755,0.120833338567854,0.00977384392172098,-0.000305432622553781,0.0033597587607801
5,1.01527782720901,-0.13750000469901,0.125000002061652,0.00977384392172098,-0.00305432616733015,-0.00244346098043024
5,1.00972225967599,-0.134722233088466,0.130555557438704,0.00733038317412138,-0.00427605677396059,-0.0033597587607801
5,1.00972225967599,-0.134722233088466,0.130555557438704,0.0201585534960032,-0.0106901414692402,-0.0027488935738802
5,1.01111115155925,-0.140277788465518,0.133333341205212,0.01191187184304,-0.00824668072164059,-0.00580321997404099
5,1.01111115155925,-0.138888896582264,0.130555557438704,0.01588249579072,-0.0180205255746841,-0.000305432622553781
5,1.01111115155925,-0.138888896582264,0.130555557438704,0.0109955742955208,-0.0131336031481624,0.00916297826915979
5,1.01666671909226,-0.133333341205212,0.13750000469901,0.0134390350431204,0.0027488935738802,0.01191187184304
5,1.01388893532575,-0.144444451959316,0.144444451959316,0.01588249579072,0.000916297896765172,0.0143553335219622
5,1.00694447590948,-0.140277788465518,0.13750000469901,0.017409659922123,-0.00946841109544039,0.0103847095742822
5,1.01111115155925,-0.141666668192807,0.130555557438704,0.0250454749912024,-0.0134390350431204,0.00397062394768
5,1.0125000434425,-0.134722233088466,0.134722233088466,0.0213802829384804,-0.0140499006956816,0.00977384392172098
5,1.01666671909226,-0.138888896582264,0.130555557438704,0.0198531206697226,-0.0045814891345799,0.0140499006956816
5,1.01527782720901,-0.138888896582264,0.136111112815755,0.0280998013913631,-0.0149661982432008,0.0109955742955208
5,1.01666671909226,-0.140277788465518,0.134722233088466,0.0287106670439243,0.000916297896765172,0.00855211354792118
5,1.01666671909226,-0.140277788465518,0.134722233088466,0.0287106670439243,0.00824668072164059,0.0106901414692402
5,1.01527782720901,-0.140277788465518,0.140277788465518,0.0326812900602817,0.0106901414692402,0.00397062394768
5,1.01388893532575,-0.13750000469901,0.133333341205212,0.0271835029125214,0.00610865233466029,0.000305432622553781
5,1.01388893532575,-0.138888896582264,0.12777778582816,0.0265726372599602,0.0131336031481624,0.00702495034784079
5,1.00972225967599,-0.134722233088466,0.13750000469901,0.0250454749912024,0.00397062394768,0.015577063895762
5,1.00694447590948,-0.134722233088466,0.12777778582816,0.0201585534960032,0.00397062394768,0.011606439948082
5,1.00694447590948,-0.130555557438704,0.125000002061652,0.0235183127224445,0.00183259579353034,0.0183259565383196
5,1.00972225967599,-0.140277788465518,0.126388893944906,0.0235183127224445,0.00885754637420177,0.015577063895762
5,1.00972225967599,-0.140277788465518,0.13750000469901,0.0259617734700441,-0.00885754637420177,0.0189368221908808
5,1.00972225967599,-0.140277788465518,0.130555557438704,0.0339030213654041,0.000610865245107561,0.0106901414692402
5,1.00972225967599,-0.143055560076062,0.131944449321958,0.0366519130766392,-0.00916297826915979,0.0222965814173222
5,1.0125000434425,-0.13750000469901,0.125000002061652,0.0332921557128429,0.000916297896765172,0.0177150927484035
5,1.01666671909226,-0.140277788465518,0.12777778582816,0.0390953756868839,0.00855211354792118,0.0256563406437635
5,1.01388893532575,-0.131944449321958,0.118055554801345,0.0461203269660473,0.00702495034784079,0.0204639863222837
5,1.01111115155925,-0.133333341205212,0.131944449321958,0.0360410511493683,0.00641408516094089,0.0235183127224445
5,1.0125000434425,-0.143055560076062,0.134722233088466,0.0433714315295219,-0.00305432616733015,0.0271835029125214
5,1.01388893532575,-0.14583334384257,0.13750000469901,0.0445931628346443,0.00305432616733015,0.0226020142436027
5,1.00694447590948,-0.144444451959316,0.13750000469901,0.0461203269660473,-0.0134390350431204,0.0244346093386412
5,1.0125000434425,-0.13750000469901,0.140277788465518,0.0418442711234093,-0.00152716308366507,0.0277943685650826
5,1.01527782720901,-0.14722222356986,0.136111112815755,0.0503963828086853,-0.00183259579353034,0.0253509078174829
5,1.01805561097552,-0.144444451959316,0.143055560076062,0.0458148941397667,0.00671951752156019,0.0293215326964855
5,1.0125000434425,-0.140277788465518,0.141666668192807,0.0409279726445675,0.0033597587607801,0.0290160998702049
5,1.00833336779274,-0.140277788465518,0.133333341205212,0.0311541277915239,0.00122173049021512,0.01191187184304
5,1.0125000434425,-0.13750000469901,0.138888896582264,0.0244346093386412,-0.00397062394768,0.00641408516094089
5,1.01111115155925,-0.130555557438704,0.131944449321958,0.0186313893646002,0.000610865245107561,0.00519235478714108
5,1.01666671909226,-0.13750000469901,0.133333341205212,0.0143553335219622,0.0033597587607801,0.011606439948082
5,1.01944450285877,-0.140277788465518,0.133333341205212,0.00763581553474069,0.0109955742955208,0.0140499006956816
5,1.02083339474202,-0.14583334384257,0.140277788465518,0.00763581553474069,0.015577063895762,0.00702495034784079
5,1.0125000434425,-0.143055560076062,0.134722233088466,0.0103847095742822,0.01191187184304,0.00610865233466029
5,1.00972225967599,-0.143055560076062,0.136111112815755,0.0128281703218818,0.00152716308366507,0.01191187184304
5,1.01111115155925,-0.141666668192807,0.12777778582816,0.00152716308366507,0.00763581553474069,-0.00122173049021512
5,1.00555558402623,-0.148611115453114,0.1194444466846,-0.000305432622553781,0.00580321997404099,-0.0045814891345799
5,1.00277780025972,-0.14722222356986,0.12916666555545,-0.00610865233466029,0.000305432622553781,-0.0021380283869803
5,1.00972225967599,-0.14722222356986,0.130555557438704,-0.000916297896765172,-0.00427605677396059,-0.000610865245107561
5,1.00833336779274,-0.14722222356986,0.138888896582264,-0.00366519158706069,-0.0100792767480016,0.00610865233466029
5,1.01388893532575,-0.14722222356986,0.133333341205212,-0.00733038317412138,-0.0109955742955208,0.0021380283869803
5,1.01527782720901,-0.14583334384257,0.140277788465518,-0.0109955742955208,-0.00855211354792118,-0.00366519158706069
5,1.01388893532575,-0.14722222356986,0.133333341205212,-0.0100792767480016,-0.0149661982432008,-0.00885754637420177
5,1.00972225967599,-0.151388899219622,0.136111112815755,-0.0103847095742822,-0.0250454749912024,-0.0027488935738802
5,1.00277780025972,-0.152777778946911,0.138888896582264,-0.0027488935738802,-0.0320704244077206,-0.00183259579353034
5,1.00277780025972,-0.150000007336368,0.133333341205212,-0.00488692196086049,-0.0403171069920063,0.00152716308366507
5,1.00972225967599,-0.148611115453114,0.13750000469901,-0.0103847095742822,-0.0516181141138077,0.00397062394768
5,1.00972225967599,-0.150000007336368,0.134722233088466,-0.0180205255746841,-0.0418442711234093,0.00763581553474069
5,1.01388893532575,-0.150000007336368,0.140277788465518,-0.0164933614432812,-0.0339030213654041,0.00488692196086049
5,1.01666671909226,-0.15555556271342,0.131944449321958,-0.0235183127224445,-0.0183259565383196,-0.00763581553474069
5,1.01527782720901,-0.159722226207217,0.12777778582816,-0.0290160998702049,-0.01588249579072,-0.000610865245107561
5,1.01666671909226,-0.161111118090472,0.130555557438704,-0.0247400421649218,0.01191187184304,0.00366519158706069
5,1.0125000434425,-0.158333334323963,0.130555557438704,-0.0146607663482428,-0.00397062394768,0.0100792767480016
5,1.01388893532575,-0.15555556271342,0.125000002061652,-0.0164933614432812,-0.00152716308366507,0.00366519158706069
5,1.01111115155925,-0.15555556271342,0.125000002061652,-0.0109955742955208,-0.011606439948082,-0.000305432622553781
5,1.01111115155925,-0.159722226207217,0.123611110178398,-0.0125227374956012,0.000610865245107561,0.00152716308366507
5,1.01388893532575,-0.156944454596674,0.126388893944906,-0.00305432616733015,0.00702495034784079,0.00122173049021512
5,1.01527782720901,-0.152777778946911,0.12777778582816,0.000305432622553781,0.000305432622553781,-0.00610865233466029
5,1.0125000434425,-0.154166670830166,0.133333341205212,0.0033597587607801,0.0045814891345799,-0.00183259579353034
5,1.00833336779274,-0.156944454596674,0.130555557438704,0.0100792767480016,-0.00397062394768,0.0033597587607801
5,1.00833336779274,-0.158333334323963,0.134722233088466,0.00824668072164059,0.00122173049021512,0.00366519158706069
5,1.00972225967599,-0.154166670830166,0.131944449321958,0.0186313893646002,-0.00733038317412138,0.000305432622553781
5,1.01388893532575,-0.15555556271342,0.130555557438704,0.0250454749912024,-0.00610865233466029,0.00152716308366507
5,1.00972225967599,-0.156944454596674,0.122222230451108,0.0222965814173222,-0.000610865245107561,0.0128281703218818
5,1.01527782720901,-0.156944454596674,0.12777778582816,0.0250454749912024,0.0128281703218818,-0.00427605677396059
5,1.00972225967599,-0.152777778946911,0.131944449321958,0.0186313893646002,0.00244346098043024,-0.000610865245107561
5,1.0125000434425,-0.14583334384257,0.133333341205212,0.00763581553474069,0.00183259579353034,-0.00610865233466029
5,1.01527782720901,-0.144444451959316,0.130555557438704,0.00427605677396059,-0.00183259579353034,0.00244346098043024
5,1.01111115155925,-0.14722222356986,0.126388893944906,0.00183259579353034,0.00427605677396059,-0.0021380283869803
5,1.01388893532575,-0.154166670830166,0.120833338567854,0.00824668072164059,0.00702495034784079,0.000916297896765172
5,1.0125000434425,-0.154166670830166,0.125000002061652,0.0186313893646002,0.0033597587607801,0.0045814891345799
5,1.00694447590948,-0.151388899219622,0.12916666555545,0.0164933614432812,0.00488692196086049,0.00397062394768
5,1.0125000434425,-0.154166670830166,0.12777778582816,0.0287106670439243,0.0027488935738802,0.00946841109544039
5,1.0125000434425,-0.148611115453114,0.123611110178398,0.0268780700862408,-0.00610865233466029,0.00152716308366507
5,1.0125000434425,-0.144444451959316,0.125000002061652,0.0280998013913631,0.00580321997404099,-0.00427605677396059
5,1.00972225967599,-0.150000007336368,0.12777778582816,0.02382374368608,0.00244346098043024,0.00610865233466029
5,1.00972225967599,-0.156944454596674,0.13750000469901,0.0280998013913631,0.00580321997404099,0.0109955742955208
5,1.00972225967599,-0.156944454596674,0.134722233088466,0.0372627787292004,-0.0021380283869803,0.00549778714776039
5,1.0125000434425,-0.14722222356986,0.134722233088466,0.03176499158144,-0.00183259579353034,0.00427605677396059
5,1.0125000434425,-0.151388899219622,0.136111112815755,0.027488935738802,-0.00885754637420177,0.00855211354792118
5,1.01527782720901,-0.14583334384257,0.12777778582816,0.019547687843442,-0.0045814891345799,0.00305432616733015
5,1.01388893532575,-0.150000007336368,0.125000002061652,0.0250454749912024,0.00183259579353034,0.00305432616733015
5,1.01805561097552,-0.14583334384257,0.125000002061652,0.0271835029125214,0.013744467869401,0.000305432622553781
5,1.00972225967599,-0.148611115453114,0.120833338567854,0.0265726372599602,0.0103847095742822,-0.000916297896765172
5,1.00555558402623,-0.150000007336368,0.122222230451108,0.0241291765123606,0.00397062394768,-0.00671951752156019
5,1.01111115155925,-0.14722222356986,0.126388893944906,0.027488935738802,-0.00152716308366507,0.00152716308366507
5,1.0125000434425,-0.150000007336368,0.134722233088466,0.0219911485910416,0.000610865245107561,-0.000916297896765172
5,1.0125000434425,-0.152777778946911,0.131944449321958,0.0180205255746841,0.000916297896765172,0.00824668072164059
5,1.00972225967599,-0.14722222356986,0.123611110178398,0.0256563406437635,-0.00519235478714108,-0.000916297896765172
5,1.01111115155925,-0.150000007336368,0.120833338567854,0.0198531206697226,0.000305432622553781,-0.00702495034784079
5,1.01111115155925,-0.150000007336368,0.120833338567854,0.0198531206697226,0.000305432622553781,-0.00702495034784079
5,1.01388893532575,-0.14722222356986,0.125000002061652,0.0152716310694814,-0.000916297896765172,0.000916297896765172
5,1.0125000434425,-0.148611115453114,0.12777778582816,0.0103847095742822,0.000610865245107561,-0.00824668072164059
5,1.0125000434425,-0.14722222356986,0.130555557438704,0.0180205255746841,0.0045814891345799,-0.00702495034784079
5,1.01527782720901,-0.151388899219622,0.123611110178398,0.0122173046693206,0.000916297896765172,-0.00763581553474069
5,1.0125000434425,-0.150000007336368,0.134722233088466,0.0021380283869803,-0.00122173049021512,-0.000916297896765172
5,1.01527782720901,-0.150000007336368,0.12777778582816,0.00549778714776039,-0.00305432616733015,0.000916297896765172
5,1.0125000434425,-0.154166670830166,0.12777778582816,0.00519235478714108,-0.00397062394768,0.0045814891345799
5,1.0125000434425,-0.14583334384257,0.12777778582816,0.00671951752156019,0.0033597587607801,0.0027488935738802
5,1.01388893532575,-0.14722222356986,0.130555557438704,0.00366519158706069,-0.000305432622553781,0.00305432616733015
5,1.00972225967599,-0.14583334384257,0.12777778582816,0.00397062394768,-0.00733038317412138,0.00122173049021512
5,1.01111115155925,-0.161111118090472,0.12916666555545,0.0033597587607801,-0.00488692196086049,0.00427605677396059
5,1.01111115155925,-0.161111118090472,0.133333341205212,0.00855211354792118,0.00122173049021512,0.00427605677396059
5,1.00555558402623,-0.152777778946911,0.130555557438704,0.0033597587607801,0.00549778714776039,-0.00885754637420177
5,1.00277780025972,-0.148611115453114,0.123611110178398,-0.00427605677396059,0.00885754637420177,-0.0131336031481624
5,1.00555558402623,-0.14722222356986,0.136111112815755,-0.00519235478714108,-0.0033597587607801,-0.00519235478714108
5,1.01527782720901,-0.14583334384257,0.133333341205212,-0.00977384392172098,-0.00794124789535999,-0.00488692196086049
5,1.01527782720901,-0.154166670830166,0.1194444466846,-0.01191187184304,0.00671951752156019,0.00366519158706069
5,1.01527782720901,-0.152777778946911,0.125000002061652,-0.000610865245107561,0.0128281703218818,-0.000610865245107561
5,1.00972225967599,-0.156944454596674,0.133333341205212,-0.00183259579353034,0.00916297826915979,0.000305432622553781
5,1.00972225967599,-0.156944454596674,0.13750000469901,0.000610865245107561,0.000305432622553781,-0.00427605677396059
5,1.01527782720901,-0.151388899219622,0.115277783190802,0.00733038317412138,-0.0122173046693206,-0.00855211354792118
5,1.0125000434425,-0.151388899219622,0.120833338567854,0.01191187184304,-0.00610865233466029,-0.0021380283869803
5,1.0125000434425,-0.154166670830166,0.120833338567854,0.00977384392172098,0.00183259579353034,-0.000610865245107561
5,1.00555558402623,-0.154166670830166,0.1194444466846,0.0131336031481624,0.00152716308366507,-0.00152716308366507
5,1.00555558402623,-0.156944454596674,0.123611110178398,0.0171042270958424,-0.000916297896765172,-0.00244346098043024
5,1.00972225967599,-0.151388899219622,0.125000002061652,0.0161879286170006,-0.00641408516094089,-0.00488692196086049
5,1.01111115155925,-0.15555556271342,0.120833338567854,0.00977384392172098,-0.0027488935738802,-0.00152716308366507
5,1.01388893532575,-0.15555556271342,0.120833338567854,0.0125227374956012,0.0033597587607801,0.0027488935738802
5,1.01388893532575,-0.15555556271342,0.120833338567854,0.0143553335219622,0.00366519158706069,0.00916297826915979
5,1.01111115155925,-0.148611115453114,0.126388893944906,0.0113010071218014,0.00641408516094089,0.00244346098043024
5,1.0125000434425,-0.15555556271342,0.120833338567854,0.00855211354792118,0.00794124789535999,-0.00152716308366507
5,1.0125000434425,-0.154166670830166,0.120833338567854,0.0100792767480016,-0.00733038317412138,-0.00671951752156019
5,1.0125000434425,-0.154166670830166,0.120833338567854,0.00702495034784079,0.00152716308366507,-0.00305432616733015
5,1.01111115155925,-0.150000007336368,0.130555557438704,0.0113010071218014,0.00549778714776039,0.0045814891345799
5,1.01527782720901,-0.14722222356986,0.140277788465518,0.00702495034784079,0.00641408516094089,0.00305432616733015
5,1.01805561097552,-0.154166670830166,0.122222230451108,0.0134390350431204,0.0021380283869803,-0.00152716308366507
5,1.01805561097552,-0.154166670830166,0.122222230451108,0.00794124789535999,0.0021380283869803,0.0027488935738802
5,1.00972225967599,-0.151388899219622,0.126388893944906,0.00916297826915979,0.00183259579353034,0.00183259579353034
5,1.0125000434425,-0.148611115453114,0.12916666555545,0.0103847095742822,-0.000916297896765172,0.00397062394768
5,1.0125000434425,-0.148611115453114,0.12916666555545,0.00641408516094089,0.00152716308366507,0.00610865233466029
5,1.01527782720901,-0.154166670830166,0.120833338567854,0.011606439948082,0.0027488935738802,0.00916297826915979
5,1.01388893532575,-0.148611115453114,0.118055554801345,0.0146607663482428,-0.0021380283869803,0.000916297896765172
5,1.01388893532575,-0.148611115453114,0.118055554801345,0.015577063895762,0.00855211354792118,-0.00244346098043024
5,1.0125000434425,-0.14722222356986,0.126388893944906,0.01191187184304,0.00397062394768,0.0021380283869803
5,1.0125000434425,-0.141666668192807,0.136111112815755,0.0125227374956012,0.0021380283869803,0.000305432622553781
5,1.0125000434425,-0.141666668192807,0.136111112815755,0.00122173049021512,0.0045814891345799,-0.00122173049021512
5,1.00972225967599,-0.14722222356986,0.133333341205212,0.01588249579072,0.00244346098043024,-0.00366519158706069
5,1.01111115155925,-0.154166670830166,0.141666668192807,0.00885754637420177,0.00427605677396059,-0.00397062394768
5,1.0125000434425,-0.152777778946911,0.134722233088466,0.0183259565383196,-0.00610865233466029,-0.00305432616733015
5,1.01805561097552,-0.154166670830166,0.125000002061652,0.00733038317412138,0.0045814891345799,0.00733038317412138
5,1.01666671909226,-0.150000007336368,0.130555557438704,0.0140499006956816,0.011606439948082,-0.00122173049021512
5,1.01527782720901,-0.151388899219622,0.12916666555545,0.00916297826915979,0.00733038317412138,-0.0045814891345799
5,1.00555558402623,-0.150000007336368,0.148611115453114,0.00427605677396059,0.00183259579353034,-0.00488692196086049
5,1.00694447590948,-0.14722222356986,0.143055560076062,-0.00671951752156019,-0.0021380283869803,-0.0045814891345799
5,1.0125000434425,-0.14722222356986,0.134722233088466,-0.00122173049021512,0.0021380283869803,0.00244346098043024
5,1.01388893532575,-0.15555556271342,0.136111112815755,-0.00305432616733015,0.0140499006956816,-0.000305432622553781
5,1.01388893532575,-0.15555556271342,0.136111112815755,-0.0021380283869803,0.00671951752156019,-0.000610865245107561
5,1.01388893532575,-0.15555556271342,0.12916666555545,0.00427605677396059,0.00610865233466029,-0.00824668072164059
5,1.00972225967599,-0.154166670830166,0.13750000469901,0.0113010071218014,-0.00488692196086049,-0.00397062394768
5,1.00972225967599,-0.14722222356986,0.131944449321958,0.00244346098043024,-0.0106901414692402,-0.0106901414692402
5,1.01388893532575,-0.150000007336368,0.116666675074056,0.00977384392172098,0.00183259579353034,0.000610865245107561
5,1.01388893532575,-0.154166670830166,0.120833338567854,0.00397062394768,0.00397062394768,0.00122173049021512
5,1.0125000434425,-0.156944454596674,0.130555557438704,0.0109955742955208,0.00733038317412138,0.00305432616733015
5,1.00972225967599,-0.156944454596674,0.12777778582816,0.0128281703218818,-0.00549778714776039,-0.00305432616733015
5,1.00833336779274,-0.158333334323963,0.130555557438704,0.00763581553474069,-0.00244346098043024,-0.0033597587607801
5,1.0125000434425,-0.150000007336368,0.130555557438704,0.00671951752156019,-0.00641408516094089,0.00244346098043024
5,1.01388893532575,-0.150000007336368,0.12916666555545,0.00977384392172098,0.00397062394768,0.00427605677396059
5,1.01944450285877,-0.151388899219622,0.123611110178398,0.00733038317412138,0.0106901414692402,-0.0027488935738802
5,1.01388893532575,-0.156944454596674,0.12777778582816,0.00122173049021512,0.00427605677396059,0.000916297896765172
5,1.00833336779274,-0.152777778946911,0.126388893944906,-0.00549778714776039,0.00397062394768,-0.00977384392172098
5,1.00833336779274,-0.15555556271342,0.13750000469901,0.0027488935738802,-0.0021380283869803,-0.0109955742955208
5,1.00972225967599,-0.154166670830166,0.134722233088466,-0.000305432622553781,-0.00244346098043024,0.00122173049021512
5,1.0125000434425,-0.148611115453114,0.136111112815755,0.00641408516094089,-0.000610865245107561,0.000916297896765172
5,1.01527782720901,-0.150000007336368,0.136111112815755,0.00641408516094089,0.00122173049021512,-0.00549778714776039
5,1.00833336779274,-0.148611115453114,0.126388893944906,0.0027488935738802,-0.00733038317412138,-0.00366519158706069
5,1.00972225967599,-0.152777778946911,0.125000002061652,0.0134390350431204,-0.000305432622553781,0.0027488935738802
5,1.01388893532575,-0.150000007336368,0.125000002061652,0.01191187184304,0.00580321997404099,-0.00702495034784079
5,1.0125000434425,-0.159722226207217,0.136111112815755,0.0171042270958424,-0.00183259579353034,-0.0033597587607801
5,1.01111115155925,-0.156944454596674,0.125000002061652,0.0167987942695618,0.00580321997404099,-0.000305432622553781
5,1.0125000434425,-0.150000007336368,0.12777778582816,0.0146607663482428,0.00580321997404099,-0.00733038317412138
5,1.00833336779274,-0.14722222356986,0.12916666555545,0.00824668072164059,0.0027488935738802,0.0033597587607801
5,1.01111115155925,-0.14722222356986,0.134722233088466,0.00427605677396059,0.0027488935738802,0.000305432622553781
5,1.0125000434425,-0.150000007336368,0.131944449321958,0.0183259565383196,0.00824668072164059,-0.00977384392172098
5,1.01388893532575,-0.152777778946911,0.12916666555545,0.013744467869401,-0.00152716308366507,0.00305432616733015
5,1.00972225967599,-0.151388899219622,0.12777778582816,0.00427605677396059,-0.00488692196086049,-0.0045814891345799
5,1.00555558402623,-0.14583334384257,0.118055554801345,0.0131336031481624,0.000610865245107561,0.00152716308366507
5,1.00555558402623,-0.14722222356986,0.125000002061652,0.0219911485910416,-0.00855211354792118,-0.00244346098043024
5,1.00555558402623,-0.151388899219622,0.125000002061652,0.01588249579072,-0.000916297896765172,0.0027488935738802
5,1.0125000434425,-0.154166670830166,0.125000002061652,0.0161879286170006,0.00885754637420177,-0.0021380283869803
5,1.0125000434425,-0.14722222356986,0.133333341205212,0.0128281703218818,0.00977384392172098,-0.000916297896765172
5,1.00972225967599,-0.148611115453114,0.123611110178398,0.0131336031481624,-0.000305432622553781,-0.00794124789535999
5,1.00833336779274,-0.144444451959316,0.12777778582816,0.00610865233466029,-0.00549778714776039,-0.0125227374956012
5,1.00972225967599,-0.144444451959316,0.130555557438704,0.0045814891345799,-0.01191187184304,-0.00488692196086049
5,1.01944450285877,-0.144444451959316,0.13750000469901,0.0027488935738802,-0.000610865245107561,-0.000305432622553781
5,1.01388893532575,-0.150000007336368,0.12777778582816,-0.00122173049021512,0.00824668072164059,-0.00366519158706069
5,1.0125000434425,-0.150000007336368,0.130555557438704,-0.00183259579353034,0.00946841109544039,-0.0033597587607801
5,1.0125000434425,-0.150000007336368,0.130555557438704,-0.0027488935738802,0.00183259579353034,-0.00183259579353034
5,1.01111115155925,-0.14583334384257,0.12916666555545,0.00397062394768,-0.00152716308366507,-0.0027488935738802
5,1.0125000434425,-0.154166670830166,0.12777778582816,0.0125227374956012,0.00244346098043024,-0.00519235478714108
5,1.0125000434425,-0.156944454596674,0.130555557438704,0.0122173046693206,-0.00427605677396059,-0.00183259579353034
5,1.00972225967599,-0.151388899219622,0.12777778582816,0.0100792767480016,0.00366519158706069,-0.00763581553474069
5,1.0125000434425,-0.14722222356986,0.12777778582816,-0.00366519158706069,0.00610865233466029,-0.00427605677396059
5,1.01111115155925,-0.143055560076062,0.143055560076062,0.00183259579353034,0.00946841109544039,-0.0122173046693206
5,1.01111115155925,-0.14722222356986,0.125000002061652,-0.00183259579353034,0.0033597587607801,-0.00152716308366507
5,1.01388893532575,-0.150000007336368,0.130555557438704,0.0033597587607801,0.00580321997404099,0.00397062394768
5,1.01527782720901,-0.154166670830166,0.1194444466846,0.0106901414692402,0.00152716308366507,0.00366519158706069
5,1.01805561097552,-0.15555556271342,0.12777778582816,0.00824668072164059,0.00946841109544039,0.00397062394768
5,1.0125000434425,-0.154166670830166,0.126388893944906,0.0143553335219622,0.00610865233466029,-0.00305432616733015
5,1.01111115155925,-0.14722222356986,0.133333341205212,0.0109955742955208,-0.00183259579353034,-0.00641408516094089
5,1.0125000434425,-0.150000007336368,0.12777778582816,0.00488692196086049,0.00855211354792118,0.00122173049021512
5,1.01111115155925,-0.15555556271342,0.130555557438704,0.0204639863222837,0.00305432616733015,-0.00122173049021512
5,1.0125000434425,-0.150000007336368,0.130555557438704,0.029626963660121,0.00488692196086049,0.0021380283869803
5,1.0125000434425,-0.154166670830166,0.130555557438704,0.0189368221908808,0.0103847095742822,0.0021380283869803
5,1.00972225967599,-0.148611115453114,0.130555557438704,0.0314595587551594,0.00366519158706069,0.00183259579353034
5,1.01111115155925,-0.152777778946911,0.13750000469901,0.0244346093386412,-0.0045814891345799,0.000916297896765172
5,1.0125000434425,-0.14583334384257,0.1194444466846,0.0207694191485643,0.00946841109544039,0.00366519158706069
5,1.01944450285877,-0.14722222356986,0.130555557438704,0.029626963660121,0.0027488935738802,0.0027488935738802
5,1.01805561097552,-0.14722222356986,0.134722233088466,0.0189368221908808,0.000305432622553781,0.00519235478714108
5,1.01111115155925,-0.150000007336368,0.12777778582816,0.0213802829384804,0.00183259579353034,0.0045814891345799
5,1.00972225967599,-0.14722222356986,0.134722233088466,0.0226020142436027,0.00366519158706069,-0.00244346098043024
5,1.00833336779274,-0.152777778946911,0.12777778582816,0.0143553335219622,0.00122173049021512,-0.000305432622553781
5,1.01111115155925,-0.150000007336368,0.12777778582816,0.0143553335219622,0.00244346098043024,-0.00122173049021512
5,1.00416669214298,-0.14722222356986,0.125000002061652,0.015577063895762,0.00855211354792118,-0.0045814891345799
5,1.00972225967599,-0.14583334384257,0.134722233088466,0.015577063895762,-0.00580321997404099,-0.00366519158706069
5,1.00972225967599,-0.14583334384257,0.134722233088466,0.011606439948082,0.00488692196086049,0.0033597587607801
5,1.01527782720901,-0.150000007336368,0.123611110178398,0.0161879286170006,-0.00671951752156019,-0.00122173049021512
5,1.01527782720901,-0.150000007336368,0.13750000469901,0.0186313893646002,0.00183259579353034,0.0128281703218818
5,1.01527782720901,-0.150000007336368,0.13750000469901,0.0189368221908808,-0.000305432622553781,0.00763581553474069
5,1.00555558402623,-0.14583334384257,0.12777778582816,0.0186313893646002,0.00305432616733015,-0.00397062394768
5,1.00833336779274,-0.144444451959316,0.12777778582816,0.0122173046693206,-0.000916297896765172,-0.00763581553474069
5,1.00833336779274,-0.144444451959316,0.12777778582816,0.0131336031481624,-0.0177150927484035,-0.000305432622553781
5,1.0125000434425,-0.14722222356986,0.125000002061652,0.0226020142436027,-0.0143553335219622,-0.00397062394768
5,1.01805561097552,-0.152777778946911,0.134722233088466,0.017409659922123,-0.0045814891345799,0.00427605677396059
5,1.01805561097552,-0.152777778946911,0.134722233088466,0.0149661982432008,0.00122173049021512,0.00183259579353034
5,1.01388893532575,-0.156944454596674,0.140277788465518,0.0207694191485643,-0.0027488935738802,0.00397062394768
5,1.00972225967599,-0.154166670830166,0.136111112815755,0.0164933614432812,-0.00152716308366507,0.00152716308366507
5,1.00972225967599,-0.154166670830166,0.136111112815755,0.0204639863222837,-0.00885754637420177,0.0045814891345799
5,1.00972225967599,-0.144444451959316,0.133333341205212,0.01588249579072,-0.00671951752156019,-0.00397062394768
5,1.01805561097552,-0.14722222356986,0.126388893944906,0.00916297826915979,0.0033597587607801,-0.00183259579353034
5,1.01527782720901,-0.144444451959316,0.120833338567854,0.00733038317412138,0.0109955742955208,0.00183259579353034
5,1.0125000434425,-0.150000007336368,0.12777778582816,0.0021380283869803,-0.00671951752156019,-0.00122173049021512
5,1.01111115155925,-0.14722222356986,0.134722233088466,0.00427605677396059,-0.000916297896765172,-0.00885754637420177
5,1.01111115155925,-0.14722222356986,0.134722233088466,0.000916297896765172,-0.00641408516094089,0.00305432616733015
5,1.00972225967599,-0.14722222356986,0.12777778582816,0.00305432616733015,-0.00763581553474069,-0.00580321997404099
5,1.01388893532575,-0.154166670830166,0.116666675074056,0.00641408516094089,-0.00549778714776039,0.00366519158706069
5,1.01527782720901,-0.14722222356986,0.125000002061652,0.00244346098043024,-0.0021380283869803,-0.0021380283869803
5,1.01111115155925,-0.14722222356986,0.125000002061652,0.00671951752156019,0.00183259579353034,-0.00519235478714108
5,1.01666671909226,-0.156944454596674,0.126388893944906,0.00610865233466029,-0.00488692196086049,-0.00152716308366507
5,1.01111115155925,-0.151388899219622,0.130555557438704,0.0045814891345799,-0.0106901414692402,0.000305432622553781
5,1.00972225967599,-0.150000007336368,0.12777778582816,0.00794124789535999,-0.0103847095742822,0.0106901414692402
5,1.01527782720901,-0.148611115453114,0.12916666555545,0.00702495034784079,-0.000610865245107561,0.00549778714776039
5,1.0125000434425,-0.150000007336368,0.120833338567854,0.000916297896765172,-0.00122173049021512,-0.0027488935738802
5,1.01527782720901,-0.15555556271342,0.12777778582816,0.00397062394768,0.00366519158706069,-0.000305432622553781
5,1.01388893532575,-0.152777778946911,0.120833338567854,0.011606439948082,0.00641408516094089,-0.00610865233466029
5,1.0125000434425,-0.148611115453114,0.126388893944906,0.00671951752156019,0.0021380283869803,-0.00488692196086049
5,1.0125000434425,-0.14722222356986,0.12777778582816,-0.000305432622553781,-0.00183259579353034,-0.00946841109544039
5,1.0125000434425,-0.150000007336368,0.123611110178398,0.00366519158706069,0.0033597587607801,-0.00397062394768
5,1.00833336779274,-0.154166670830166,0.130555557438704,-0.0027488935738802,-0.000305432622553781,-0.00397062394768
5,1.00694447590948,-0.154166670830166,0.130555557438704,-0.00702495034784079,0.0021380283869803,0.000916297896765172
5,1.00972225967599,-0.154166670830166,0.130555557438704,0.000916297896765172,-0.000610865245107561,-0.00671951752156019
5,1.01388893532575,-0.151388899219622,0.12777778582816,-0.00427605677396059,0.00641408516094089,-0.00519235478714108
5,1.01527782720901,-0.156944454596674,0.130555557438704,-0.00244346098043024,-0.000305432622553781,-0.00549778714776039
5,1.00972225967599,-0.148611115453114,0.134722233088466,0.0027488935738802,-0.00519235478714108,0.00152716308366507
5,1.01111115155925,-0.152777778946911,0.125000002061652,-0.000305432622553781,-0.00946841109544039,0.000916297896765172
5,1.01527782720901,-0.158333334323963,0.133333341205212,-0.00488692196086049,0.00397062394768,0.00183259579353034
5,1.01527782720901,-0.150000007336368,0.125000002061652,0.00183259579353034,0.00549778714776039,-0.00580321997404099
5,1.01527782720901,-0.14722222356986,0.126388893944906,-0.000916297896765172,0.00671951752156019,0.00183259579353034
5,1.00694447590948,-0.148611115453114,0.131944449321958,-0.00549778714776039,-0.0045814891345799,-0.0045814891345799
5,1.00555558402623,-0.143055560076062,0.126388893944906,-0.00916297826915979,-0.0100792767480016,-0.00641408516094089
5,1.0125000434425,-0.13750000469901,0.12777778582816,-0.0284052342176437,-0.00183259579353034,-0.00152716308366507
5,1.01944450285877,-0.14722222356986,0.125000002061652,-0.0177150927484035,0.0103847095742822,-0.00702495034784079
5,1.01527782720901,-0.150000007336368,0.125000002061652,-0.0143553335219622,0.0128281703218818,-0.00519235478714108
5,1.01527782720901,-0.148611115453114,0.131944449321958,-0.00152716308366507,0.0100792767480016,-0.0131336031481624
5,1.00972225967599,-0.15555556271342,0.130555557438704,0.0027488935738802,0.00671951752156019,-0.017409659922123
5,1.01111115155925,-0.151388899219622,0.118055554801345,0.00122173049021512,0.00305432616733015,-0.017409659922123
5,1.0125000434425,-0.150000007336368,0.120833338567854,-0.00610865233466029,-0.00122173049021512,-0.01191187184304
5,1.01111115155925,-0.14722222356986,0.122222230451108,-0.0027488935738802,-0.000610865245107561,-0.0045814891345799
5,1.0125000434425,-0.14583334384257,0.123611110178398,-0.00427605677396059,0.000305432622553781,-0.00610865233466029
5,1.0125000434425,-0.150000007336368,0.12777778582816,-0.00183259579353034,-0.00733038317412138,-0.00549778714776039
5,1.01527782720901,-0.154166670830166,0.133333341205212,-0.000610865245107561,-0.0134390350431204,-0.00824668072164059
5,1.02083339474202,-0.143055560076062,0.12777778582816,-0.0027488935738802,-0.00855211354792118,-0.0100792767480016
5,1.01944450285877,-0.143055560076062,0.1194444466846,-0.0122173046693206,0.00366519158706069,-0.01191187184304
5,1.01805561097552,-0.151388899219622,0.125000002061652,-0.00977384392172098,0.0122173046693206,-0.00397062394768
5,1.00972225967599,-0.14722222356986,0.130555557438704,-0.0027488935738802,0.011606439948082,-0.0109955742955208
5,1.01527782720901,-0.152777778946911,0.125000002061652,-0.00122173049021512,0.00305432616733015,-0.0033597587607801
5,1.01527782720901,-0.154166670830166,0.123611110178398,-0.00244346098043024,-0.00549778714776039,-0.00152716308366507
5,1.01388893532575,-0.151388899219622,0.12777778582816,-0.00366519158706069,0.00641408516094089,-0.00519235478714108
5,1.01527782720901,-0.150000007336368,0.12916666555545,-0.00794124789535999,0.00824668072164059,-0.00152716308366507
5,1.0125000434425,-0.150000007336368,0.130555557438704,-0.000305432622553781,-0.000610865245107561,-0.00366519158706069
5,1.0125000434425,-0.150000007336368,0.125000002061652,-0.00977384392172098,0.00916297826915979,-0.0027488935738802
5,1.01111115155925,-0.150000007336368,0.118055554801345,-0.00397062394768,0.00519235478714108,-0.0033597587607801
5,1.0125000434425,-0.152777778946911,0.12777778582816,0.00549778714776039,0.00763581553474069,-0.0106901414692402
5,1.01111115155925,-0.14722222356986,0.130555557438704,0.00122173049021512,-0.000305432622553781,-0.0106901414692402
5,1.00972225967599,-0.150000007336368,0.131944449321958,0.000305432622553781,0.00610865233466029,-0.00519235478714108
5,1.0125000434425,-0.152777778946911,0.130555557438704,0.00305432616733015,0.00763581553474069,-0.00824668072164059
5,1.0125000434425,-0.154166670830166,0.12777778582816,0.0027488935738802,0.00824668072164059,-0.0167987942695618
5,1.0125000434425,-0.154166670830166,0.12777778582816,0.00549778714776039,0.0100792767480016,-0.00397062394768
5,1.01111115155925,-0.154166670830166,0.112499999424294,0.00580321997404099,0.00702495034784079,-0.00488692196086049
5,1.0125000434425,-0.154166670830166,0.118055554801345,0.0109955742955208,0.00641408516094089,-0.015577063895762
