Activity,acc_x,acc_y,acc_z,gyro_x,gyro_y,gyro_z
0,0.575000024070755,-0.00416666691266287,0.820833352544296,0.00610865233466029,-0.029626963660121,-0.0033597587607801
0,0.569444456537738,-0.00416666691266287,0.823611136310804,0.00733038317412138,-0.0290160998702049,-0.000305432622553781
0,0.565277780887976,-0.00138888893923146,0.82222224442755,0.0345138870179653,-0.0378736443817616,0.0177150927484035
0,0.563888889004722,-0.00138888893923146,0.816666676894533,0.0467311926186085,-0.0461203269660473,0.019547687843442
0,0.559722261978817,-0.00138888893923146,0.809722266102121,0.0525344125926495,-0.0583376325666905,0.0241291765123606
0,0.572222240304247,-0.00138888893923146,0.819444460661041,0.0335975885391235,-0.0308486949652433,0.0033597587607801
0,0.577777807837263,0.00277777787846293,0.819444460661041,0.00702495034784079,-0.0183259565383196,-0.0131336031481624
0,0.576388915954009,0.00277777787846293,0.82222224442755,-0.0232128798961639,-0.01588249579072,-0.00397062394768
0,0.572222240304247,-0.00972222266958873,0.808333374218867,-0.0207694191485643,-0.0219911485910416,0.0027488935738802
0,0.565277780887976,-0.00972222266958873,0.815277785011279,-0.00244346098043024,-0.000610865245107561,0.00824668072164059
0,0.565277780887976,-0.00972222266958873,0.815277785011279,0.00763581553474069,0.00152716308366507,0.00671951752156019
0,0.573611132187501,-0.00555555575692586,0.82222224442755,0.0109955742955208,-0.00641408516094089,0.00794124789535999
0,0.573611132187501,-0.00277777787846293,0.82222224442755,-0.00244346098043024,-0.013744467869401,0.00549778714776039
0,0.569444456537738,-0.00277777787846293,0.815277785011279,-0.00946841109544039,-0.0284052342176437,0.00580321997404099
0,0.577777807837263,-0.00694444498106275,0.812500049868629,-0.0192422550171614,-0.0222965814173222,-0.0027488935738802
0,0.568055564654484,-0.00277777787846293,0.816666676894533,-0.0106901414692402,-0.0152716310694814,-0.00519235478714108
0,0.575000024070755,-0.00277777787846293,0.825000028194058,0.0207694191485643,0.015577063895762,-0.0198531206697226
0,0.58333337537028,0.00138888893923146,0.827777811960566,0.0488692186772823,0.0430659987032413,-0.02382374368608
0,0.575000024070755,0.00416666691266287,0.831944487610329,0.0397062413394451,0.0177150927484035,-0.0409279726445675
0,0.576388915954009,-0.00277777787846293,0.823611136310804,0.0146607663482428,-0.0143553335219622,-0.0222965814173222
0,0.576388915954009,-0.00277777787846293,0.823611136310804,0.00885754637420177,-0.0485637858510017,-0.00794124789535999
0,0.581944483487025,-0.00277777787846293,0.825000028194058,0.00916297826915979,-0.0363464802503586,-0.0128281703218818
0,0.581944483487025,-0.00138888893923146,0.812500049868629,0.00488692196086049,-0.0033597587607801,-0.00794124789535999
0,0.58333337537028,-0.00555555575692586,0.808333374218867,-0.0125227374956012,-0.0311541277915239,-0.00183259579353034
0,0.576388915954009,-0.00555555575692586,0.815277785011279,-0.02382374368608,-0.0293215326964855,0.00610865233466029
0,0.576388915954009,-0.00555555575692586,0.815277785011279,-0.0146607663482428,-0.0256563406437635,0.0021380283869803
0,0.573611132187501,-0.00277777787846293,0.818055568777787,0.0287106670439243,-0.00366519158706069,0.000610865245107561
0,0.575000024070755,-0.00555555575692586,0.834722271376837,0.0253509078174829,0.00488692196086049,-0.00397062394768
0,0.572222240304247,-0.00416666691266287,0.825000028194058,0.0384845100343227,-0.00366519158706069,-0.000610865245107561
0,0.572222240304247,-0.00138888893923146,0.823611136310804,0.0439822971820831,-0.0045814891345799,-0.00702495034784079
0,0.576388915954009,-0.00138888893923146,0.827777811960566,0.0363464802503586,-0.0134390350431204,-0.0149661982432008
0,0.577777807837263,-0.00138888893923146,0.827777811960566,0.0363464802503586,-0.00427605677396059,-0.0140499006956816
0,0.573611132187501,0.00138888893923146,0.813888941751883,0.0467311926186085,0.015577063895762,-0.0262672062963247
0,0.575000024070755,0.00555555575692586,0.812500049868629,0.0500909499824047,0.0372627787292004,-0.0244346093386412
0,0.577777807837263,0.00277777787846293,0.827777811960566,0.0320704244077206,0.0568104684352875,-0.0244346093386412
0,0.58611111051293,0.00555555575692586,0.827777811960566,0.00641408516094089,0.0027488935738802,-0.021685715764761
0,0.598611137462217,0.00138888893923146,0.837500055143345,0.0192422550171614,0.00183259579353034,-0.0247400421649218
0,0.598611137462217,0.00138888893923146,0.837500055143345,0.03176499158144,0.0033597587607801,-0.0146607663482428
0,0.627777818386695,0.0208333341834404,0.863888903677457,0.0516181141138077,0.00916297826915979,-0.0513126812875271
0,0.662500018220332,0.0166666676506515,0.886111173809523,0.0378736443817616,-0.0226020142436027,-0.0638354197144508
0,0.672222261403111,0.0138888899621255,0.904166671044111,-0.0552833043038845,-0.12675453722477,-0.0723875313997269
0,0.66527780198684,0.00972222266958873,0.922222265526414,-0.140804439783096,-0.182343274354935,-0.0555887371301651
0,0.654166666920807,0.00694444498106275,0.893055633225794,-0.210748508572578,-0.260839462280273,-0.0354301854968071
0,0.608333332021137,0.00138888893923146,0.84583340644287,-0.236404851078987,-0.301767438650131,-0.0180205255746841
0,0.512500035195893,0.00138888893923146,0.787500044593913,-0.207999616861343,-0.257479697465897,0.0647517144680023
0,0.393055576355329,0.0125000003581147,0.697222266677827,-0.197920337319374,-0.186619326472282,0.106290549039841
0,0.340277782039389,0.0194444453391775,0.641666688595378,-0.147218525409698,-0.0641408488154411,0.0873537287116051
0,0.248611112240049,0.0416666683668809,0.533333364820847,-0.00946841109544039,0.217162594199181,-0.0213802829384804
0,0.259722222994153,0.00833333382532574,0.523611121638068,0.25411993265152,0.594066441059113,-0.131641462445259
0,0.259722222994153,0.00833333382532574,0.523611121638068,0.364991992712021,0.762359797954559,-0.144164204597473
0,0.361111135976272,0.0111111115138517,0.600000029345471,0.559247136116028,1.23975098133087,-0.205556154251099
0,0.500000008246606,0.00555555575692586,0.709722245003256,0.569326400756836,1.30175387859345,-0.186619326472282
0,0.641666688595378,0.00555555575692586,0.861111119910949,0.500909507274628,1.11360728740692,-0.0711658000946045
0,0.75694447178618,0.00972222266958873,1.0333333244436,0.287106662988663,0.736092627048492,-0.0213802829384804
0,0.879166714393253,0.027777779924251,1.18333335609189,-0.0885754600167274,0.118202425539494,0.0882700309157372
0,0.944444438410764,0.0250000007162294,1.28888894472377,-0.252898216247559,-0.118507854640484,0.101098194718361
0,0.948611114060526,0.026388891079988,1.27083335024147,-0.32742378115654,-0.329561799764633,0.103541657328606
0,0.948611114060526,0.026388891079988,1.27083335024147,-0.377514719963074,-0.477391183376312,0.0690277740359306
0,0.904166671044111,0.00416666691266287,1.19027781550816,-0.277943700551987,-0.671340882778168,-0.0109955742955208
0,0.733333358394718,-0.0194444453391775,1.04861113515939,-0.114231802523136,-0.842994034290314,-0.0186313893646002
0,0.666666693870094,-0.0194444453391775,0.983333411141879,0.0134390350431204,-0.965472519397736,-0.0390953756868839
0,0.505555575779623,0.00972222266958873,0.812500049868629,0.070249505341053,-0.953560650348663,-0.0763581544160843
0,0.416666689746791,0.03194444645704,0.705555569353494,0.0589484944939613,-0.745866477489471,-0.125227376818657
0,0.366666679197359,0.0222222230277034,0.663888910103586,0.0751364231109619,-0.639575898647308,-0.107512280344963
0,0.352777784676747,0.0194444453391775,0.648611148011649,0.106901414692402,-0.463952153921127,-0.0568104684352875
0,0.354166676560001,0.0222222230277034,0.661111126337078,0.0861319974064827,-0.168598800897598,0.0280998013913631
0,0.406944470875941,0.0222222230277034,0.677777780312269,0.0442877300083637,-0.00183259579353034,0.08460483700037
0,0.452777781463682,0.027777779924251,0.700000001820477,0.0122173046693206,0.0824668109416962,0.11087204515934
0,0.452777781463682,0.027777779924251,0.700000001820477,0.00122173049021512,0.159435823559761,0.125227376818657
0,0.536111148587356,0.0166666676506515,0.759722255552688,-0.0678060427308083,0.195476874709129,0.167987942695618
0,0.584722267253534,0.00138888893923146,0.788888936477167,-0.0503963828086853,0.205556154251099,0.181732416152954
0,0.601388921228725,-0.00277777787846293,0.809722266102121,0.019547687843442,0.202807262539864,0.179288953542709
0,0.615277791437408,-0.00277777787846293,0.818055568777787,0.0974330082535744,0.149356558918953,0.188451930880547
0,0.629166710269949,-0.00277777787846293,0.831944487610329,0.156076073646545,0.153021737933159,0.18539759516716
0,0.63888890482887,-0.00694444498106275,0.841666730793107,0.172874867916107,0.133474051952362,0.1750128865242
0,0.623611142736933,-0.00972222266958873,0.844444514559616,0.203112691640854,0.00519235478714108,0.199752941727638
0,0.590277786162692,0.00833333382532574,0.848611190209378,0.188451930880547,-0.0769690200686455,0.262977480888367
0,0.613888899554154,0.0166666676506515,0.834722271376837,0.096211276948452,-0.162184715270996,0.330478101968765
0,0.633333337295854,0.00972222266958873,0.833333379493583,0.0497855171561241,-0.00977384392172098,0.322231411933899
0,0.629166710269949,-0.00833333382532574,0.831944487610329,0.0794124826788902,0.0485637858510017,0.262061178684235
0,0.611111115787646,0.0125000003581147,0.805555590452358,0.0772744566202164,0.0164933614432812,0.233350530266762
0,0.611111115787646,0.0125000003581147,0.805555590452358,-0.00244346098043024,-0.115758962929249,0.265420943498612
0,0.551388910679293,0.0111111115138517,0.806944482335612,-0.00122173049021512,-0.21135938167572,0.242208063602448
0,0.569444456537738,0.00972222266958873,0.815277785011279,0.0901026204228401,-0.175318330526352,0.213802829384804
0,0.5930555699292,-0.00555555575692586,0.798611131036088,0.19578230381012,-0.0800233483314514,0.204639852046967
0,0.601388921228725,-0.00555555575692586,0.779166693294388,0.235183119773865,-0.109039448201656,0.218689754605293
0,0.601388921228725,-0.00555555575692586,0.775000017644626,0.189979091286659,-0.168293371796608,0.255647093057633
0,0.58611111051293,0.00833333382532574,0.779166693294388,0.183870434761047,-0.160657554864883,0.321315109729767
0,0.594444461812454,-0.0152777788063885,0.790277828360421,0.223271250724793,-0.130419731140137,0.242208063602448
0,0.626388926503441,-0.0111111115138517,0.779166693294388,0.283746898174286,0.0736092627048492,0.140804439783096
0,0.634722229179108,-0.0125000003581147,0.78333336894415,0.344222575426102,0.26908615231514,0.0968221426010132
0,0.6319444454126,-0.0111111115138517,0.786111152710659,0.357967019081116,0.369268029928207,0.0803287774324417
0,0.647222256128395,-0.0152777788063885,0.777777801411134,0.359188765287399,0.32253685593605,0.145385921001434
0,0.648611148011649,-0.0111111115138517,0.781944477060896,0.367130011320114,0.142637029290199,0.239153742790222
0,0.616666683320662,-0.0194444453391775,0.794444455386325,0.391870051622391,0.100181899964809,0.331394404172897
0,0.611111115787646,-0.00972222266958873,0.808333374218867,0.418442696332932,0.271835029125214,0.374154955148697
0,0.625000034620187,0.00138888893923146,0.815277785011279,0.40714168548584,0.425162196159363,0.444709897041321
0,0.615277791437408,0.0125000003581147,0.804166698569104,0.402560204267502,0.536339700222015,0.478918343782425
0,0.570833348420992,0.0347222241455659,0.805555590452358,0.460286974906921,0.496633440256119,0.502742111682892
0,0.558333370095563,0.0458333348996699,0.815277785011279,0.54428094625473,0.499076902866364,0.481667250394821
0,0.554166694445801,0.0500000014324589,0.805555590452358,0.552833020687103,0.328034639358521,0.484721571207047
0,0.536111148587356,0.0541666679652478,0.770833341994863,0.531452775001526,0.136833816766739,0.452345728874206
0,0.526388905404577,0.0569444456537738,0.736111142161226,0.443182736635208,-0.0131336031481624,0.511905074119568
0,0.484722246154669,0.0375000018340919,0.716666704419527,0.350331217050552,-0.253814518451691,0.865596055984497
0,0.568055564654484,0.0750000036681839,0.745833336720147,0.580932855606079,0.108123145997524,0.639270484447479
0,0.572222240304247,0.0819444448505077,0.781944477060896,0.77304995059967,0.432187169790268,0.532674491405487
0,0.526388905404577,0.0652777787193518,0.786111152710659,0.830471277236938,0.258090555667877,0.755334854125977
0,0.46527780841297,0.175000000455119,0.884722281926269,0.750753402709961,-0.130419731140137,0.971581161022186
0,0.416666689746791,0.140277788465518,0.84583340644287,0.690583169460297,-0.161879286170006,1.30389189720154
0,0.480555570504907,0.0861111144222878,0.80277780668585,0.746171891689301,-0.191200822591782,1.49845242500305
0,0.52083333787156,0.0152777788063885,0.734722250277972,0.832303881645203,-0.40225476026535,1.61085164546967
0,0.581944483487025,-0.0111111115138517,0.669444477636603,0.740674138069153,-0.379041880369186,1.51647293567657
0,0.608333332021137,0.0152777788063885,0.650000039894903,0.344222575426102,-0.288022965192795,1.38391518592834
0,0.597222245578963,0.0388888906783549,0.690277807261557,-0.0830776765942574,-0.23823744058609,1.37017071247101
0,0.604166704995233,0.0652777787193518,0.801388914802596,-0.148745685815811,0.00122173049021512,1.29136908054352
0,0.565277780887976,0.026388891079988,0.772222233878117,0.0403171069920063,0.294742494821549,1.16766893863678
0,0.529166689171085,-0.00972222266958873,0.636111121062362,-0.164933621883392,0.148745685815811,1.24799764156342
0,0.562499997121468,-0.0152777788063885,0.630555602153203,-0.806036710739136,-0.098960168659687,1.4245377779007
0,0.634722229179108,0.0236111118719664,0.779166693294388,-0.933096647262573,0.0833831056952477,1.26204764842987
0,0.640277796712124,0.0388888906783549,0.840277838909853,-0.770301103591919,0.388510286808014,0.981049597263336
0,0.531944472937593,0.00555555575692586,0.927777833059431,-0.525649547576904,0.949590027332306,0.749837100505829
0,0.495833332596844,-0.0486111125881959,0.940277860008718,0.0311541277915239,1.24860858917236,0.831082165241241
0,0.479166678621653,-0.233333350148112,0.986111194908388,0.715017795562744,0.77152281999588,1.08856189250946
0,0.522222229754814,-0.519444445988306,0.584722267253534,1.01922869682312,1.32649385929108,1.08428585529327
0,0.650000039894903,-0.426388884305712,0.75694447178618,1.23669672012329,1.77517437934876,0.412334054708481
0,0.413888905980283,-0.0638888929140799,0.837500055143345,0.895528435707092,1.77486896514893,0.778853178024292
0,0.401388903342925,-0.00555555575692586,0.769444450111609,-0.177456349134445,1.13834738731384,1.06107294559479
0,0.404166687109433,-0.0916666697993398,0.808333374218867,-2.56593942642212,2.27974915504456,1.26143670082092
0,0.344444457689151,-0.265277790527169,0.87500003874349,-3.3768630027771,1.03175139427185,1.81946218013763
0,0.251388896006557,-0.386111116939059,0.948611114060526,-3.09281063079834,-0.763886988162994,2.7046058177948
0,0.19166667874224,-0.433333343721983,1.09444447005906,-1.85428142547607,-1.5534303188324,3.13068437576294
0,0.204166669223633,-0.368055571080613,1.14166669684199,0.222660377621651,-0.109344877302647,2.64015960693359
0,0.176388892338373,-0.286111120152123,1.09166668629255,1.42881381511688,1.46729826927185,2.138028383255
0,0.143055560076062,-0.330555563168539,0.983333411141879,1.67713057994843,1.51708388328552,1.82343280315399
0,0.180555567988136,-0.370833354847121,0.89722221162784,0.947146534919739,0.367435455322266,1.34146010875702
0,0.227777782615095,-0.330555563168539,0.916666697993398,0.307265222072601,-0.367130011320114,1.12765729427338
0,0.301388906555989,-0.275000009398019,1.05555559457566,0.178983509540558,-0.848491847515106,1.06076753139496
0,0.363888895430851,-0.322222236180943,1.20972230187372,0.416610091924667,-0.694248378276825,0.947146534919739
0,0.316666668647927,-0.347222241455659,1.28333337719076,0.762665271759033,0.0329867228865623,0.861930847167969
0,0.261111114877407,-0.344444457689151,1.2583334205399,0.844521224498749,0.50793445110321,1.00517880916596
0,0.254166679773066,-0.305555557893823,1.16388896697405,0.767857611179352,0.697608113288879,0.986852824687958
0,0.258333331110899,-0.268055574293678,1.01944450285877,0.379041880369186,0.552833020687103,0.804509520530701
0,0.258333331110899,-0.268055574293678,1.01944450285877,-0.0467311926186085,0.162184715270996,0.667981147766113
0,0.212499996211229,-0.230555566381603,0.898611103511094,-0.250454753637314,-0.155159771442413,0.575435042381287
0,0.18333333959868,-0.223611131277262,0.879166714393253,-0.156992360949516,-0.35979962348938,0.523206055164337
0,0.170833336961321,-0.226388890731841,0.915277806110144,0.0803287774324417,-0.491135656833649,0.469755381345749
0,0.17361112072783,-0.262500006760661,0.983333411141879,0.0855211317539215,-0.468228220939636,0.377514719963074
0,0.17361112072783,-0.262500006760661,0.983333411141879,-0.136833816766739,-0.467311918735504,0.358272463083267
0,0.14722222356986,-0.301388906555989,1.03750000009336,-0.233350530266762,-0.349720358848572,0.475558578968048
0,0.138888896582264,-0.295833339022973,1.04166667574312,-0.148745685815811,-0.173485726118088,0.696386396884918
0,0.144444451959316,-0.270833333748257,1.03750000009336,-0.17409659922123,-0.197614908218384,0.823140919208527
0,0.144444451959316,-0.270833333748257,1.03750000009336,-0.279776275157929,-0.236404851078987,0.817032277584076
0,0.204166669223633,-0.252777787889811,1.05277781080915,-0.625526010990143,-0.0894917547702789,0.77304995059967
0,0.25555557165632,-0.298611122789481,1.01944450285877,-0.907134890556335,-0.256257981061935,0.920879364013672
0,0.281944444502361,-0.308333341660331,0.959722249126559,-0.925460875034332,-0.543059229850769,1.10688781738281
0,0.309722233543585,-0.283333336385615,0.904166671044111,-0.84116142988205,-1.03572201728821,1.09589219093323
0,0.381944465601225,-0.279166685047782,0.844444514559616,-0.932485818862915,-1.42270517349243,0.944092214107513
0,0.411111122213775,-0.301388906555989,0.841666730793107,-1.07054138183594,-1.54732167720795,0.870177567005157
0,0.431944451838729,-0.362500003547597,0.825000028194058,-1.08947813510895,-1.49051117897034,0.961196482181549
0,0.416666689746791,-0.380555573717971,0.806944482335612,-0.947146534919739,-0.985631048679352,1.39246737957001
0,0.423611149163062,-0.386111116939059,0.769444450111609,-0.634078145027161,-0.65484756231308,1.52716314792633
0,0.319444452414435,-0.433333343721983,0.701388893703731,-0.0354301854968071,-0.537256002426147,1.81640779972076
0,0.29166668768514,-0.447222262554524,0.693055591028065,0.465784758329391,-0.63438355922699,1.88299214839935
0,0.236111109602691,-0.459722240879953,0.720833380069289,0.648738861083984,-0.524427831172943,1.79166781902313
0,0.177777784221628,-0.477777786738398,0.765277823085705,0.484110713005066,-0.274278491735458,1.53540980815887
0,0.130555557438704,-0.500000008246606,0.781944477060896,0.224187538027763,-0.0363464802503586,1.16186571121216
0,0.0916666697993398,-0.509722251429385,0.772222233878117,-0.0448985956609249,0.22724187374115,0.608421802520752
0,0.0625000010308258,-0.530555581054339,0.73055557462821,-0.134390354156494,0.162490159273148,0.208610475063324
0,0.0722222259796579,-0.568055564654484,0.701388893703731,-0.16951510310173,0.0751364231109619,-0.0571159012615681
0,0.106944444047242,-0.604166704995233,0.690277807261557,-0.156686931848526,0.0128281703218818,-0.181426972150803
0,0.144444451959316,-0.627777818386695,0.720833380069289,-0.115453533828259,0.136528387665749,-0.173485726118088
0,0.158333334323963,-0.648611148011649,0.737500034044481,-0.027488935738802,0.153632611036301,-0.13225232064724
0,0.180555567988136,-0.65833334257057,0.765277823085705,-0.00244346098043024,0.234572261571884,-0.140193566679955
0,0.17361112072783,-0.651388931778157,0.781944477060896,-0.0681114718317986,0.352774679660797,-0.171042263507843
0,0.179166676104882,-0.6319444454126,0.787500044593913,-0.160962998867035,0.466090172529221,-0.260228604078293
0,0.194444450352783,-0.613888899554154,0.794444455386325,-0.20616702735424,0.507629036903381,-0.353996396064758
0,0.202777789496344,-0.601388921228725,0.804166698569104,-0.22204951941967,0.548251569271088,-0.470060795545578
0,0.2194444556275,-0.580555591603771,0.831944487610329,-0.219911485910416,0.456316351890564,-0.729983985424042
0,0.250000004123303,-0.576388915954009,0.870833363093728,-0.347887754440308,0.508850753307343,-0.908356606960297
0,0.250000004123303,-0.576388915954009,0.870833363093728,-0.468839079141617,0.510072469711304,-1.03633284568787
0,0.279166685047782,-0.576388915954009,0.883333390043015,-0.485637873411179,0.533590793609619,-1.12582468986511
0,0.279166685047782,-0.576388915954009,0.883333390043015,-0.445320755243301,0.490219354629517,-1.26418566703796
0,0.279166685047782,-0.576388915954009,0.883333390043015,-0.504269242286682,0.144775062799454,-1.49387097358704
0,0.312500017310094,-0.594444461812454,0.831944487610329,-0.615446746349335,-0.176845490932465,-1.66399693489075
0,0.318055560531181,-0.633333337295854,0.859722228027695,-0.673173487186432,-0.404087364673615,-1.71225523948669
0,0.315277801076602,-0.690277807261557,0.895833319744586,-0.77793687582016,-0.583376288414001,-1.67713057994843
0,0.295833339022973,-0.709722245003256,0.909722238577127,-0.956614971160889,-0.451123982667923,-1.59222030639648
0,0.295833339022973,-0.709722245003256,0.909722238577127,-1.09314334392548,-0.22693644464016,-1.46302223205566
0,0.295833339022973,-0.709722245003256,0.909722238577127,-1.05465888977051,-0.16951510310173,-1.39888143539429
0,0.222222239394008,-0.597222245578963,0.641666688595378,-0.961807310581207,-0.313984721899033,-1.40773892402649
0,0.222222239394008,-0.597222245578963,0.641666688595378,-0.855211317539215,-0.407447129487991,-1.32191240787506
0,0.222222239394008,-0.597222245578963,0.641666688595378,-0.652404069900513,-0.451734840869904,-1.09222710132599
0,0.190277786858986,-0.751388904253164,0.747222228603401,-0.51740288734436,-0.389121174812317,-0.870177567005157
0,0.19166667874224,-0.765277823085705,0.765277823085705,-0.62338799238205,-0.294437050819397,-0.90408056974411
0,0.186111123365188,-0.769444450111609,0.781944477060896,-0.862847149372101,-0.141415297985077,-1.06687617301941
0,0.186111123365188,-0.769444450111609,0.781944477060896,-1.11605083942413,-0.0733038261532784,-1.24524879455566
0,0.186111123365188,-0.769444450111609,0.781944477060896,-1.20157194137573,-0.0106901414692402,-1.41965079307556
0,0.322222236180943,-0.681944455962032,0.58333337537028,-1.19088184833527,-0.17470745742321,-1.42545402050018
0,0.383333357484479,-0.680555564078778,0.558333370095563,-1.12887895107269,-0.233350530266762,-1.18080246448517
0,0.383333357484479,-0.680555564078778,0.558333370095563,-0.923933684825897,-0.171653136610985,-0.926682591438293
0,0.430555559955475,-0.700000001820477,0.577777807837263,-0.751669704914093,-0.177761793136597,-0.707381963729858
0,0.430555559955475,-0.700000001820477,0.577777807837263,-0.644157409667969,0.0271835029125214,-0.48136180639267
0,0.479166678621653,-0.691666699144811,0.581944483487025,-0.622166275978088,0.136528387665749,-0.31703907251358
0,0.523611121638068,-0.666666693870094,0.512500035195893,-0.66737025976181,0.133168622851372,-0.0757472887635231
0,0.523611121638068,-0.666666693870094,0.512500035195893,-0.548251569271088,-0.161268427968025,-0.0729983970522881
0,0.550000018796039,-0.637500012945616,0.483333354271415,-0.649655163288116,-0.64079761505127,-0.310930401086807
0,0.548611126912784,-0.627777818386695,0.490277813687686,-0.911105513572693,-0.886976361274719,-0.578794836997986
0,0.594444461812454,-0.659722234453824,0.498611116363352,-1.10658240318298,-0.954476952552795,-0.525344133377075
0,0.623611142736933,-0.670833369519857,0.513888927079148,-1.27884638309479,-0.385150551795959,-0.198836639523506
0,0.6319444454126,-0.650000039894903,0.519444445988306,-1.83839893341064,-0.707076549530029,-0.272751331329346
0,0.695833374794573,-0.755555579902926,0.473611111088636,-2.37443327903748,-1.37322509288788,-0.709214568138123
0,0.723611115211939,-0.725000007095193,0.408333338447267,-2.66031813621521,-1.1157454252243,-0.904385983943939
0,0.838888947026599,-0.751388904253164,0.320833344297689,-2.7079656124115,-0.890336096286774,-0.855516791343689
0,0.905555562927365,-0.843055622676362,0.177777784221628,-2.56319046020508,-1.78372657299042,-0.72418075799942
0,0.880555606276507,-0.912500022343635,0.111111119697004,-2.34205746650696,-1.9868391752243,-0.727845966815948
0,0.884722281926269,-0.913888914226889,0.12777778582816,-2.23729395866394,-1.18538403511047,-0.868039488792419
0,0.884722281926269,-0.856944444261187,0.00138888893923146,-2.24645686149597,-1.37108707427978,-0.873537302017212
0,0.862500011794203,-0.75694447178618,-0.240277785252453,-2.31701183319092,-2.61572504043579,-0.801760613918304
0,0.823611136310804,-0.654166666920807,-0.288888903918631,-2.39856243133545,-3.00515151023865,-0.862847149372101
0,0.722222271952543,-0.591666678045946,-0.175000000455119,-2.65726375579834,-2.40192222595215,-1.21165120601654
0,0.598611137462217,-0.595833353695709,-0.0875000002275597,-2.83319306373596,-1.86039006710052,-1.12154853343964
0,0.488888921804431,-0.519444445988306,-0.0750000036681839,-2.72232103347778,-1.88971161842346,-0.687223374843597
0,0.587500002396184,-0.483333354271415,-0.0152777788063885,-2.00058364868164,-1.54915428161621,-0.805731236934662
0,0.747222228603401,-0.529166689171085,0.0944444474878658,-0.0113010071218014,-0.453872889280319,-1.52166533470154
0,0.715277812536273,-0.656944450687316,0.0722222259796579,0.691193997859955,-0.187535628676414,-1.29167461395264
0,0.630555602153203,-0.693055591028065,-0.029166668768514,0.295047909021378,-0.32192599773407,-0.542448341846466
0,0.575000024070755,-0.654166666920807,-0.00555555575692586,-0.272445887327194,-0.00549778714776039,-0.148745685815811
0,0.663888910103586,-0.4194444735133,-0.0750000036681839,-0.746171891689301,0.152410879731178,-0.541226625442505
0,0.536111148587356,-0.384722225055805,-0.113888891307548,-1.04610669612884,0.875980734825134,-0.507323563098907
0,0.640277796712124,-0.384722225055805,-0.112499999424294,-1.21989786624908,1.25929868221283,0.0662788823246956
0,0.768055606852213,-0.548611126912784,-0.158333334323963,-0.326202034950256,-0.321315109729767,0.533590793609619
0,0.841666730793107,-0.579166699720517,-0.161111118090472,0.111482910811901,-0.624609708786011,0.388510286808014
0,1.01944450285877,-0.488888921804431,-0.230555566381603,0.164322748780251,-0.163101017475128,-0.120645888149738
0,1.03750000009336,-0.443055586904762,-0.408333338447267,-0.310624986886978,-0.295658767223358,-0.410501450300217
0,1.01666671909226,-0.377777789951463,-0.408333338447267,-0.969443142414093,-1.13865280151367,-0.876591622829437
0,0.983333411141879,-0.300000014672736,-0.309722233543585,-0.880256831645966,-0.64537912607193,-1.16736352443695
0,0.959722249126559,-0.281944444502361,-0.279166685047782,-0.773660838603973,-0.279470860958099,-1.59283113479614
0,1.00972225967599,-0.325000019947452,-0.193055558469529,-0.392786353826523,0.106901414692402,-2.35152578353882
0,1.06250005399193,-0.372222246730376,-0.177777784221628,0.379347324371338,1.12643551826477,-2.77424454689026
0,1.147222264375,-0.269444466176932,-0.375000006184955,0.490524798631668,1.32527220249176,-2.63374543190002
0,1.11805563207438,-0.634722229179108,-0.433333343721983,-0.463952153921127,-0.127670839428902,-2.16063046455383
0,1.19027781550816,-0.47500000297189,-0.254166679773066,-0.16401731967926,0.356745302677154,-0.620639085769653
0,1.05555559457566,-0.302777798439244,-0.322222236180943,1.27059972286224,-0.605062007904053,0.143553331494331
0,0.976388951725609,-0.33750002258481,-0.401388903342925,0.329256355762482,-0.340251952409744,-0.329867243766785
0,0.969444492309338,-0.25555557165632,-0.441666695021508,-0.0525344125926495,-0.573907911777496,-0.764497876167297
0,0.99583334084345,-0.284722228268869,-0.404166687109433,-0.239459171891212,-0.518624603748322,-1.21989786624908
0,0.913888914226889,-0.234722242031366,-0.413888905980283,0.0690277740359306,0.199142068624496,-1.11941051483154
0,0.788888936477167,-0.113888891307548,-0.394444468238583,0.129197999835014,0.346055150032044,-1.26449108123779
0,0.788888936477167,-0.113888891307548,-0.394444468238583,-0.00397062394768,0.250760197639465,-1.70706295967102
0,0.901388887277602,-0.243055569018962,-0.423611149163062,-0.423940479755402,0.146607652306557,-1.67682504653931
0,1.06527783775844,-0.223611131277262,-0.452777781463682,-0.140499010682106,1.04824471473694,-0.441350132226944
0,1.2430556098241,-0.338888890156135,-0.390277792588821,0.196393176913261,1.37963914871216,-0.444709897041321
0,1.05833337834217,-0.176388892338373,-0.390277792588821,0.0791070461273193,1.27395951747894,-0.707381963729858
0,0.945833330294018,-0.16527778158427,-0.269444466176932,-0.0470366254448891,0.529925584793091,-0.920573949813843
0,0.848611190209378,-0.052777782159976,-0.222222239394008,-0.0723875313997269,0.281914323568344,-1.27915179729462
0,0.881944498159761,-0.0819444448505077,-0.159722226207217,-0.130419731140137,0.0412334054708481,-1.34146010875702
0,0.975000059842355,-0.0763888894734557,-0.143055560076062,0.00152716308366507,-0.384234249591827,-1.37841737270355
0,1.01944450285877,-0.0347222241455659,-0.162500009973726,0.112704634666443,-0.751364231109619,-1.15239727497101
0,1.01944450285877,0.0388888906783549,-0.224999998848587,0.0222965814173222,-0.718377530574799,-0.796873688697815
0,1.02222228662528,0.0694444482911319,-0.326388911830706,-0.0177150927484035,-0.647517144680023,-0.500909507274628
0,1.06388894587519,0.0750000036681839,-0.373611114301701,-0.0748309940099716,-0.538783133029938,0.102319926023483
0,1.04861113515939,0.0347222241455659,-0.334722238818301,-0.0574213340878487,-0.300545692443848,0.106290549039841
0,1.00277780025972,0.00277777787846293,-0.383333357484479,-0.0623082555830479,0.019547687843442,0.0369573459029198
0,0.916666697993398,0.0666666706026059,-0.205555561106887,0.0901026204228401,-0.173791155219078,0.0342084541916847
0,0.962500032893068,0.0250000007162294,-0.358333352209763,0.165849909186363,-0.772133648395538,0.0122173046693206
0,1.05277781080915,0.00972222266958873,-0.441666695021508,-0.037568211555481,-0.488386750221252,-0.0308486949652433
0,1.05277781080915,0.00972222266958873,-0.441666695021508,-0.0711658000946045,0.021685715764761,-0.0879645943641663
0,0.958333357243305,0.0194444453391775,-0.472222219205382,0.288633823394775,3.17894268035889,-0.251065611839294
0,0.825000028194058,0.111111119697004,-0.141666668192807,-0.194866016507149,1.79319489002228,0.11117747426033
0,0.825000028194058,0.111111119697004,-0.141666668192807,-0.064446285367012,-0.849102675914764,-0.221438646316528
0,0.777777801411134,0.0513888902767219,-0.390277792588821,0.222965821623802,0.395535260438919,-0.156381502747536
0,0.669444477636603,0.0833333367337618,-0.336111130701556,0.193949714303017,1.13193333148956,0.958142161369324
0,0.669444477636603,0.0833333367337618,-0.336111130701556,-0.312152147293091,1.78708624839783,2.58273816108704
0,1.37777783075661,-0.0916666697993398,-0.2194444556275,-0.129503428936005,0.916603326797485,0.0812450796365738
0,1.18472224797515,0.00138888893923146,-0.24583335278547,0.0626136884093285,0.401949346065521,0.110261179506779
0,1.18472224797515,0.00138888893923146,-0.24583335278547,-0.168598800897598,0.648738861083984,0.208915919065475
0,0.961111141009813,-0.0194444453391775,-0.213888888094483,-0.0342084541916847,0.535117983818054,-0.23823744058609
0,0.888888957576031,-0.0180555564949145,-0.200000005729836,-0.135306656360626,0.456927210092545,-0.523206055164337
0,0.926388941176177,-0.026388891079988,-0.200000005729836,-0.143553331494331,0.482888966798782,-0.540615737438202
0,1.02916674604155,-0.026388891079988,-0.190277786858986,-0.167987942695618,0.279470860958099,-0.0980438739061356
0,0.890277849459286,-0.00833333382532574,-0.12916666555545,-0.122783914208412,0.509156167507172,0.163406446576118
0,0.956944465360051,0.0388888906783549,-0.213888888094483,-0.226325571537018,1.34909594058991,0.337197601795196
0,0.926388941176177,0.0819444448505077,-0.208333344873396,-0.403171062469482,1.41262590885162,0.414472073316574
0,0.990277773310434,-0.00555555575692586,-0.0694444482911319,-0.543975472450256,0.504269242286682,-0.00916297826915979
0,0.898611103511094,0.00555555575692586,-0.00555555575692586,-0.465784758329391,0.152716308832169,0.225714713335037
0,1.13472223742571,-0.0486111125881959,0.00138888893923146,-0.304210901260376,-0.194560587406159,-0.121867619454861
0,1.11805563207438,-0.0388888906783549,-0.0250000007162294,-0.226020142436027,-0.328034639358521,-0.210137650370598
0,1.23055558287482,-0.0388888906783549,-0.0472222237439329,0.0171042270958424,0.153632611036301,0.0409279726445675
0,1.09583336194232,-0.0513888902767219,-0.12777778582816,0.0565050356090069,0.272140473127365,0.0311541277915239
0,1.06805562152495,-0.0458333348996699,-0.111111119697004,0.0152716310694814,0.335670441389084,0.0671951770782471
0,1.02777785415829,-0.0513888902767219,-0.140277788465518,-0.0455094613134861,0.175623759627342,0.0568104684352875
0,1.00555558402623,-0.0652777787193518,-0.0847222225390337,-0.0464257597923279,0.16371189057827,-0.0265726372599602
0,1.02083339474202,-0.0750000036681839,-0.026388891079988,0.0167987942695618,0.182954147458077,-0.0623082555830479
0,1.01388893532575,-0.0486111125881959,-0.0138888899621255,0.108123145997524,0.221133217215538,-0.0366519130766392
0,0.98888888142718,-0.0416666683668809,-0.03194444645704,0.0910189226269722,0.164933621883392,-0.0262672062963247
0,1.00833336779274,-0.0152777788063885,-0.055555559848502,-0.0180205255746841,0.0894917547702789,-0.0604756586253643
0,1.0305556379248,0.00833333382532574,-0.0722222259796579,-0.0574213340878487,-0.0293215326964855,-0.0308486949652433
0,1.02916674604155,0.0250000007162294,-0.0750000036681839,-0.0583376325666905,-0.0849102661013603,-0.0280998013913631
0,1.04166667574312,0.030555557612777,-0.0611111152255539,-0.0729983970522881,-0.0659734457731247,-0.00824668072164059
0,1.03888889197661,0.026388891079988,-0.0638888929140799,-0.0378736443817616,-0.19578230381012,-0.00122173049021512
0,1.04861113515939,0.0222222230277034,-0.0472222237439329,-0.0510072484612465,-0.43860125541687,-0.0149661982432008
0,1.02638896227504,-0.00277777787846293,-0.030555557612777,-0.119118720293045,-0.538783133029938,-0.0235183127224445
0,1.04583335139288,-0.0388888906783549,-0.0402777795226179,-0.290160983800888,-0.406530827283859,0.0021380283869803
0,1.01388893532575,-0.0638888929140799,-0.200000005729836,-0.452345728874206,-0.59803706407547,0.04764748737216
0,1.06388894587519,-0.0361111129898289,-0.108333335930496,-0.348498612642288,-0.654542088508606,-0.00824668072164059
0,1.06388894587519,-0.0375000018340919,-0.0458333348996699,-0.155770644545555,-0.281608879566193,-0.0549778714776039
0,1.12222230772414,0.0763888894734557,-0.505555575779623,0.415693789720535,0.792292237281799,-0.150883719325066
0,0.998611124609959,0.0416666683668809,-0.0680555564078778,0.0033597587607801,0.389121174812317,-0.0769690200686455
0,1.00972225967599,0.029166668768514,-0.13750000469901,-0.151189148426056,0.756251156330109,0.00610865233466029
0,1.01666671909226,0.00138888893923146,-0.0861111144222878,-0.152716308832169,0.620639085769653,0.0342084541916847
0,0.968055600426084,-0.0125000003581147,0.0416666683668809,-0.0736092627048492,-0.207999616861343,0.00366519158706069
0,1.01111115155925,-0.0194444453391775,-0.0375000018340919,-0.0879645943641663,-0.03176499158144,-0.0192422550171614
0,1.0333333244436,-0.0152777788063885,-0.0680555564078778,-0.0720821022987366,0.0387899428606033,-0.0308486949652433
0,1.02638896227504,-0.0180555564949145,-0.0763888894734557,-0.0473420582711697,0.00702495034784079,-0.0348193198442459
0,1.02916674604155,-0.00694444498106275,-0.0847222225390337,-0.0125227374956012,0.0320704244077206,-0.0192422550171614
0,1.00972225967599,0.0125000003581147,-0.0666666706026059,0.015577063895762,0.017409659922123,0.0222965814173222
0,1.0125000434425,0.00138888893923146,-0.0652777787193518,0.03176499158144,-0.0265726372599602,0.0232128798961639
0,1.02500007039179,-0.00694444498106275,-0.0513888902767219,0.0271835029125214,-0.0479529201984406,0.00855211354792118
0,1.0361111082101,-0.00555555575692586,-0.0791666671619817,0.0213802829384804,-0.0241291765123606,0.0241291765123606
0,1.0361111082101,-0.00138888893923146,-0.0819444448505077,-0.142026171088219,-0.165239050984383,0.19058994948864
0,1.07083340529146,-0.169444445078067,-0.101388894748172,0.0467311926186085,0.154854342341423,0.0027488935738802
0,1.02638896227504,-0.0250000007162294,-0.101388894748172,0.0717766657471657,0.0980438739061356,0.0113010071218014
0,1.02777785415829,-0.00555555575692586,-0.0833333367337618,0.0387899428606033,0.0797179117798805,0.0253509078174829
0,1.02916674604155,0.00277777787846293,-0.0805555590452358,0.0219911485910416,0.078801617026329,0.0351247526705265
0,1.0333333244436,-0.00277777787846293,-0.0722222259796579,0.0171042270958424,0.10048733651638,0.0326812900602817
0,1.03750000009336,-0.00555555575692586,-0.0847222225390337,0.00916297826915979,0.142942473292351,0.02382374368608
0,1.02916674604155,-0.00277777787846293,-0.0777777813567098,0.013744467869401,0.172263994812965,0.0103847095742822
0,1.02222228662528,-0.00694444498106275,-0.0833333367337618,0.0268780700862408,0.165849909186363,0.00580321997404099
0,1.02361117850853,-0.00277777787846293,-0.0791666671619817,0.0134390350431204,0.152105450630188,0.0021380283869803
0,1.03750000009336,-0.00694444498106275,-0.0708333340964038,-0.0027488935738802,0.154243469238281,0.0100792767480016
0,1.02777785415829,-0.00277777787846293,-0.0625000010308258,-0.0959058403968811,0.154854342341423,-0.00671951752156019
0,1.02777785415829,0.00555555575692586,-0.0583333375370279,-0.070249505341053,0.153632611036301,0.01191187184304
0,1.02222228662528,0.00972222266958873,-0.0486111125881959,-0.0723875313997269,0.17409659922123,0.000305432622553781
0,1.02222228662528,0.00277777787846293,-0.052777782159976,-0.0821613743901253,0.159130394458771,-0.00427605677396059
0,1.03194452980806,0.00277777787846293,-0.0666666706026059,-0.0690277740359306,0.162795588374138,-0.00305432616733015
0,1.0305556379248,0.00277777787846293,-0.0694444482911319,-0.0485637858510017,0.206472456455231,0.0033597587607801
0,1.0305556379248,0.00277777787846293,-0.0694444482911319,-0.105068825185299,0.201585531234741,-0.00122173049021512
0,1.01527782720901,0.0152777788063885,-0.0458333348996699,-0.123700208961964,0.145996794104576,-0.015577063895762
0,1.01666671909226,0.0152777788063885,-0.0375000018340919,-0.16890424489975,0.109955742955208,-0.0113010071218014
0,1.00694447590948,0.0125000003581147,-0.0250000007162294,-0.209221348166466,0.08460483700037,-0.0134390350431204
0,1.00694447590948,0.0125000003581147,-0.0250000007162294,-0.213497400283814,0.0360410511493683,-0.00824668072164059
0,0.998611124609959,0.0138888899621255,-0.00972222266958873,-0.219606056809425,-0.00519235478714108,0.0021380283869803
0,1.00000001649321,0.00555555575692586,-0.0125000003581147,-0.236099421977997,-0.0180205255746841,-0.0149661982432008
0,1.03888889197661,-0.0125000003581147,-0.0138888899621255,-0.250760197639465,0.0268780700862408,-0.0250454749912024
0,1.03888889197661,-0.0208333341834404,-0.0180555564949145,-0.287106662988663,0.0784961804747581,-0.0500909499824047
0,1.02083339474202,-0.00972222266958873,0.0194444453391775,-0.602923989295959,0.201890960335732,0.110566608607769
0,0.980555627375371,-0.00972222266958873,0.0458333348996699,-0.432187169790268,0.16401731967926,0.00824668072164059
0,1.09305557817581,-0.0166666676506515,0.03194444645704,-0.196087747812271,0.164628177881241,-0.0360410511493683
0,1.05972227022542,-0.0111111115138517,0.033333335301303,-0.183870434761047,0.0803287774324417,-0.0265726372599602
0,1.01111115155925,0.0166666676506515,-0.00277777787846293,-0.288633823394775,0.0204639863222837,0.00824668072164059
0,0.962500032893068,0.0125000003581147,-0.0138888899621255,-0.116675265133381,-0.0290160998702049,-0.00305432616733015
0,0.987499989543926,-0.00972222266958873,0.00833333382532574,0.0412334054708481,-0.255647093057633,-0.0604756586253643
0,1.03888889197661,-0.0208333341834404,0.00277777787846293,-0.0665843114256859,-0.156076073646545,-0.05283984541893
0,1.07361118905796,-0.0166666676506515,-0.0347222241455659,-0.106901414692402,0.143858760595322,-0.0100792767480016
0,1.04583335139288,-0.00555555575692586,0.0152777788063885,-0.294437050819397,-0.109039448201656,0.0109955742955208
0,1.00277780025972,-0.00972222266958873,0.0125000003581147,-0.271529614925385,-0.248927593231201,0.00763581553474069
0,0.98888888142718,-0.00972222266958873,0.00138888893923146,-0.128281697630882,-0.332310706377029,-0.0455094613134861
0,1.00555558402623,0.00277777787846293,-0.0125000003581147,-0.0452040284872055,-0.375376701354981,-0.0659734457731247
0,1.0125000434425,-0.00833333382532574,-0.0236111118719664,-0.00519235478714108,-0.355218142271042,-0.0684169083833694
0,1.04166667574312,-0.00555555575692586,-0.0652777787193518,-0.11087204515934,-0.214719131588936,-0.0891863256692886
0,1.04861113515939,-0.0125000003581147,-0.0583333375370279,-0.146607652306557,-0.204639852046967,-0.0687223374843597
0,1.02916674604155,-0.00833333382532574,-0.0611111152255539,-0.136222943663597,-0.107817716896534,-0.0992656052112579
0,1.01388893532575,0.0111111115138517,-0.13750000469901,-0.219911485910416,-0.193644285202026,-0.0842994004487991
0,1.01805561097552,0.0125000003581147,-0.0875000002275597,-0.394618958234787,0.00488692196086049,-0.0403171069920063
0,1.00972225967599,0.03194444645704,-0.0833333367337618,-0.230296194553375,0.183565005660057,-0.00763581553474069
0,1.00694447590948,0.0486111125881959,-0.0875000002275597,0.019547687843442,0.215024560689926,0.0723875313997269
0,0.98888888142718,0.0194444453391775,-0.0180555564949145,-0.0494800843298435,-0.680809319019318,-0.0354301854968071
0,1.07222229717471,0.00416666691266287,-0.0750000036681839,-0.0610865242779255,-0.381485342979431,-0.0907134860754013
0,1.05694448645892,-0.0222222230277034,-0.0777777813567098,0.00122173049021512,-0.205861583352089,-0.170125976204872
0,0.997222232726705,-0.00972222266958873,-0.106944444047242,-0.0934623852372169,-0.148745685815811,-0.13225232064724
0,0.975000059842355,-0.00694444498106275,-0.0472222237439329,-0.255952537059784,-0.979522407054901,-0.070249505341053
0,0.959722249126559,-0.00277777787846293,-0.0138888899621255,-0.452651143074036,-1.21959245204925,-0.0726929605007172
0,1.08055555122652,0.029166668768514,-0.193055558469529,-0.351552963256836,-0.574213325977325,-0.0247400421649218
0,1.06250005399193,0.0347222241455659,-0.190277786858986,-0.35979962348938,-0.0537561401724815,-0.0366519130766392
0,0.983333411141879,0.0208333341834404,-0.0888888921108138,-0.327118337154388,-0.245262399315834,-0.00946841109544039
0,0.983333411141879,0.0208333341834404,-0.0888888921108138,-0.265115529298782,-0.336892187595367,-0.00183259579353034
0,1.02500007039179,0.00833333382532574,-0.140277788465518,-0.1795943826437,-0.282219737768173,0.00641408516094089
0,1.01527782720901,0.0194444453391775,-0.148611115453114,-0.145996794104576,-0.261450320482254,-0.0271835029125214
0,1.00416669214298,0.027777779924251,-0.126388893944906,-0.154854342341423,-0.234572261571884,-0.0250454749912024
0,0.98888888142718,0.033333335301303,-0.134722233088466,-0.134390354156494,-0.348193198442459,0.00549778714776039
0,0.975000059842355,0.0236111118719664,-0.136111112815755,-0.142942473292351,-0.472198843955994,0.01191187184304
0,0.975000059842355,0.0236111118719664,-0.136111112815755,-0.115453533828259,-0.416915535926819,-0.0247400421649218
0,1.03194452980806,0.0180555564949145,-0.18333333959868,-0.0830776765942574,-0.276111096143722,-0.0235183127224445
0,1.03194452980806,0.0180555564949145,-0.18333333959868,-0.0561996027827263,-0.12675453722477,-0.00610865233466029
0,1.0361111082101,0.03194444645704,-0.193055558469529,-0.0177150927484035,-0.0461203269660473,0.0320704244077206
0,1.02500007039179,0.0361111129898289,-0.17361112072783,0.0027488935738802,-0.114537231624126,0.0021380283869803
0,1.01666671909226,0.03194444645704,-0.168055565350778,-0.0287106670439243,-0.0558941699564457,0.0134390350431204
0,1.01944450285877,0.03194444645704,-0.193055558469529,-0.0436768643558025,-0.0519235469400883,0.0271835029125214
0,1.00138890837647,0.03194444645704,-0.181944447715425,-0.0870482996106148,-0.0436768643558025,0.0354301854968071
0,1.01527782720901,0.033333335301303,-0.184722231481934,-0.104763388633728,-0.0381790772080422,0.021685715764761
0,1.00555558402623,0.0361111129898289,-0.163888889701015,-0.0916297882795334,-0.0824668109416962,0.00610865233466029
0,1.00416669214298,0.0361111129898289,-0.175000000455119,-0.0418442711234093,-0.150578290224075,-0.0198531206697226
0,0.994444448960196,0.0222222230277034,-0.176388892338373,-0.0140499006956816,-0.32284227013588,-0.0287106670439243
0,1.00000001649321,0.0194444453391775,-0.17361112072783,0.0204639863222837,-0.381485342979431,-0.0397062413394451
0,1.01527782720901,0.0250000007162294,-0.180555567988136,0.0433714315295219,-0.470060795545578,-0.0363464802503586
0,1.00972225967599,0.0388888906783549,-0.195833342236038,0.0125227374956012,-0.487165033817291,-0.00488692196086049
0,1.00000001649321,0.0402777795226179,-0.216666671860991,0.021685715764761,-0.462424993515015,0.00610865233466029
0,1.01527782720901,0.033333335301303,-0.243055569018962,0.0314595587551594,-0.289550125598908,-0.0152716310694814
0,1.04027778385987,0.0388888906783549,-0.270833333748257,0.00305432616733015,-0.0824668109416962,-0.0045814891345799
0,1.02500007039179,0.0222222230277034,-0.272222225631511,0.0354301854968071,0.0128281703218818,-0.0033597587607801
0,1.01944450285877,0.0222222230277034,-0.265277790527169,0.0913243517279625,-0.0949895456433296,0.00946841109544039
0,1.00277780025972,0.0208333341834404,-0.261111114877407,0.0699440687894821,-0.0806342139840126,0.02382374368608
0,1.01527782720901,0.029166668768514,-0.263888898643915,0.0204639863222837,0.00733038317412138,0.0390953756868839
0,1.00972225967599,0.030555557612777,-0.258333331110899,0.0140499006956816,0.0366519130766392,0.0552833043038845
0,0.983333411141879,0.026388891079988,-0.226388890731841,0.0711658000946045,-0.100792765617371,0.027488935738802
0,0.976388951725609,0.029166668768514,-0.240277785252453,0.110566608607769,-0.186619326472282,-0.000610865245107561
0,0.98888888142718,0.026388891079988,-0.248611112240049,0.123089343309402,-0.249233022332191,-0.00397062394768
0,0.993055557076942,0.0347222241455659,-0.258333331110899,0.105068825185299,-0.245262399315834,0.0146607663482428
0,1.00277780025972,0.0375000018340919,-0.288888903918631,0.0714712366461754,-0.0806342139840126,0.00183259579353034
0,1.00416669214298,0.0388888906783549,-0.305555557893823,0.08460483700037,0.183870434761047,-0.00122173049021512
0,1.00555558402623,0.0388888906783549,-0.293055555256465,0.132863193750381,0.36529740691185,0.00610865233466029
0,0.894444525109048,0.0708333340964038,-0.162500009973726,0.268475264310837,-1.39888143539429,0.0265726372599602
0,1.07222229717471,0.0763888894734557,-0.473611111088636,-0.0177150927484035,1.0100656747818,0.122478485107422
0,1.02777785415829,0.026388891079988,-0.315277801076602,0.00946841109544039,0.855211317539215,0.0714712366461754
0,1.02361117850853,0.0361111129898289,-0.279166685047782,-0.0302378293126821,0.951117157936096,0.0626136884093285
0,1.03194452980806,0.00277777787846293,-0.258333331110899,-0.0259617734700441,1.05862951278687,0.0326812900602817
0,1.03194452980806,0.00555555575692586,-0.24583335278547,-0.000305432622553781,1.24708139896393,0.0745255574584007
0,1.0361111082101,0.0152777788063885,-0.194444450352783,0.0797179117798805,1.3023647069931,0.0858265683054924
0,1.00972225967599,0.0388888906783549,-0.220833347510754,0.302378296852112,1.65330684185028,0.133779495954514
0,0.936111184358955,0.0583333375370279,-0.118055554801345,-0.209526777267456,0.397367835044861,0.107512280344963
0,0.940277860008718,0.0111111115138517,-0.0458333348996699,-0.207999616861343,-0.0177150927484035,0.0473420582711697
0,0.994444448960196,0.00972222266958873,-0.0819444448505077,-0.113620936870575,0.143553331494331,0.0335975885391235
0,1.0361111082101,0.00555555575692586,-0.105555564319952,-0.0171042270958424,0.295353353023529,-0.02382374368608
0,1.0361111082101,0.00416666691266287,-0.0944444474878658,0.0363464802503586,0.188451930880547,-0.0201585534960032
0,1.02638896227504,0.00277777787846293,-0.0680555564078778,-0.000916297896765172,0.0152716310694814,0.0177150927484035
0,1.0333333244436,0.00138888893923146,-0.101388894748172,-0.0332921557128429,0.166460782289505,0.0262672062963247
0,1.02500007039179,0.0194444453391775,-0.111111119697004,-0.0268780700862408,0.285884946584701,0.0326812900602817
0,1.01388893532575,0.0194444453391775,-0.100000002864918,0.0421497002243996,0.272140473127365,-0.00519235478714108
0,0.998611124609959,0.00833333382532574,-0.0583333375370279,0.0311541277915239,0.124311074614525,0.00427605677396059
0,1.00972225967599,0.0180555564949145,-0.0708333340964038,-0.0183259565383196,0.0452040284872055,0.013744467869401
0,1.01527782720901,0.0152777788063885,-0.0722222259796579,-0.0308486949652433,0.0146607663482428,0.00916297826915979
0,1.02777785415829,0.00833333382532574,-0.0611111152255539,0.0305432621389627,-0.0922406539320946,-0.0045814891345799
0,1.02777785415829,0.00972222266958873,-0.0777777813567098,0.0558941699564457,-0.12156218290329,-0.0183259565383196
0,1.03472221632685,0.00972222266958873,-0.0944444474878658,-0.00977384392172098,0.0290160998702049,-0.019547687843442
0,1.03888889197661,0.00972222266958873,-0.0916666697993398,-0.0357356183230877,0.0952949747443199,-0.0125227374956012
0,1.03888889197661,0.0125000003581147,-0.0861111144222878,-0.00794124789535999,0.162795588374138,-0.021685715764761
0,1.00694447590948,0.0125000003581147,-0.052777782159976,0.0232128798961639,-0.00610865233466029,-0.0403171069920063
0,1.00277780025972,0.00972222266958873,-0.0583333375370279,0.0406225398182869,-0.017409659922123,-0.021685715764761
0,1.00694447590948,0.00972222266958873,-0.0680555564078778,0.0543670058250427,-0.0568104684352875,-0.0204639863222837
0,1.01527782720901,0.0111111115138517,-0.0652777787193518,0.0833831056952477,-0.134084925055504,-0.0177150927484035
0,1.0333333244436,0.0208333341834404,-0.123611110178398,0.0607810914516449,-0.187535628676414,-0.0106901414692402
0,1.04166667574312,0.0194444453391775,-0.112499999424294,0.0406225398182869,0.0604756586253643,0.00397062394768
0,1.02916674604155,0.0152777788063885,-0.0930555616825939,0.0525344125926495,0.02382374368608,0.0152716310694814
0,1.02638896227504,0.0152777788063885,-0.0916666697993398,0.0714712366461754,0.00305432616733015,0.00824668072164059
0,1.02777785415829,0.0194444453391775,-0.101388894748172,0.0531452745199203,0.0320704244077206,0.00946841109544039
0,1.01666671909226,-0.00138888893923146,-0.0986111170596459,0.0503963828086853,0.0415388382971287,0.0106901414692402
0,1.0125000434425,0.00833333382532574,-0.0916666697993398,0.0305432621389627,0.00794124789535999,0.00305432616733015
0,1.01388893532575,0.00277777787846293,-0.0847222225390337,0.0433714315295219,-0.029626963660121,0.00885754637420177
0,1.0333333244436,0.00416666691266287,-0.125000002061652,0.0626136884093285,-0.00946841109544039,0.00763581553474069
0,1.03888889197661,0.00416666691266287,-0.104166672436698,0.101403631269932,0.166460782289505,-0.00916297826915979
0,1.03194452980806,-0.00833333382532574,-0.0930555616825939,0.146302223205566,0.19028452038765,-0.0452040284872055
0,1.01666671909226,0.0138888899621255,-0.0819444448505077,0.0387899428606033,-0.0739146918058395,-0.013744467869401
0,1.01805561097552,0.0166666676506515,-0.0652777787193518,-0.0332921557128429,-0.181121543049812,-0.00580321997404099
0,1.02361117850853,0.0125000003581147,-0.0861111144222878,-0.00580321997404099,-0.215024560689926,-0.000305432622553781
0,1.02500007039179,0.0208333341834404,-0.10972222781375,0.0415388382971287,-0.00641408516094089,0.00366519158706069
0,1.01944450285877,0.0194444453391775,-0.0972222251763917,0.0534507073462009,-0.0430659987032413,0.00183259579353034
0,1.04166667574312,0.027777779924251,-0.102777780553444,0.0409279726445675,-0.0397062413394451,0.0387899428606033
0,1.0513889189259,0.0125000003581147,-0.0986111170596459,-0.0329867228865623,0.0418442711234093,-0.0335975885391235
0,1.02500007039179,0.00972222266958873,-0.0888888921108138,-0.00122173049021512,0.0268780700862408,-0.0177150927484035
0,0.990277773310434,0.00833333382532574,-0.0750000036681839,-0.0335975885391235,-0.0803287774324417,-0.029626963660121
0,1.02361117850853,0.0208333341834404,-0.113888891307548,-0.159130394458771,-0.0021380283869803,0.00122173049021512
0,1.02361117850853,0.00972222266958873,-0.0750000036681839,-0.04764748737216,-0.0784961804747581,-0.00641408516094089
0,1.02500007039179,0.0125000003581147,-0.0902777839940679,-0.0613919571042061,-0.0326812900602817,-0.00855211354792118
0,1.02222228662528,0.0152777788063885,-0.0916666697993398,-0.0653625801205635,-0.0213802829384804,0.00916297826915979
0,1.02361117850853,0.0250000007162294,-0.0972222251763917,-0.0723875313997269,-0.0106901414692402,0.00946841109544039
0,1.02777785415829,0.0180555564949145,-0.104166672436698,-0.0797179117798805,-0.00763581553474069,-0.0171042270958424
0,1.02500007039179,0.0236111118719664,-0.106944444047242,-0.04764748737216,-0.0186313893646002,0.0241291765123606
0,1.03888889197661,0.030555557612777,-0.104166672436698,-0.0461203269660473,0.135306656360626,0.0329867228865623
0,1.01805561097552,0.026388891079988,-0.0916666697993398,-0.0363464802503586,0.0916297882795334,0.0271835029125214
0,1.01111115155925,0.0250000007162294,-0.0972222251763917,-0.0470366254448891,0.0418442711234093,0.0345138870179653
0,1.00138890837647,0.0250000007162294,-0.123611110178398,-0.171958565711975,0.127670839428902,-0.150883719325066
0,0.997222232726705,0.0250000007162294,-0.0986111170596459,-0.142942473292351,0.191200822591782,-0.0739146918058395
0,1.00416669214298,0.0180555564949145,-0.0805555590452358,-0.0723875313997269,-0.0348193198442459,-0.0742201283574104
0,1.00416669214298,0.0180555564949145,-0.0805555590452358,-0.0436768643558025,0.0959058403968811,0.0290160998702049
0,1.0361111082101,0.0458333348996699,-0.0986111170596459,-0.0259617734700441,0.172874867916107,0.0555887371301651
0,1.02916674604155,0.0250000007162294,-0.0819444448505077,-0.0830776765942574,0.123700208961964,0.0045814891345799
0,1.02916674604155,0.0250000007162294,-0.0819444448505077,-0.0458148941397667,0.00152716308366507,-0.0226020142436027
0,1.01527782720901,0.029166668768514,-0.0583333375370279,-0.115453533828259,-0.0800233483314514,0.01588249579072
0,0.99583334084345,0.0166666676506515,-0.0777777813567098,-0.0320704244077206,-0.202196389436722,0.0149661982432008
0,0.99583334084345,0.0166666676506515,-0.0777777813567098,-0.0497855171561241,0.0751364231109619,0.01588249579072
0,1.03888889197661,0.0152777788063885,-0.14583334384257,0.00855211354792118,0.0510072484612465,0.0177150927484035
0,1.02361117850853,0.03194444645704,-0.0833333367337618,0.0442877300083637,-0.0757472887635231,0.0207694191485643
0,1.02361117850853,0.03194444645704,-0.0833333367337618,0.0885754600167274,-0.120951317250729,0.0100792767480016
0,1.02916674604155,0.0402777795226179,-0.0833333367337618,0.0656680166721344,0.207694187760353,0.0253509078174829
0,1.00277780025972,0.0375000018340919,-0.0652777787193518,0.00305432616733015,0.0830776765942574,0.0250454749912024
0,1.00277780025972,0.0375000018340919,-0.0652777787193518,-0.0464257597923279,-0.150883719325066,0.0394008085131645
0,1.00416669214298,0.0347222241455659,-0.0694444482911319,0.109039448201656,-0.617890179157257,0.0696386396884918
0,1.00277780025972,0.0222222230277034,-0.0986111170596459,0.076052725315094,-0.657596409320831,0.0607810914516449
0,1.0125000434425,0.0208333341834404,-0.14722222356986,0.0748309940099716,-0.638659596443176,0.0616973899304867
0,1.0125000434425,0.0208333341834404,-0.14722222356986,0.0229074470698834,-0.448375076055527,0.04764748737216
0,1.01944450285877,0.0236111118719664,-0.200000005729836,-0.0360410511493683,0.129197999835014,0.0540615729987621
0,1.07916665934326,0.030555557612777,-0.211111128639904,-0.0839939713478088,0.434630632400513,0.0623082555830479
0,1.04305556762637,0.0208333341834404,-0.144444451959316,-0.00794124789535999,0.341779112815857,0.0430659987032413
0,1.02361117850853,-0.00972222266958873,-0.0819444448505077,0.106595985591412,0.0736092627048492,0.0409279726445675
0,1.00972225967599,-0.0152777788063885,-0.0847222225390337,-0.0815505087375641,0.189368233084679,0.00733038317412138
0,1.01944450285877,-0.0125000003581147,-0.115277783190802,-0.278859972953796,0.475253164768219,0.01588249579072
0,0.986111194908388,0.00694444498106275,-0.0138888899621255,-0.171042263507843,-0.364075690507889,-0.02382374368608
0,0.99583334084345,0.00277777787846293,-0.0500000014324589,-0.0595593601465225,-0.171958565711975,-0.0653625801205635
0,0.997222232726705,0.0111111115138517,-0.140277788465518,0.124311074614525,-0.574518740177155,-0.0977384373545647
0,0.998611124609959,-0.00972222266958873,-0.133333341205212,0.384845107793808,-0.384539663791656,-0.0372627787292004
0,1.10138892947533,0.00972222266958873,-0.15555556271342,0.155465200543404,0.116675265133381,0.0467311926186085
0,1.07361118905796,0.0166666676506515,-0.0652777787193518,0.108428582549095,-0.168598800897598,0.0620028227567673
0,1.00972225967599,0.0194444453391775,-0.0833333367337618,0.10567969083786,-0.136222943663597,-0.0128281703218818
0,1.04583335139288,0.030555557612777,-0.14722222356986,0.0897971913218498,0.157908663153648,-0.0222965814173222
0,1.04166667574312,0.0152777788063885,-0.138888896582264,0.0613919571042061,0.525649547576904,-0.0601702257990837
0,1.11388895642462,-0.00416666691266287,-0.17361112072783,0.267253547906876,0.874148190021515,-0.0748309940099716
0,1.07222229717471,-0.00416666691266287,-0.13750000469901,0.413861215114594,0.749226212501526,-0.0488692186772823
0,0.969444492309338,0.03194444645704,-0.13750000469901,0.0986547395586967,0.327118337154388,-0.0363464802503586
0,0.936111184358955,0.0736111117849297,-0.0250000007162294,-0.104763388633728,-0.149967417120934,-0.011606439948082
0,0.918055589876652,0.0736111117849297,-0.029166668768514,-0.10598511993885,-0.497244298458099,0.00946841109544039
0,0.984722303025134,0.0430555572111439,-0.0847222225390337,-0.0445931628346443,-0.313679307699203,-0.00916297826915979
0,1.05000002704265,0.0166666676506515,-0.0861111144222878,-0.0403171069920063,-0.162184715270996,-0.0241291765123606
0,1.05694448645892,0.0194444453391775,-0.0583333375370279,-0.100792765617371,-0.0626136884093285,-0.0140499006956816
0,1.07777786470773,0.0416666683668809,-0.0666666706026059,-0.312763005495071,0.131030589342117,0.013744467869401
0,0.968055600426084,0.0819444448505077,-0.0444444460554069,-0.575435042381287,-0.268475264310837,0.0870482996106148
0,0.929166724942685,0.0402777795226179,-0.0819444448505077,-0.616057574748993,-0.589179515838623,0.0277943685650826
0,1.00277780025972,0.0402777795226179,-0.14583334384257,-0.518930017948151,-0.445931643247604,0.0314595587551594
0,1.04305556762637,0.0402777795226179,-0.17361112072783,-0.22235494852066,-0.276416510343552,0.0699440687894821
0,1.02500007039179,0.0416666683668809,-0.161111118090472,-0.140499010682106,-0.389732033014297,0.00671951752156019
0,1.02222228662528,0.0416666683668809,-0.17361112072783,-0.149356558918953,-0.321009695529938,0.00580321997404099
0,1.03194452980806,0.0388888906783549,-0.18333333959868,-0.177456349134445,-0.122173048555851,0.0250454749912024
0,1.04027778385987,0.0430555572111439,-0.19166667874224,-0.263893783092499,-0.0461203269660473,0.0678060427308083
0,1.03472221632685,0.0416666683668809,-0.176388892338373,-0.29596421122551,0.0412334054708481,0.12156218290329
0,1.03472221632685,0.0347222241455659,-0.169444445078067,-0.3378084897995,0.209221348166466,0.159741267561913
0,1.05833337834217,-0.00972222266958873,-0.156944454596674,-0.356134444475174,0.495717138051987,0.173180297017098
0,1.06527783775844,-0.030555557612777,-0.156944454596674,-0.36041048169136,0.722959041595459,0.171653136610985
0,1.06388894587519,-0.0583333375370279,-0.116666675074056,-0.153938040137291,0.894917607307434,0.0705549344420433
0,1.04861113515939,-0.0736111117849297,-0.0875000002275597,0.0879645943641663,0.739146947860718,0.0140499006956816
0,0.948611114060526,-0.0541666679652478,-0.0680555564078778,0.140499010682106,0.212275668978691,0.0516181141138077
0,0.952777789710289,-0.0500000014324589,-0.0625000010308258,0.201585531234741,0.0815505087375641,0.0516181141138077
0,1.00000001649321,-0.0361111129898289,-0.0583333375370279,0.220522359013557,0.0616973899304867,0.03176499158144
0,1.02222228662528,-0.00833333382532574,-0.0625000010308258,0.201585531234741,0.0531452745199203,0.0125227374956012
0,1.02222228662528,0.00694444498106275,-0.0569444456537738,0.202807262539864,0.0421497002243996,0.0103847095742822
0,1.0125000434425,0.0166666676506515,-0.0638888929140799,0.186008468270302,0.0427605658769607,0.01191187184304
0,1.00555558402623,0.00555555575692586,-0.0833333367337618,0.152716308832169,0.0390953756868839,0.0103847095742822
0,1.00277780025972,-0.0166666676506515,-0.0847222225390337,0.117896988987923,-0.0354301854968071,0.00397062394768
0,1.01527782720901,-0.03194444645704,-0.0791666671619817,0.127670839428902,-0.0497855171561241,-0.0106901414692402
0,1.02638896227504,-0.0152777788063885,-0.0791666671619817,0.135917514562607,-0.03176499158144,-0.00183259579353034
0,1.04861113515939,-0.00555555575692586,-0.0875000002275597,0.125532805919647,0.03176499158144,0.021685715764761
0,1.05555559457566,-0.00138888893923146,-0.0875000002275597,0.134695783257484,0.0885754600167274,0.02382374368608
0,1.03472221632685,0.00277777787846293,-0.0819444448505077,0.132863193750381,0.064446285367012,0.0161879286170006
0,1.02083339474202,0.00555555575692586,-0.0777777813567098,0.110566608607769,0.0253509078174829,0.02382374368608
0,1.02500007039179,0.0125000003581147,-0.0805555590452358,0.10598511993885,0.0442877300083637,0.0372627787292004
0,1.0361111082101,0.00833333382532574,-0.0777777813567098,0.0998764708638191,0.0949895456433296,0.0357356183230877
0,1.03194452980806,0.0125000003581147,-0.0902777839940679,0.0662788823246956,0.11636982858181,0.0482583530247212
0,1.02916674604155,0.0138888899621255,-0.0791666671619817,0.0467311926186085,0.122173048555851,0.0372627787292004
0,1.0125000434425,0.0152777788063885,-0.0694444482911319,0.0152716310694814,0.108428582549095,0.0461203269660473
0,1.01111115155925,-0.00138888893923146,-0.052777782159976,0.00824668072164059,0.0626136884093285,0.0259617734700441
0,1.01527782720901,-0.00138888893923146,-0.0694444482911319,0.00488692196086049,0.0363464802503586,0.0232128798961639
0,1.02361117850853,0.00972222266958873,-0.0583333375370279,-0.0186313893646002,0.0351247526705265,0.0241291765123606
0,1.01944450285877,0.00972222266958873,-0.052777782159976,-0.0372627787292004,0.0222965814173222,0.0342084541916847
0,1.02361117850853,0.00138888893923146,-0.0583333375370279,-0.0638354197144508,-0.00152716308366507,0.0329867228865623
0,1.02500007039179,-0.00138888893923146,-0.055555559848502,-0.0583376325666905,0.0122173046693206,0.0241291765123606
0,1.01388893532575,-0.0152777788063885,-0.0444444460554069,-0.0479529201984406,-0.0180205255746841,0.00488692196086049
0,1.00972225967599,-0.0194444453391775,-0.0416666683668809,-0.0186313893646002,-0.0565050356090069,-0.00519235478714108
0,1.00555558402623,-0.0152777788063885,-0.0416666683668809,-0.0241291765123606,-0.113926365971565,-0.0201585534960032
0,1.01111115155925,-0.0180555564949145,-0.0513888902767219,-0.0711658000946045,-0.145385921001434,-0.0400116741657257
0,1.01944450285877,-0.0125000003581147,-0.0472222237439329,-0.0907134860754013,-0.150883719325066,-0.0442877300083637
0,1.03194452980806,0.00972222266958873,-0.0583333375370279,-0.117591559886932,-0.137139245867729,-0.0464257597923279
0,1.02638896227504,0.0250000007162294,-0.0625000010308258,-0.144469633698463,-0.130419731140137,-0.0354301854968071
0,1.02500007039179,0.033333335301303,-0.0583333375370279,-0.150272846221924,-0.117591559886932,-0.0140499006956816
0,1.00972225967599,0.0388888906783549,-0.0569444456537738,-0.153632611036301,-0.145996794104576,-0.0140499006956816
0,1.01388893532575,0.0361111129898289,-0.0680555564078778,-0.147218525409698,-0.175929188728332,-0.0473420582711697
0,1.0305556379248,0.0347222241455659,-0.0875000002275597,-0.113010071218014,-0.182343274354935,-0.0592539273202419
0,1.0305556379248,0.0347222241455659,-0.0875000002275597,-0.124616511166096,-0.120340451598167,-0.0742201283574104
0,1.06527783775844,0.0583333375370279,-0.0958333393711199,-0.136833816766739,-0.100792765617371,-0.0488692186772823
0,1.05833337834217,0.0625000010308258,-0.105555564319952,-0.152105450630188,-0.0109955742955208,-0.00855211354792118
0,1.05833337834217,0.0625000010308258,-0.105555564319952,-0.122783914208412,0.0922406539320946,-0.00427605677396059
0,1.0361111082101,0.0416666683668809,-0.111111119697004,-0.0803287774324417,0.134390354156494,-0.00824668072164059
0,1.03194452980806,0.029166668768514,-0.104166672436698,-0.0494800843298435,0.186313897371292,-0.0387899428606033
0,1.03194452980806,0.029166668768514,-0.104166672436698,-0.0659734457731247,0.190895393490791,-0.0387899428606033
0,1.02500007039179,0.029166668768514,-0.0722222259796579,-0.104763388633728,0.117286130785942,-0.0485637858510017
0,1.00000001649321,0.0402777795226179,-0.0569444456537738,-0.144775062799454,0.0207694191485643,-0.0235183127224445
0,0.987499989543926,0.0416666683668809,-0.0152777788063885,-0.0852157026529312,0.00702495034784079,0.0045814891345799
0,0.990277773310434,0.0250000007162294,-0.0638888929140799,-0.0455094613134861,0.0409279726445675,0.0684169083833694
0,1.01805561097552,0.00277777787846293,-0.0777777813567098,0.0595593601465225,0.0204639863222837,0.0946841165423393
0,1.01805561097552,0.00277777787846293,-0.0777777813567098,0.119424156844616,0.0913243517279625,0.109039448201656
0,1.04027778385987,-0.0138888899621255,-0.0944444474878658,0.1795943826437,0.134084925055504,0.0913243517279625
0,1.02222228662528,-0.0625000010308258,-0.118055554801345,0.198836639523506,0.109650313854218,0.0516181141138077
0,1.02222228662528,-0.0625000010308258,-0.118055554801345,0.22693644464016,-0.000916297896765172,0.0222965814173222
0,1.00277780025972,-0.0777777813567098,-0.12777778582816,0.304821759462357,-0.109039448201656,-0.00366519158706069
0,1.00972225967599,-0.0680555564078778,-0.134722233088466,0.357050746679306,-0.078801617026329,-0.0381790772080422
0,1.01527782720901,-0.0708333340964038,-0.136111112815755,0.417831838130951,-0.11606439948082,-0.0791070461273193
0,1.01666671909226,-0.0777777813567098,-0.136111112815755,0.457843512296677,-0.162184715270996,-0.100181899964809
0,1.01527782720901,-0.0819444448505077,-0.130555557438704,0.446237057447434,-0.170736834406853,-0.128892570734024
0,1.01944450285877,-0.0750000036681839,-0.130555557438704,0.422107875347138,-0.193338856101036,-0.145080491900444
0,1.01944450285877,-0.0750000036681839,-0.120833338567854,0.402560204267502,-0.178678080439568,-0.16951510310173
0,1.00277780025972,-0.0875000002275597,-0.0750000036681839,0.40714168548584,-0.314901024103165,-0.210748508572578
0,0.991666665193688,-0.0902777839940679,-0.0680555564078778,0.440128415822983,-0.461814135313034,-0.231823354959488
0,0.973611167959101,-0.0694444482911319,-0.0736111117849297,0.490830212831497,-0.531452775001526,-0.253814518451691
0,1.00555558402623,-0.029166668768514,-0.104166672436698,0.504880130290985,-0.516486585140228,-0.251981914043427
0,1.01666671909226,-0.0166666676506515,-0.115277783190802,0.423329621553421,-0.45998153090477,-0.242513507604599
0,1.0361111082101,-0.0111111115138517,-0.134722233088466,0.349720358848572,-0.431881725788117,-0.241902634501457
0,1.03194452980806,-0.0208333341834404,-0.150000007336368,0.282830595970154,-0.459676086902618,-0.259006857872009
0,1.00555558402623,-0.0222222230277034,-0.14722222356986,0.241902634501457,-0.535117983818054,-0.283441483974457
0,0.986111194908388,-0.0125000003581147,-0.156944454596674,0.221438646316528,-0.573907911777496,-0.306348919868469
0,0.981944519258625,-0.00555555575692586,-0.169444445078067,0.175623759627342,-0.62002819776535,-0.319482535123825
0,0.984722303025134,0.00833333382532574,-0.176388892338373,0.123089343309402,-0.593455612659454,-0.34391713142395
0,0.990277773310434,0.033333335301303,-0.193055558469529,-0.0244346093386412,-0.534507095813751,-0.358883321285248
0,1.0125000434425,0.0444444460554069,-0.188888894975731,-0.129503428936005,-0.449902266263962,-0.378431022167206
0,1.05000002704265,0.0680555564078778,-0.179166676104882,-0.216246291995048,-0.315206468105316,-0.318260788917542
0,1.07361118905796,0.0513888902767219,-0.170833336961321,-0.239153742790222,-0.282525181770325,-0.198531210422516
0,1.06527783775844,0.0152777788063885,-0.20972223675665,-0.19058994948864,-0.277638256549835,-0.0604756586253643
0,1.04583335139288,0.00416666691266287,-0.273611117514765,-0.119424156844616,-0.303600013256073,-0.0167987942695618
0,1.02916674604155,0.055555559848502,-0.302777798439244,-0.0910189226269722,-0.351858377456665,-0.0507018156349659
0,1.02916674604155,0.0944444474878658,-0.318055560531181,-0.206472456455231,-0.272445887327194,-0.116675265133381
0,1.01944450285877,0.120833338567854,-0.322222236180943,-0.38117989897728,-0.197004035115242,-0.173485726118088
0,0.975000059842355,0.156944454596674,-0.298611122789481,-0.495411723852158,-0.20616702735424,-0.221438646316528
0,0.970833384192592,0.200000005729836,-0.281944444502361,-0.565050363540649,-0.123089343309402,-0.198836639523506
0,0.968055600426084,0.215277779977737,-0.262500006760661,-0.540310323238373,-0.0149661982432008,-0.141720741987228
0,0.947222222177272,0.212499996211229,-0.227777782615095,-0.50823986530304,-0.0339030213654041,-0.0849102661013603
0,0.941666654644256,0.211111128639904,-0.226388890731841,-0.408363401889801,-0.10048733651638,-0.0204639863222837
0,0.962500032893068,0.163888889701015,-0.238888893369199,-0.283136039972305,-0.0937678143382072,-0.00152716308366507
0,0.962500032893068,0.144444451959316,-0.250000004123303,-0.249233022332191,-0.172263994812965,-0.0378736443817616
0,0.944444438410764,0.131944449321958,-0.25555557165632,-0.216246291995048,-0.328645497560501,-0.0952949747443199
0,0.956944465360051,0.143055560076062,-0.290277795801886,-0.145996794104576,-0.342084527015686,-0.152410879731178
0,0.959722249126559,0.154166670830166,-0.302777798439244,-0.0742201283574104,-0.279165416955948,-0.181121543049812
0,0.938888968125464,0.17361112072783,-0.308333341660331,0.00397062394768,-0.295353353023529,-0.23273965716362
0,0.876388930626744,0.187500003092477,-0.279166685047782,0.0812450796365738,-0.375987559556961,-0.29596421122551
0,0.880555606276507,0.202777789496344,-0.288888903918631,0.171347707509995,-0.441044718027115,-0.38117989897728
0,0.911111130460381,0.212499996211229,-0.305555557893823,0.235183119773865,-0.405309081077576,-0.45509460568428
0,0.948611114060526,0.223611131277262,-0.304166666010569,0.260228604078293,-0.351552963256836,-0.480140089988708
0,0.96666670854283,0.236111109602691,-0.331944455051793,0.222660377621651,-0.273973047733307,-0.492051959037781
0,0.955555573476797,0.269444466176932,-0.33750002258481,0.195476874709129,-0.212275668978691,-0.481056392192841
0,0.926388941176177,0.280555576931036,-0.345833349572405,0.207999616861343,-0.199142068624496,-0.472809702157974
0,0.911111130460381,0.298611122789481,-0.338888890156135,0.263588339090347,-0.213497400283814,-0.454789161682129
0,0.905555562927365,0.290277795801886,-0.318055560531181,0.373544096946716,-0.241902634501457,-0.378736466169357
0,0.904166671044111,0.25555557165632,-0.316666668647927,0.467617332935333,-0.247094988822937,-0.329867243766785
0,0.909722238577127,0.243055569018962,-0.344444457689151,0.517097413539886,-0.186924770474434,-0.28008171916008
0,0.915277806110144,0.259722222994153,-0.394444468238583,0.4914411008358,-0.12705996632576,-0.250760197639465
0,0.89166674134254,0.276388901281273,-0.398611119576417,0.485637873411179,-0.0308486949652433,-0.218995183706284
0,0.876388930626744,0.286111120152123,-0.383333357484479,0.50182580947876,0.0534507073462009,-0.156686931848526
0,0.837500055143345,0.297222230906227,-0.334722238818301,0.540921151638031,0.0977384373545647,-0.0830776765942574
0,0.836111163260091,0.294444447139719,-0.286111120152123,0.610559821128845,0.139582708477974,-0.00763581553474069
0,0.865277795560711,0.311111125426839,-0.318055560531181,0.567799270153046,0.138971850275993,0.0250454749912024
0,0.893055633225794,0.312500017310094,-0.375000006184955,0.413250327110291,-0.0177150927484035,0.0308486949652433
0,0.906944454810619,0.283333336385615,-0.388888900705567,0.379652738571167,-0.192727982997894,0.139582708477974
0,0.919444481759906,0.24583335278547,-0.430555559955475,0.437990367412567,-0.108734011650086,0.286190360784531
0,0.919444481759906,0.250000004123303,-0.454166673346937,0.530841886997223,0.0977384373545647,0.402865618467331
0,0.925000049292922,0.247222220356795,-0.469444484062732,0.432492583990097,0.16371189057827,0.400116741657257
0,0.979166735492117,0.15555556271342,-0.441666695021508,0.297185927629471,-0.113926365971565,0.206777885556221
0,1.02916674604155,0.0916666697993398,-0.412500014097029,0.229685336351395,-0.18509216606617,0.0571159012615681
0,1.10138892947533,-0.0166666676506515,-0.363888895430851,0.170736834406853,-0.0791070461273193,-0.0189368221908808
0,1.08194444310977,-0.0166666676506515,-0.344444457689151,0.0952949747443199,0.203418120741844,-0.0305432621389627
0,1.0513889189259,-0.0166666676506515,-0.33750002258481,0.0778853222727776,0.311846703290939,0.0222965814173222
0,0.959722249126559,0.0958333393711199,-0.279166685047782,0.13225232064724,0.350636661052704,0.0809396430850029
0,0.93750007624221,0.12777778582816,-0.275000009398019,0.135306656360626,0.519540905952454,0.153021737933159
0,0.940277860008718,0.166666673467524,-0.272222225631511,0.0384845100343227,0.697913527488708,0.229074463248253
0,0.98888888142718,0.113888891307548,-0.252777787889811,-0.0983493030071259,0.691193997859955,0.214108273386955
0,1.06250005399193,0.0250000007162294,-0.238888893369199,-0.191506251692772,0.650266051292419,0.173180297017098
0,1.09444447005906,-0.027777779924251,-0.241666677135707,-0.234877690672875,0.63896507024765,0.126143679022789
0,1.0694445134082,-0.0416666683668809,-0.279166685047782,-0.18020524084568,0.606283783912659,0.109650313854218
0,1.03194452980806,-0.0152777788063885,-0.286111120152123,-0.143553331494331,0.570548117160797,0.0500909499824047
0,1.03888889197661,0.00694444498106275,-0.268055574293678,-0.152105450630188,0.502131223678589,-0.00305432616733015
0,1.05555559457566,0.0250000007162294,-0.231944458264858,-0.20616702735424,0.437074095010758,-0.0616973899304867
0,1.05555559457566,0.0402777795226179,-0.240277785252453,-0.296880513429642,0.32192599773407,-0.0647517144680023
0,1.04861113515939,0.0569444456537738,-0.238888893369199,-0.38026362657547,0.260534018278122,-0.0397062413394451
0,1.00000001649321,0.055555559848502,-0.236111109602691,-0.353996396064758,0.204639852046967,0.03176499158144
0,0.93750007624221,0.0125000003581147,-0.262500006760661,-0.30757063627243,0.139888137578964,0.0940732508897781
5,0.880555606276507,-0.0152777788063885,-0.269444466176932,-0.299629390239716,-0.0531452745199203,0.0943786799907684
5,0.87500003874349,-0.0194444453391775,-0.233333350148112,-0.352163821458816,-0.304821759462357,0.0219911485910416
5,0.915277806110144,-0.0194444453391775,-0.218055563744246,-0.485943287611008,-0.336586743593216,-0.0357356183230877
5,0.968055600426084,0.026388891079988,-0.229166674498349,-0.674700677394867,-0.340557366609573,-0.134390354156494
5,0.979166735492117,0.0791666671619817,-0.281944444502361,-0.801760613918304,-0.234572261571884,-0.222965821623802
5,0.994444448960196,0.14583334384257,-0.322222236180943,-0.975551784038544,-0.204945296049118,-0.348498612642288
5,1.00694447590948,0.10972222781375,-0.262500006760661,-0.926988005638123,-0.234572261571884,-0.288939267396927
5,1.02083339474202,0.0847222225390337,-0.250000004123303,-0.722653567790985,-0.17470745742321,-0.0222965814173222
5,1.02638896227504,0.202777789496344,-0.244444460902216,-0.587652385234833,-0.0262672062963247,0.204334422945976
5,0.954166681593543,0.277777793164528,-0.280555576931036,-0.5128213763237,0.0461203269660473,0.262672066688538
5,0.926388941176177,0.265277790527169,-0.298611122789481,-0.406836241483688,-0.119424156844616,0.224798411130905
5,0.96666670854283,0.162500009973726,-0.252777787889811,-0.411112308502197,-0.328034639358521,0.164933621883392
5,0.991666665193688,0.14722222356986,-0.222222239394008,-0.446237057447434,-0.299934834241867,0.144775062799454
5,1.00972225967599,0.140277788465518,-0.170833336961321,-0.444709897041321,-0.206472456455231,0.161573857069016
5,1.00972225967599,0.140277788465518,-0.170833336961321,-0.287412106990814,-0.15851953625679,0.163406446576118
5,0.997222232726705,0.190277786858986,-0.154166670830166,-0.107817716896534,-0.149356558918953,0.170125976204872
5,1.00138890837647,0.20972223675665,-0.180555567988136,0.0549778714776039,-0.188146501779556,0.131641462445259
5,1.00138890837647,0.20972223675665,-0.180555567988136,0.17440202832222,-0.156686931848526,0.108123145997524
5,1.05555559457566,0.226388890731841,-0.216666671860991,0.22235494852066,-0.168598800897598,0.0836885422468185
5,1.07916665934326,0.252777787889811,-0.233333350148112,0.162490159273148,-0.11636982858181,0.0836885422468185
5,1.07916665934326,0.252777787889811,-0.233333350148112,0.0705549344420433,0.0394008085131645,0.102014496922493
5,1.07777786470773,0.275000009398019,-0.251388896006557,-0.0100792767480016,0.181732416152954,0.0867428630590439
5,0.973611167959101,0.238888893369199,-0.252777787889811,-0.0494800843298435,0.209832206368446,0.0519235469400883
5,0.973611167959101,0.238888893369199,-0.252777787889811,-0.0650571510195732,0.141109868884087,-0.00916297826915979
5,0.934722292475701,0.226388890731841,-0.238888893369199,-0.0592539273202419,0.116675265133381,-0.0128281703218818
5,0.945833330294018,0.223611131277262,-0.193055558469529,-0.0583376325666905,0.16951510310173,-0.00977384392172098
5,0.945833330294018,0.223611131277262,-0.193055558469529,-0.0720821022987366,0.239153742790222,0.0256563406437635
5,0.959722249126559,0.176388892338373,-0.152777778946911,-0.00824668072164059,0.56657749414444,0.269391566514969
5,0.959722249126559,0.176388892338373,-0.152777778946911,-0.00824668072164059,0.56657749414444,0.269391566514969
5,0.933333400592447,0.14722222356986,-0.166666673467524,0.112399205565453,0.634078145027161,0.437684953212738
5,0.86805557932722,0.0902777839940679,-0.195833342236038,0.272140473127365,0.361021369695664,0.598342478275299
5,0.841666730793107,0.0902777839940679,-0.206944452990142,0.347887754440308,0.120951317250729,0.641713917255402
5,0.893055633225794,0.104166672436698,-0.20972223675665,0.300545692443848,-0.0714712366461754,0.593455612659454
5,0.98888888142718,0.104166672436698,-0.248611112240049,0.224492982029915,-0.163101017475128,0.453262001276016
5,1.11111117265811,0.0875000002275597,-0.276388901281273,0.18539759516716,0.101403631269932,0.299018532037735
5,1.17222222102586,0.0597222233422998,-0.295833339022973,0.145691365003586,0.403476506471634,0.257479697465897
5,1.09722225382557,0.0972222251763917,-0.311111125426839,0.108123145997524,0.532674491405487,0.259006857872009
5,0.98888888142718,0.170833336961321,-0.308333341660331,0.103236228227615,0.573297023773193,0.306043475866318
5,0.904166671044111,0.238888893369199,-0.279166685047782,0.0662788823246956,0.564134061336517,0.365908294916153
5,0.861111119910949,0.268055574293678,-0.229166674498349,-0.0409279726445675,0.419969856739044,0.375376701354981
5,0.863888903677457,0.223611131277262,-0.184722231481934,-0.150578290224075,0.199447497725487,0.320398807525635
5,0.923611157409668,0.158333334323963,-0.176388892338373,-0.240986332297325,0.0229074470698834,0.220216915011406
5,0.979166735492117,0.105555564319952,-0.204166669223633,-0.326507478952408,-0.0326812900602817,0.16371189057827
5,1.00833336779274,0.0819444448505077,-0.234722242031366,-0.442266434431076,-0.03176499158144,0.150883719325066
5,1.00833336779274,0.0625000010308258,-0.268055574293678,-0.491135656833649,0.146913096308708,0.159741267561913
5,0.975000059842355,0.0500000014324589,-0.284722228268869,-0.453262001276016,0.204639852046967,0.129197999835014
5,0.961111141009813,0.033333335301303,-0.236111109602691,-0.32253685593605,0.125227376818657,0.0842994004487991
5,0.990277773310434,-0.0152777788063885,-0.20972223675665,-0.175318330526352,0.0458148941397667,0.0360410511493683
5,1.01944450285877,-0.052777782159976,-0.19166667874224,-0.0974330082535744,-0.0409279726445675,0.00610865233466029
5,1.06805562152495,-0.102777780553444,-0.208333344873396,-0.0778853222727776,0.0131336031481624,-0.00733038317412138
5,1.05694448645892,-0.0250000007162294,-0.223611131277262,-0.210748508572578,0.125532805919647,-0.0268780700862408
5,1.0333333244436,0.030555557612777,-0.231944458264858,-0.48197266459465,0.149661988019943,-0.0378736443817616
5,0.948611114060526,0.125000002061652,-0.227777782615095,-0.606894612312317,0.0956004112958908,-0.127976268529892
5,0.947222222177272,0.14722222356986,-0.206944452990142,-0.632550954818726,-0.0485637858510017,-0.172263994812965
5,0.990277773310434,0.163888889701015,-0.17361112072783,-0.573297023773193,-0.16371189057827,-0.114231802523136
5,1.06527783775844,0.123611110178398,-0.213888888094483,-0.380569040775299,-0.0852157026529312,0.0687223374843597
5,1.08194444310977,0.100000002864918,-0.230555566381603,-0.254730820655823,0.161573857069016,0.191506251692772
5,1.05416670269241,0.0222222230277034,-0.223611131277262,-0.152716308832169,0.386372268199921,0.242818936705589
5,1.00555558402623,-0.0416666683668809,-0.175000000455119,-0.0436768643558025,0.449902266263962,0.242818936705589
5,0.96666670854283,-0.104166672436698,-0.126388893944906,0.0439822971820831,0.388204872608185,0.181121543049812
5,0.972222276075846,-0.12777778582816,-0.0944444474878658,0.162490159273148,0.222660377621651,0.107817716896534
5,0.987499989543926,-0.105555564319952,-0.0791666671619817,0.247094988822937,0.00519235478714108,0.0290160998702049
5,0.987499989543926,-0.105555564319952,-0.0791666671619817,0.28496864438057,-0.0952949747443199,-0.00366519158706069
5,1.00138890837647,0.0736111117849297,-0.134722233088466,0.294437050819397,-0.125532805919647,-0.0326812900602817
5,1.01666671909226,0.150000007336368,-0.154166670830166,0.272445887327194,-0.070249505341053,-0.0473420582711697
5,1.01666671909226,0.150000007336368,-0.154166670830166,0.187230199575424,0.0442877300083637,-0.0045814891345799
5,1.02777785415829,0.190277786858986,-0.168055565350778,0.120645888149738,0.124921940267086,0.0394008085131645
5,1.00277780025972,0.122222230451108,-0.169444445078067,0.10048733651638,0.186619326472282,0.0467311926186085
5,1.00277780025972,0.122222230451108,-0.169444445078067,0.122783914208412,0.218995183706284,0.0247400421649218
5,0.969444492309338,0.0652777787193518,-0.133333341205212,0.132863193750381,0.0204639863222837,-0.027488935738802
5,0.970833384192592,0.0180555564949145,-0.125000002061652,0.112399205565453,-0.17989981174469,-0.0815505087375641
5,0.970833384192592,0.0180555564949145,-0.125000002061652,0.0901026204228401,-0.283136039972305,-0.134084925055504
5,1.02916674604155,0.0430555572111439,-0.154166670830166,0.0943786799907684,-0.214413702487946,-0.135917514562607
5,1.04583335139288,0.0625000010308258,-0.166666673467524,0.0791070461273193,-0.133168622851372,-0.109344877302647
5,1.05833337834217,0.0888888921108138,-0.187500003092477,0.0736092627048492,-0.00855211354792118,-0.0488692186772823
5,1.05972227022542,0.118055554801345,-0.190277786858986,0.114537231624126,0.109344877302647,0.0210748501121998
5,1.05694448645892,0.120833338567854,-0.176388892338373,0.16401731967926,0.214719131588936,0.0873537287116051
5,1.04166667574312,0.10972222781375,-0.154166670830166,0.19578230381012,0.21135938167572,0.106290549039841
5,1.00972225967599,0.0833333367337618,-0.122222230451108,0.233961388468742,0.157603234052658,0.126143679022789
5,0.980555627375371,0.0569444456537738,-0.108333335930496,0.283441483974457,0.0662788823246956,0.114231802523136
5,0.959722249126559,0.0250000007162294,-0.0958333393711199,0.324980318546295,0.00366519158706069,0.0632245540618896
5,0.955555573476797,-0.00555555575692586,-0.0875000002275597,0.349720358848572,-0.0580321997404099,-0.00152716308366507
5,0.970833384192592,-0.0138888899621255,-0.0916666697993398,0.362548530101776,-0.147218525409698,-0.0534507073462009
5,0.997222232726705,-0.00555555575692586,-0.101388894748172,0.337197601795196,-0.143247902393341,-0.0922406539320946
5,1.0361111082101,0.0111111115138517,-0.113888891307548,0.298713117837906,-0.0784961804747581,-0.111482910811901
5,1.06805562152495,0.0458333348996699,-0.125000002061652,0.250149309635162,0.0491746515035629,-0.127670839428902
5,1.07083340529146,0.055555559848502,-0.120833338567854,0.229990765452385,0.139888137578964,-0.142942473292351
5,1.04166667574312,0.0652777787193518,-0.118055554801345,0.270307868719101,0.131336033344269,-0.136222943663597
5,1.00000001649321,0.0736111117849297,-0.112499999424294,0.327118337154388,0.125227376818657,-0.118202425539494
5,0.993055557076942,0.0875000002275597,-0.111111119697004,0.288633823394775,0.108734011650086,-0.102319926023483
5,1.00555558402623,0.0861111144222878,-0.104166672436698,0.192422553896904,0.0516181141138077,-0.0784961804747581
5,1.02500007039179,0.0819444448505077,-0.113888891307548,0.098960168659687,0.0742201283574104,-0.0534507073462009
5,1.02916674604155,0.0750000036681839,-0.118055554801345,0.04764748737216,0.0858265683054924,-0.0381790772080422
5,1.02222228662528,0.055555559848502,-0.0875000002275597,0.0467311926186085,0.0244346093386412,-0.0232128798961639
5,1.01944450285877,0.030555557612777,-0.0777777813567098,0.098960168659687,0.0320704244077206,0.00733038317412138
5,1.00694447590948,0.026388891079988,-0.0875000002275597,0.129503428936005,0.0662788823246956,0.0485637858510017
5,0.986111194908388,0.0458333348996699,-0.104166672436698,0.156381502747536,0.0455094613134861,0.0742201283574104
5,0.991666665193688,0.0569444456537738,-0.104166672436698,0.175318330526352,-0.00488692196086049,0.0445931628346443
5,1.01666671909226,0.0472222237439329,-0.0888888921108138,0.123700208961964,0.0167987942695618,0.00122173049021512
5,1.02222228662528,0.0250000007162294,-0.0819444448505077,0.0604756586253643,0.013744467869401,-0.0113010071218014
5,1.00972225967599,0.0125000003581147,-0.0944444474878658,0.0607810914516449,-0.0125227374956012,-0.00977384392172098
5,0.991666665193688,0.027777779924251,-0.115277783190802,0.0827722400426865,-0.0290160998702049,-0.0167987942695618
5,0.991666665193688,0.0250000007162294,-0.0986111170596459,0.118202425539494,-0.078801617026329,-0.0305432621389627
5,0.98888888142718,0.00972222266958873,-0.104166672436698,0.171347707509995,-0.132863193750381,-0.0543670058250427
5,0.99583334084345,0.00972222266958873,-0.120833338567854,0.223576679825783,-0.140804439783096,-0.0580321997404099
5,1.01527782720901,0.0486111125881959,-0.140277788465518,0.212275668978691,-0.113010071218014,-0.0406225398182869
5,1.02222228662528,0.0986111170596459,-0.134722233088466,0.178372651338577,-0.105374254286289,0.00885754637420177
5,1.02500007039179,0.111111119697004,-0.134722233088466,0.160352125763893,-0.0473420582711697,0.0839939713478088
5,1.05972227022542,0.111111119697004,-0.15555556271342,0.191506251692772,-0.00702495034784079,0.128892570734024
5,1.06388894587519,0.105555564319952,-0.175000000455119,0.234266817569733,0.0601702257990837,0.145691365003586
5,1.05833337834217,0.0916666697993398,-0.200000005729836,0.16371189057827,0.0959058403968811,0.145080491900444
5,1.00972225967599,0.0486111125881959,-0.186111123365188,0.0183259565383196,0.017409659922123,0.137750118970871
5,0.990277773310434,0.0583333375370279,-0.166666673467524,-0.0601702257990837,-0.0479529201984406,0.150578290224075
5,0.959722249126559,0.0694444482911319,-0.131944449321958,-0.104457959532738,-0.0980438739061356,0.160352125763893
5,0.947222222177272,0.0847222225390337,-0.0986111170596459,-0.145385921001434,-0.145385921001434,0.195171445608139
5,0.955555573476797,0.0930555616825939,-0.101388894748172,-0.170431405305862,-0.171042263507843,0.197004035115242
5,0.981944519258625,0.0833333367337618,-0.120833338567854,-0.207694187760353,-0.208305045962334,0.17440202832222
5,1.01388893532575,0.0736111117849297,-0.163888889701015,-0.25870144367218,-0.236099421977997,0.145080491900444
5,1.04444445950963,0.0652777787193518,-0.212499996211229,-0.342695415019989,-0.228463605046272,0.125227376818657
5,1.05694448645892,0.0416666683668809,-0.236111109602691,-0.421802461147308,-0.162184715270996,0.0839939713478088
5,1.04583335139288,0.026388891079988,-0.231944458264858,-0.440739274024963,-0.0864374339580536,0.0464257597923279
5,1.02916674604155,0.026388891079988,-0.20972223675665,-0.395535260438919,-0.0552833043038845,-0.0134390350431204
5,1.01527782720901,0.026388891079988,-0.187500003092477,-0.368962615728378,-0.058643065392971,-0.0299323964864016
5,1.01527782720901,0.029166668768514,-0.188888894975731,-0.318871647119522,-0.0448985956609249,-0.0601702257990837
5,1.01527782720901,0.0361111129898289,-0.19166667874224,-0.265115529298782,0.0277943685650826,-0.123700208961964
5,1.02083339474202,0.0361111129898289,-0.186111123365188,-0.250149309635162,0.0629191175103188,-0.171042263507843
5,1.02083339474202,0.0416666683668809,-0.166666673467524,-0.277943700551987,0.101098194718361,-0.189673662185669
5,1.01111115155925,0.03194444645704,-0.136111112815755,-0.280387133359909,0.0693332031369209,-0.1795943826437
5,1.00833336779274,0.0222222230277034,-0.113888891307548,-0.243735238909721,0.0106901414692402,-0.104763388633728
5,1.01666671909226,0.0180555564949145,-0.131944449321958,-0.225714713335037,0.0171042270958424,-0.0525344125926495
5,1.01666671909226,0.0180555564949145,-0.131944449321958,-0.209221348166466,0.00702495034784079,-0.0284052342176437
5,1.00416669214298,0.0347222241455659,-0.161111118090472,-0.212886542081833,-0.0415388382971287,-0.00855211354792118
5,1.0125000434425,0.0458333348996699,-0.168055565350778,-0.204945296049118,-0.0803287774324417,0.0277943685650826
5,1.0125000434425,0.0458333348996699,-0.168055565350778,-0.189062789082527,-0.070249505341053,0.0534507073462009
5,1.02083339474202,0.0541666679652478,-0.17361112072783,-0.160352125763893,-0.00763581553474069,0.0879645943641663
5,1.02500007039179,0.0402777795226179,-0.163888889701015,-0.137139245867729,0.0284052342176437,0.111788339912891
5,1.02638896227504,0.00138888893923146,-0.17361112072783,-0.0940732508897781,0.0351247526705265,0.138971850275993
5,1.0333333244436,-0.00555555575692586,-0.186111123365188,-0.0873537287116051,0.0500909499824047,0.159130394458771
5,1.03472221632685,-0.00555555575692586,-0.181944447715425,-0.0616973899304867,0.0516181141138077,0.131030589342117
5,1.03472221632685,-0.00555555575692586,-0.181944447715425,-0.0210748501121998,0.0885754600167274,0.10598511993885
5,1.0361111082101,-0.00555555575692586,-0.176388892338373,-0.00671951752156019,0.112704634666443,0.0925460830330849
5,1.02222228662528,0.00555555575692586,-0.172222228844576,0.0232128798961639,0.12675453722477,0.0940732508897781
5,1.02222228662528,0.00555555575692586,-0.172222228844576,0.0522289797663689,0.142942473292351,0.08460483700037
5,1.01388893532575,0.00555555575692586,-0.154166670830166,0.0430659987032413,0.127365410327911,0.0629191175103188
5,1.00277780025972,0.00138888893923146,-0.13750000469901,0.0339030213654041,0.0861319974064827,0.0485637858510017
5,1.00277780025972,0.00138888893923146,-0.13750000469901,0.0354301854968071,0.0516181141138077,0.0265726372599602
5,1.00277780025972,0.00138888893923146,-0.131944449321958,0.0690277740359306,0.0302378293126821,0.0201585534960032
5,0.99583334084345,0.00972222266958873,-0.13750000469901,0.115453533828259,0.0213802829384804,0.00427605677396059
5,1.00000001649321,0.0138888899621255,-0.148611115453114,0.148745685815811,0.0122173046693206,0.0164933614432812
5,1.0125000434425,0.0222222230277034,-0.150000007336368,0.156686931848526,0.0109955742955208,0.000305432622553781
5,1.01388893532575,0.0194444453391775,-0.156944454596674,0.150578290224075,-0.0152716310694814,-0.00702495034784079
5,1.01944450285877,0.0250000007162294,-0.172222228844576,0.144164204597473,-0.0204639863222837,-0.00122173049021512
5,1.02500007039179,0.030555557612777,-0.166666673467524,0.119729585945606,0.00549778714776039,-0.0113010071218014
5,1.02916674604155,0.0347222241455659,-0.172222228844576,0.106595985591412,0.0351247526705265,-0.01588249579072
5,1.02361117850853,0.0208333341834404,-0.151388899219622,0.0867428630590439,0.0268780700862408,-0.0186313893646002
5,1.02083339474202,0.0125000003581147,-0.143055560076062,0.0849102661013603,0.0152716310694814,-0.0171042270958424
5,1.0125000434425,0.00833333382532574,-0.12777778582816,0.109039448201656,-0.00427605677396059,0.00916297826915979
5,1.0125000434425,0.00833333382532574,-0.123611110178398,0.130725160241127,-0.00366519158706069,0.0128281703218818
5,1.01805561097552,0.0236111118719664,-0.12777778582816,0.145996794104576,-0.00549778714776039,0.0235183127224445
5,1.02222228662528,0.030555557612777,-0.136111112815755,0.143858760595322,0.00977384392172098,0.0125227374956012
5,1.02361117850853,0.027777779924251,-0.14722222356986,0.124616511166096,0.0332921557128429,-0.00366519158706069
5,1.00833336779274,0.0152777788063885,-0.138888896582264,0.123089343309402,0.01191187184304,-0.0323758572340012
5,0.990277773310434,0.00972222266958873,-0.131944449321958,0.129808858036995,-0.0519235469400883,-0.0763581544160843
5,0.991666665193688,0.00972222266958873,-0.116666675074056,0.148745685815811,-0.103847093880177,-0.138055548071861
5,1.00555558402623,0.0111111115138517,-0.108333335930496,0.171347707509995,-0.112704634666443,-0.140499010682106
5,1.01944450285877,0.0222222230277034,-0.12777778582816,0.1795943826437,-0.096211276948452,-0.118507854640484
5,1.02777785415829,0.029166668768514,-0.150000007336368,0.144469633698463,-0.0531452745199203,-0.0842994004487991
5,1.03194452980806,0.0347222241455659,-0.175000000455119,0.0711658000946045,-0.0473420582711697,-0.0681114718317986
5,1.01666671909226,0.0458333348996699,-0.161111118090472,0.0323758572340012,-0.058643065392971,-0.0620028227567673
5,1.01527782720901,0.0597222233422998,-0.161111118090472,0.00549778714776039,-0.0714712366461754,-0.0708603709936142
5,1.01388893532575,0.0611111152255539,-0.151388899219622,-0.00183259579353034,-0.0867428630590439,-0.0464257597923279
5,1.02500007039179,0.055555559848502,-0.158333334323963,-0.0219911485910416,-0.0522289797663689,-0.011606439948082
5,1.02916674604155,0.055555559848502,-0.14583334384257,-0.0510072484612465,-0.0287106670439243,0.0271835029125214
5,1.03194452980806,0.0583333375370279,-0.140277788465518,-0.0733038261532784,0.0146607663482428,0.0482583530247212
5,1.02361117850853,0.052777782159976,-0.134722233088466,-0.0635299831628799,0.0482583530247212,0.0537561401724815
5,1.01527782720901,0.052777782159976,-0.12916666555545,-0.0311541277915239,0.0568104684352875,0.0555887371301651
5,1.0125000434425,0.03194444645704,-0.13750000469901,-0.0161879286170006,0.078801617026329,0.0638354197144508
5,0.993055557076942,-0.00694444498106275,-0.12916666555545,0.0161879286170006,0.0109955742955208,0.0681114718317986
5,0.990277773310434,-0.0138888899621255,-0.136111112815755,0.0815505087375641,-0.0452040284872055,0.070249505341053
5,1.00555558402623,-0.0236111118719664,-0.151388899219622,0.100181899964809,-0.0891863256692886,0.0531452745199203
5,1.01944450285877,-0.0152777788063885,-0.166666673467524,0.101709060370922,-0.100792765617371,0.0430659987032413
5,1.01944450285877,-0.0125000003581147,-0.187500003092477,0.120951317250729,-0.0833831056952477,0.0125227374956012
5,1.01944450285877,-0.00277777787846293,-0.18333333959868,0.158824965357781,-0.0574213340878487,0.00305432616733015
5,1.02222228662528,-0.00277777787846293,-0.175000000455119,0.150883719325066,-0.0226020142436027,-0.00702495034784079
5,1.03194452980806,-0.00833333382532574,-0.169444445078067,0.145691365003586,0.0351247526705265,-0.00397062394768
5,1.01944450285877,-0.0111111115138517,-0.163888889701015,0.136222943663597,0.0219911485910416,-0.0134390350431204
5,1.00972225967599,-0.0111111115138517,-0.166666673467524,0.119424156844616,-0.01588249579072,-0.0262672062963247
5,1.0125000434425,0.00972222266958873,-0.168055565350778,0.102625362575054,-0.015577063895762,-0.0302378293126821
5,1.01527782720901,0.00555555575692586,-0.156944454596674,0.0726929605007172,-0.0284052342176437,-0.0455094613134861
5,1.02083339474202,0.0152777788063885,-0.150000007336368,0.0665843114256859,-0.0183259565383196,-0.0290160998702049
5,1.02222228662528,0.0125000003581147,-0.156944454596674,0.064446285367012,-0.000305432622553781,-0.0189368221908808
5,1.02222228662528,0.0208333341834404,-0.156944454596674,0.0885754600167274,0.0250454749912024,-0.00641408516094089
5,1.02222228662528,0.026388891079988,-0.161111118090472,0.0959058403968811,0.0534507073462009,-0.011606439948082
5,1.01111115155925,0.0250000007162294,-0.150000007336368,0.0678060427308083,0.0558941699564457,-0.0027488935738802
5,0.99583334084345,0.0194444453391775,-0.141666668192807,0.0568104684352875,0.0293215326964855,-0.00580321997404099
5,0.99583334084345,0.0166666676506515,-0.148611115453114,0.0445931628346443,-0.0171042270958424,-0.00763581553474069
5,1.00555558402623,0.0194444453391775,-0.161111118090472,0.019547687843442,-0.0500909499824047,-0.00855211354792118
5,1.01666671909226,0.0250000007162294,-0.176388892338373,-0.0241291765123606,-0.0433714315295219,-0.01588249579072
5,1.01944450285877,0.033333335301303,-0.181944447715425,-0.0479529201984406,-0.0100792767480016,0.0198531206697226
5,1.0305556379248,0.0500000014324589,-0.176388892338373,-0.0500909499824047,0.0201585534960032,0.0458148941397667
5,1.02916674604155,0.0513888902767219,-0.176388892338373,-0.04764748737216,0.0607810914516449,0.0558941699564457
5,1.01527782720901,0.0430555572111439,-0.175000000455119,-0.0653625801205635,0.0497855171561241,0.0589484944939613
5,1.0125000434425,0.0347222241455659,-0.18333333959868,-0.0836885422468185,0.0397062413394451,0.0534507073462009
5,1.01111115155925,0.027777779924251,-0.176388892338373,-0.0772744566202164,0.00763581553474069,0.0351247526705265
5,1.02777785415829,0.0152777788063885,-0.14722222356986,-0.0901026204228401,-0.0140499006956816,0.019547687843442
5,1.03472221632685,0.00833333382532574,-0.152777778946911,-0.0684169083833694,0.0183259565383196,0.019547687843442
5,1.0361111082101,0.00833333382532574,-0.14722222356986,-0.0540615729987621,0.0662788823246956,0.0262672062963247
5,1.02083339474202,-0.00277777787846293,-0.141666668192807,-0.0314595587551594,0.0849102661013603,0.0256563406437635
5,1.00138890837647,-0.00416666691266287,-0.13750000469901,0.00427605677396059,0.0681114718317986,0.01191187184304
5,0.993055557076942,0.00138888893923146,-0.126388893944906,0.04764748737216,0.0433714315295219,0.013744467869401
5,0.997222232726705,0.00972222266958873,-0.143055560076062,0.0671951770782471,0.0161879286170006,0.0177150927484035
5,1.00833336779274,0.0208333341834404,-0.156944454596674,0.0717766657471657,-0.00824668072164059,0.01588249579072
5,1.01527782720901,0.030555557612777,-0.148611115453114,0.0332921557128429,-0.0265726372599602,-0.000305432622553781
5,1.02083339474202,0.0430555572111439,-0.14722222356986,-0.01588249579072,-0.0479529201984406,-0.00519235478714108
5,1.02222228662528,0.0541666679652478,-0.158333334323963,-0.0757472887635231,-0.0439822971820831,0.0152716310694814
5,1.02083339474202,0.0597222233422998,-0.175000000455119,-0.121256753802299,0.00946841109544039,0.0351247526705265
5,1.00555558402623,0.0513888902767219,-0.170833336961321,-0.142942473292351,0.0131336031481624,0.0430659987032413
5,1.00138890837647,0.0361111129898289,-0.161111118090472,-0.154243469238281,-0.0369573459029198,0.0442877300083637
5,1.00833336779274,0.027777779924251,-0.154166670830166,-0.164933621883392,-0.0748309940099716,0.0390953756868839
5,1.01527782720901,0.0194444453391775,-0.15555556271342,-0.188757359981537,-0.0901026204228401,0.0345138870179653
5,1.01944450285877,0.0194444453391775,-0.156944454596674,-0.191200822591782,-0.0705549344420433,0.0339030213654041
5,1.01527782720901,0.00555555575692586,-0.15555556271342,-0.192727982997894,-0.0507018156349659,0.0293215326964855
5,1.01527782720901,0.00277777787846293,-0.161111118090472,-0.156076073646545,-0.0439822971820831,0.0442877300083637
5,1.02361117850853,0.00277777787846293,-0.168055565350778,-0.090408056974411,-0.0284052342176437,0.0354301854968071
5,1.02916674604155,-0.00277777787846293,-0.16527778158427,-0.0519235469400883,-0.00671951752156019,0.0348193198442459
5,1.03194452980806,-0.00833333382532574,-0.166666673467524,-0.05283984541893,0.0149661982432008,0.0229074470698834
5,1.01805561097552,-0.00833333382532574,-0.163888889701015,-0.0384845100343227,0.0357356183230877,0.0290160998702049
5,1.00833336779274,-0.00555555575692586,-0.150000007336368,-0.0164933614432812,0.0177150927484035,0.0122173046693206
5,1.00972225967599,-0.00277777787846293,-0.154166670830166,-0.00580321997404099,0.00427605677396059,-0.00397062394768
5,1.01527782720901,-0.00138888893923146,-0.159722226207217,0.0351247526705265,0.011606439948082,-0.0180205255746841
5,1.01527782720901,-0.00277777787846293,-0.170833336961321,0.0772744566202164,0.037568211555481,-0.0360410511493683
5,1.01944450285877,-0.00277777787846293,-0.166666673467524,0.0949895456433296,0.05283984541893,-0.029626963660121
5,1.01944450285877,-0.00277777787846293,-0.163888889701015,0.109344877302647,0.0733038261532784,-0.0406225398182869
5,1.01527782720901,0.00694444498106275,-0.163888889701015,0.120340451598167,0.0748309940099716,-0.0268780700862408
5,1.02083339474202,0.0194444453391775,-0.161111118090472,0.123089343309402,0.0635299831628799,-0.015577063895762
5,1.02500007039179,0.029166668768514,-0.166666673467524,0.115148097276688,0.0583376325666905,-0.0103847095742822
5,1.02222228662528,0.030555557612777,-0.16527778158427,0.0980438739061356,0.0561996027827263,0.0033597587607801
5,1.01666671909226,0.029166668768514,-0.166666673467524,0.0873537287116051,0.0705549344420433,0.0143553335219622
5,1.01666671909226,0.029166668768514,-0.166666673467524,0.0907134860754013,0.0729983970522881,0.0323758572340012
5,1.00694447590948,0.026388891079988,-0.150000007336368,0.0778853222727776,0.0659734457731247,0.0308486949652433
5,1.00555558402623,0.0250000007162294,-0.152777778946911,0.0583376325666905,0.0421497002243996,0.0287106670439243
5,1.00972225967599,0.0222222230277034,-0.156944454596674,0.0183259565383196,0.0277943685650826,0.0210748501121998
5,1.00972225967599,0.0208333341834404,-0.158333334323963,0.011606439948082,0.00916297826915979,-0.000916297896765172
5,1.01666671909226,0.0236111118719664,-0.162500009973726,-0.00763581553474069,0.017409659922123,-0.000610865245107561
5,1.01805561097552,0.0125000003581147,-0.161111118090472,0.00152716308366507,0.0412334054708481,-0.0103847095742822
5,1.0125000434425,0.0111111115138517,-0.15555556271342,0.0256563406437635,0.0519235469400883,0.0106901414692402
5,1.0125000434425,0.0125000003581147,-0.148611115453114,0.0470366254448891,0.037568211555481,0.0277943685650826
5,1.01944450285877,0.0152777788063885,-0.154166670830166,0.0604756586253643,0.0339030213654041,0.0277943685650826
5,1.01944450285877,0.0152777788063885,-0.154166670830166,0.029626963660121,0.0323758572340012,0.0308486949652433
5,1.01805561097552,0.0180555564949145,-0.154166670830166,0.00794124789535999,0.0436768643558025,0.03176499158144
5,1.01527782720901,0.00972222266958873,-0.14722222356986,-0.017409659922123,0.0397062413394451,0.0186313893646002
5,1.01527782720901,0.00972222266958873,-0.14722222356986,-0.0180205255746841,0.0394008085131645,0.0146607663482428
5,1.01111115155925,0.00972222266958873,-0.140277788465518,-0.0103847095742822,0.021685715764761,0.00916297826915979
5,1.01388893532575,0.0152777788063885,-0.143055560076062,0.0125227374956012,0.0329867228865623,-0.00427605677396059
5,1.01666671909226,0.0152777788063885,-0.120833338567854,0.0247400421649218,0.0424551330506802,-0.00244346098043024
5,1.0125000434425,0.0125000003581147,-0.143055560076062,0.0198531206697226,0.0464257597923279,-0.00671951752156019
5,1.01527782720901,0.0138888899621255,-0.122222230451108,0.00580321997404099,0.0433714315295219,0.00152716308366507
5,1.01666671909226,0.0152777788063885,-0.138888896582264,-0.00733038317412138,0.0326812900602817,-0.00305432616733015
5,1.02222228662528,0.0152777788063885,-0.12916666555545,-0.0125227374956012,0.0424551330506802,-0.00610865233466029
5,1.02500007039179,0.0194444453391775,-0.140277788465518,-0.0354301854968071,0.0494800843298435,-0.00427605677396059
5,1.02638896227504,0.0194444453391775,-0.14722222356986,-0.0613919571042061,0.0516181141138077,-0.0103847095742822
5,1.02222228662528,0.0236111118719664,-0.138888896582264,-0.0931569486856461,0.0525344125926495,-0.00122173049021512
5,1.02083339474202,0.0250000007162294,-0.143055560076062,-0.115148097276688,0.070249505341053,-0.00641408516094089
5,1.01388893532575,0.03194444645704,-0.13750000469901,-0.127670839428902,0.0635299831628799,-0.01191187184304
5,1.01527782720901,0.029166668768514,-0.126388893944906,-0.124311074614525,0.0519235469400883,-0.0256563406437635
5,1.01388893532575,0.0222222230277034,-0.113888891307548,-0.123394779860973,0.0424551330506802,-0.0271835029125214
5,1.00694447590948,0.0208333341834404,-0.112499999424294,-0.138055548071861,0.0256563406437635,-0.00916297826915979
5,1.00277780025972,0.0250000007162294,-0.118055554801345,-0.131641462445259,0.000305432622553781,-0.00427605677396059
5,1.00555558402623,0.026388891079988,-0.120833338567854,-0.135001212358475,0.000916297896765172,0.011606439948082
5,1.01944450285877,0.026388891079988,-0.123611110178398,-0.142942473292351,0.000610865245107561,0.0140499006956816
5,1.0305556379248,0.0222222230277034,-0.130555557438704,-0.149967417120934,-0.00122173049021512,0.00916297826915979
5,1.02361117850853,0.0180555564949145,-0.12777778582816,-0.147523954510689,-0.00580321997404099,0.0180205255746841
5,1.01805561097552,0.0138888899621255,-0.120833338567854,-0.124616511166096,-0.01588249579072,0.0106901414692402
5,1.02500007039179,0.0125000003581147,-0.133333341205212,-0.107206851243973,-0.0021380283869803,0.0244346093386412
5,1.02500007039179,0.0125000003581147,-0.12777778582816,-0.0861319974064827,0.0241291765123606,0.01588249579072
5,1.02083339474202,0.00694444498106275,-0.112499999424294,-0.0467311926186085,0.0268780700862408,0.0433714315295219
5,1.01666671909226,-0.00555555575692586,-0.111111119697004,-0.00733038317412138,0.00671951752156019,0.0436768643558025
5,1.01944450285877,-0.00972222266958873,-0.108333335930496,0.0244346093386412,0.00152716308366507,0.0394008085131645
5,1.01527782720901,-0.00416666691266287,-0.108333335930496,0.0452040284872055,-0.00183259579353034,0.0290160998702049
5,1.01666671909226,-0.00416666691266287,-0.116666675074056,0.0632245540618896,-0.0268780700862408,0.00671951752156019
5,1.01666671909226,0.00277777787846293,-0.130555557438704,0.0592539273202419,-0.0122173046693206,-0.00366519158706069
5,1.01944450285877,0.00277777787846293,-0.116666675074056,0.0745255574584007,0.00824668072164059,-0.0113010071218014
5,1.01666671909226,0.00277777787846293,-0.118055554801345,0.0894917547702789,0.00122173049021512,-0.0210748501121998
5,1.01527782720901,0.00416666691266287,-0.12916666555545,0.103847093880177,-0.0192422550171614,-0.0287106670439243
5,1.01944450285877,0.00416666691266287,-0.125000002061652,0.122173048555851,-0.0351247526705265,-0.0271835029125214
5,1.02500007039179,0.00277777787846293,-0.130555557438704,0.141720741987228,-0.0271835029125214,-0.029626963660121
5,1.01944450285877,0.0152777788063885,-0.125000002061652,0.163101017475128,-0.0122173046693206,-0.0277943685650826
5,1.01805561097552,0.0152777788063885,-0.125000002061652,0.171347707509995,-0.011606439948082,-0.0177150927484035
5,1.02083339474202,0.0194444453391775,-0.131944449321958,0.177456349134445,-0.0134390350431204,-0.0161879286170006
5,1.01527782720901,0.0222222230277034,-0.130555557438704,0.16951510310173,-0.0045814891345799,-0.0131336031481624
5,1.00972225967599,0.0194444453391775,-0.120833338567854,0.160352125763893,-0.0339030213654041,-0.0143553335219622
5,1.00972225967599,0.0138888899621255,-0.12916666555545,0.142331600189209,-0.0540615729987621,-0.00946841109544039
5,1.01944450285877,0.0222222230277034,-0.130555557438704,0.137139245867729,-0.0577267669141293,-0.00733038317412138
5,1.02500007039179,0.0194444453391775,-0.131944449321958,0.124921940267086,-0.0415388382971287,-0.00580321997404099
5,1.02222228662528,0.03194444645704,-0.134722233088466,0.115758962929249,-0.0302378293126821,0.0021380283869803
5,1.01805561097552,0.029166668768514,-0.140277788465518,0.0937678143382072,-0.0458148941397667,-0.0149661982432008
5,1.01805561097552,0.0250000007162294,-0.144444451959316,0.0751364231109619,-0.0400116741657257,-0.0122173046693206
5,1.02222228662528,0.0208333341834404,-0.148611115453114,0.0610865242779255,-0.0293215326964855,-0.0204639863222837
5,1.01666671909226,0.0250000007162294,-0.154166670830166,0.0623082555830479,-0.0244346093386412,-0.019547687843442
5,1.02083339474202,0.0208333341834404,-0.148611115453114,0.0641408488154411,-0.0213802829384804,-0.0152716310694814
5,1.01944450285877,0.0250000007162294,-0.143055560076062,0.0723875313997269,-0.00671951752156019,-0.02382374368608
5,1.01666671909226,0.0194444453391775,-0.143055560076062,0.0604756586253643,0.0122173046693206,-0.0265726372599602
5,1.01944450285877,0.0222222230277034,-0.140277788465518,0.0629191175103188,0.013744467869401,-0.01588249579072
5,1.01944450285877,0.026388891079988,-0.143055560076062,0.0577267669141293,0.00305432616733015,-0.00488692196086049
5,1.01944450285877,0.029166668768514,-0.141666668192807,0.0201585534960032,-0.00397062394768,0.00671951752156019
5,1.01944450285877,0.027777779924251,-0.14583334384257,0.00397062394768,-0.0027488935738802,0.00580321997404099
5,1.02083339474202,0.0347222241455659,-0.150000007336368,-0.0277943685650826,0.00977384392172098,0.00427605677396059
5,1.01666671909226,0.029166668768514,-0.152777778946911,-0.05283984541893,0.00580321997404099,0.0241291765123606
5,1.01944450285877,0.0194444453391775,-0.14722222356986,-0.0678060427308083,0.0109955742955208,0.0265726372599602
5,1.01805561097552,0.0208333341834404,-0.138888896582264,-0.0629191175103188,0.00794124789535999,0.0192422550171614
5,1.01944450285877,0.0236111118719664,-0.150000007336368,-0.0601702257990837,0.0229074470698834,0.01588249579072
5,1.02500007039179,0.0194444453391775,-0.13750000469901,-0.0555887371301651,0.0354301854968071,0.0287106670439243
5,1.01527782720901,0.0125000003581147,-0.144444451959316,-0.0555887371301651,0.0394008085131645,0.0265726372599602
5,1.00972225967599,0.00972222266958873,-0.144444451959316,-0.0626136884093285,0.0369573459029198,0.0354301854968071
5,1.01388893532575,0.00555555575692586,-0.131944449321958,-0.064446285367012,0.0207694191485643,0.0262672062963247
5,1.01388893532575,0.00555555575692586,-0.131944449321958,-0.0623082555830479,0.0204639863222837,0.0247400421649218
5,1.02083339474202,0.00833333382532574,-0.134722233088466,-0.0488692186772823,0.0177150927484035,0.0326812900602817
5,1.0125000434425,0.00972222266958873,-0.140277788465518,-0.0378736443817616,0.01588249579072,0.0299323964864016
5,1.0125000434425,0.00972222266958873,-0.140277788465518,-0.0299323964864016,0.00824668072164059,0.0146607663482428
5,1.01527782720901,0.00555555575692586,-0.13750000469901,-0.0439822971820831,-0.00519235478714108,0.0143553335219622
5,1.01666671909226,0.0125000003581147,-0.140277788465518,-0.04764748737216,-0.00763581553474069,0.0140499006956816
5,1.01666671909226,0.0125000003581147,-0.140277788465518,-0.0406225398182869,-0.0021380283869803,0.00824668072164059
5,1.01944450285877,0.00555555575692586,-0.13750000469901,-0.0366519130766392,0.0125227374956012,0.00702495034784079
5,1.02222228662528,0.00277777787846293,-0.134722233088466,-0.0161879286170006,0.0161879286170006,0.0113010071218014
5,1.01944450285877,0.00138888893923146,-0.125000002061652,0.00305432616733015,0.0167987942695618,0.0161879286170006
5,1.02083339474202,-0.00277777787846293,-0.133333341205212,0.0146607663482428,0.019547687843442,0.00580321997404099
5,1.01944450285877,-0.00277777787846293,-0.125000002061652,0.0244346093386412,0.00610865233466029,0.00305432616733015
5,1.01944450285877,-0.00277777787846293,-0.12777778582816,0.0320704244077206,0.019547687843442,0.00885754637420177
5,1.01944450285877,0.00277777787846293,-0.130555557438704,0.0439822971820831,0.017409659922123,-0.00397062394768
5,1.0125000434425,0.00277777787846293,-0.126388893944906,0.0397062413394451,0.00733038317412138,-0.0033597587607801
5,1.0125000434425,-0.00138888893923146,-0.12777778582816,0.0522289797663689,-0.00671951752156019,-0.00397062394768
5,1.01805561097552,-0.00138888893923146,-0.131944449321958,0.0555887371301651,-0.011606439948082,-0.00702495034784079
5,1.02361117850853,0.00277777787846293,-0.126388893944906,0.0668897479772568,-0.0021380283869803,-0.0033597587607801
5,1.02500007039179,0.00416666691266287,-0.13750000469901,0.064446285367012,-0.0021380283869803,-0.00580321997404099
5,1.02083339474202,0.0111111115138517,-0.138888896582264,0.0616973899304867,0.000305432622553781,-0.0021380283869803
5,1.0125000434425,0.00555555575692586,-0.12777778582816,0.076052725315094,-0.0106901414692402,-0.00885754637420177
5,1.01388893532575,0.00555555575692586,-0.134722233088466,0.0879645943641663,-0.0265726372599602,-0.0122173046693206
5,1.01527782720901,0.00555555575692586,-0.126388893944906,0.0931569486856461,-0.0222965814173222,-0.00916297826915979
5,1.01944450285877,0.0125000003581147,-0.12777778582816,0.0937678143382072,-0.0186313893646002,-0.0192422550171614
5,1.02222228662528,0.0111111115138517,-0.123611110178398,0.0897971913218498,0.0033597587607801,-0.0171042270958424
5,1.02222228662528,0.00972222266958873,-0.12777778582816,0.0864374339580536,0.00152716308366507,-0.0222965814173222
5,1.02500007039179,0.00972222266958873,-0.12777778582816,0.0897971913218498,0.0033597587607801,-0.0247400421649218
5,1.02361117850853,0.00972222266958873,-0.122222230451108,0.0668897479772568,0.0143553335219622,-0.0186313893646002
5,1.02361117850853,0.0138888899621255,-0.133333341205212,0.0595593601465225,0.0210748501121998,-0.00519235478714108
5,1.01944450285877,0.0125000003581147,-0.125000002061652,0.0668897479772568,0.0277943685650826,0.0045814891345799
5,1.01666671909226,0.0125000003581147,-0.120833338567854,0.0717766657471657,0.0247400421649218,0.00519235478714108
5,1.01388893532575,0.0111111115138517,-0.111111119697004,0.0726929605007172,0.0146607663482428,0.00183259579353034
5,1.01805561097552,0.00555555575692586,-0.0986111170596459,0.0632245540618896,0.00152716308366507,0.00824668072164059
5,1.02222228662528,0.00277777787846293,-0.126388893944906,0.0473420582711697,0.00671951752156019,0.01191187184304
5,1.01944450285877,0.00694444498106275,-0.112499999424294,0.0329867228865623,0.00916297826915979,0.01588249579072
5,1.01944450285877,0.00972222266958873,-0.120833338567854,0.0314595587551594,0.0113010071218014,0.00885754637420177
5,1.01666671909226,0.00833333382532574,-0.118055554801345,0.0442877300083637,0.00794124789535999,0.0033597587607801
5,1.01388893532575,0.0125000003581147,-0.123611110178398,0.0452040284872055,0.000610865245107561,-0.00183259579353034
5,1.01805561097552,0.0111111115138517,-0.12777778582816,0.0390953756868839,-0.0140499006956816,-0.00366519158706069
5,1.01805561097552,0.0111111115138517,-0.12777778582816,0.0186313893646002,-0.0146607663482428,-0.00702495034784079
5,1.01527782720901,0.0152777788063885,-0.131944449321958,-0.00152716308366507,-0.0189368221908808,-0.0103847095742822
5,1.02222228662528,0.0152777788063885,-0.131944449321958,-0.0122173046693206,-0.0241291765123606,-0.0171042270958424
5,1.01944450285877,0.00972222266958873,-0.13750000469901,-0.0131336031481624,-0.0210748501121998,-0.0149661982432008
5,1.01527782720901,0.0138888899621255,-0.13750000469901,0.01191187184304,-0.00824668072164059,-0.00702495034784079
5,1.02083339474202,0.0180555564949145,-0.134722233088466,0.0198531206697226,0.00702495034784079,0.0027488935738802
5,1.02083339474202,0.0180555564949145,-0.134722233088466,0.011606439948082,0.0100792767480016,-0.00488692196086049
5,1.02083339474202,0.0166666676506515,-0.130555557438704,-0.0146607663482428,0.000610865245107561,-0.000610865245107561
5,1.01805561097552,0.0138888899621255,-0.126388893944906,-0.0339030213654041,-0.00855211354792118,-0.01191187184304
5,1.01805561097552,0.0138888899621255,-0.126388893944906,-0.0326812900602817,-0.0167987942695618,-0.0164933614432812
5,1.01527782720901,0.0152777788063885,-0.131944449321958,-0.0244346093386412,-0.0207694191485643,-0.0226020142436027
5,1.02777785415829,0.0111111115138517,-0.12916666555545,-0.0253509078174829,0.0027488935738802,-0.0183259565383196
5,1.02777785415829,0.0111111115138517,-0.12916666555545,-0.0326812900602817,0.00427605677396059,-0.0149661982432008
5,1.01805561097552,0.0125000003581147,-0.125000002061652,-0.0409279726445675,-0.00977384392172098,-0.0177150927484035
5,1.01527782720901,0.0111111115138517,-0.125000002061652,-0.0384845100343227,-0.0186313893646002,-0.01588249579072
5,1.01388893532575,0.0152777788063885,-0.12777778582816,-0.0452040284872055,-0.0201585534960032,-0.015577063895762
5,1.01388893532575,0.0194444453391775,-0.140277788465518,-0.0467311926186085,-0.0201585534960032,-0.0143553335219622
5,1.01805561097552,0.0194444453391775,-0.138888896582264,-0.0482583530247212,-0.0164933614432812,-0.00305432616733015
5,1.01666671909226,0.0166666676506515,-0.126388893944906,-0.0403171069920063,-0.0109955742955208,-0.00366519158706069
5,1.02222228662528,0.0138888899621255,-0.131944449321958,-0.0345138870179653,-0.00794124789535999,-0.00549778714776039
5,1.01805561097552,0.0194444453391775,-0.140277788465518,-0.029626963660121,-0.0204639863222837,0.0021380283869803
5,1.0125000434425,0.0152777788063885,-0.144444451959316,-0.0287106670439243,-0.0299323964864016,-0.00427605677396059
5,1.01666671909226,0.0125000003581147,-0.140277788465518,-0.0262672062963247,-0.0250454749912024,-0.00397062394768
5,1.01805561097552,0.0152777788063885,-0.140277788465518,-0.0180205255746841,-0.0161879286170006,-0.00946841109544039
5,1.01666671909226,0.0208333341834404,-0.136111112815755,-0.00702495034784079,-0.0171042270958424,-0.0125227374956012
5,1.01388893532575,0.0152777788063885,-0.14722222356986,-0.00916297826915979,-0.0106901414692402,-0.00488692196086049
5,1.01666671909226,0.0152777788063885,-0.13750000469901,-0.0045814891345799,-0.000610865245107561,-0.00152716308366507
