Activity,acc_x,acc_y,acc_z,gyro_x,gyro_y,gyro_z
0,0.205555561106887,0.0152777788063885,0.930555616825939,0.0659734457731247,-0.0986547395586967,-1.03175139427185
0,0.355555568443255,0.125000002061652,0.92083337364316,0.0623082555830479,0.498771458864212,-1.36161863803864
0,0.483333354271415,0.16527778158427,0.89166674134254,-0.135917514562607,0.839023411273956,-1.4001030921936
0,0.483333354271415,0.16527778158427,0.89166674134254,-0.494495421648026,0.372933238744736,-1.12704634666443
0,0.562499997121468,0.198611113846581,0.899999995394348,-0.508545339107513,-0.167987942695618,-0.645990014076233
0,0.5930555699292,0.156944454596674,0.884722281926269,-0.358272463083267,-0.228463605046272,-0.136528387665749
0,0.575000024070755,0.156944454596674,0.869444471210474,-0.0265726372599602,0.00671951752156019,0.368962615728378
0,0.575000024070755,0.156944454596674,0.869444471210474,0.172874867916107,0.0235183127224445,0.597426235675812
0,0.493055597454194,0.13750000469901,0.848611190209378,0.26969701051712,0.0290160998702049,0.765719592571259
0,0.493055597454194,0.13750000469901,0.848611190209378,0.339946508407593,-0.222965821623802,0.894306719303131
0,0.330555563168539,0.0152777788063885,0.872222254976982,0.492968261241913,-0.826195240020752,0.725097060203552
0,0.24583335278547,0.03194444645704,0.912500022343635,0.653320372104645,-1.00212442874908,0.341473668813705
0,0.236111109602691,0.0666666706026059,0.993055557076942,0.691193997859955,-0.649349749088287,-0.102319926023483
0,0.258333331110899,0.0791666671619817,1.01666671909226,0.421497017145157,-0.524122357368469,-0.472504258155823
0,0.283333336385615,0.0763888894734557,1.01527782720901,0.185703039169311,-0.494495421648026,-0.572380721569061
0,0.380555573717971,0.0986111170596459,0.986111194908388,-0.0445931628346443,-0.167682513594627,-0.44898596405983
0,0.497222224480098,0.151388899219622,0.938888968125464,-0.313679307699203,-0.178678080439568,-0.0363464802503586
0,0.575000024070755,0.180555567988136,0.880555606276507,-0.238848313689232,-0.424245923757553,0.273667633533478
0,0.601388921228725,0.187500003092477,0.823611136310804,0.0397062413394451,-0.38026362657547,0.441350132226944
0,0.595833353695709,0.200000005729836,0.812500049868629,0.204945296049118,-0.150272846221924,0.563523173332214
0,0.575000024070755,0.204166669223633,0.801388914802596,0.197920337319374,0.10567969083786,0.648128032684326
0,0.525000013521323,0.175000000455119,0.818055568777787,0.203112691640854,0.158824965357781,0.663705110549927
0,0.42916666807222,0.126388893944906,0.854166660494678,0.236710280179977,0.208915919065475,0.537866830825806
0,0.297222230906227,0.0694444482911319,0.906944454810619,0.176845490932465,0.0531452745199203,0.076052725315094
0,0.198611113846581,0.0236111118719664,0.958333357243305,0.0235183127224445,0.00885754637420177,-0.401338458061218
0,0.175000000455119,0.0180555564949145,0.977777843608863,-0.01588249579072,0.0180205255746841,-0.526871263980865
0,0.358333352209763,0.138888896582264,0.983333411141879,-0.243735238909721,0.357050746679306,-1.24066734313965
0,0.608333332021137,0.227777782615095,0.947222222177272,-0.543670058250427,0.689972281455994,-1.01220369338989
0,0.773611125761372,0.29166668768514,0.870833363093728,-0.815505087375641,-0.168293371796608,-0.477085769176483
0,0.797222239152834,0.20972223675665,0.812500049868629,-0.535423398017883,-0.279470860958099,0.387593984603882
0,0.787500044593913,0.231944458264858,0.781944477060896,0.102625362575054,-0.0678060427308083,1.0134254693985
0,0.705555569353494,0.227777782615095,0.786111152710659,0.368046313524246,0.0323758572340012,1.30847334861755
0,0.559722261978817,0.158333334323963,0.82222224442755,0.561079740524292,0.143858760595322,1.57633781433105
0,0.359722244093018,0.0541666679652478,0.880555606276507,0.756556630134583,-0.104763388633728,1.55709552764893
0,0.190277786858986,0.00138888893923146,0.934722292475701,0.762665271759033,-0.580016553401947,0.970664858818054
0,0.0736111117849297,-0.0208333341834404,0.986111194908388,0.569326400756836,-0.511905074119568,0.29046642780304
0,0.0583333375370279,-0.0208333341834404,1.04305556762637,0.226325571537018,-0.323758572340012,-0.470366239547729
0,0.156944454596674,0.030555557612777,1.06250005399193,-0.351858377456665,0.0778853222727776,-1.28800940513611
0,0.359722244093018,0.0777777813567098,1.01111115155925,-0.717461228370667,0.345138877630234,-1.5534303188324
0,0.359722244093018,0.0777777813567098,1.01111115155925,-0.894001305103302,0.381790786981583,-1.23516952991486
0,0.777777801411134,0.213888888094483,0.793055563503071,-0.837496280670166,0.297796815633774,-0.547640681266785
0,0.777777801411134,0.213888888094483,0.793055563503071,-0.598647952079773,-0.138055548071861,0.379652738571167
0,0.758333363669434,0.205555561106887,0.680555564078778,-0.00549778714776039,-0.203723564743996,0.837496280670166
0,0.680555564078778,0.187500003092477,0.697222266677827,0.360715925693512,0.108734011650086,1.07573366165161
0,0.680555564078778,0.187500003092477,0.697222266677827,0.596204459667206,0.368962615728378,1.47310149669647
0,0.373611114301701,0.0180555564949145,0.856944444261187,0.678671300411224,0.434325188398361,1.86680424213409
0,0.141666668192807,-0.0819444448505077,0.99583334084345,0.689972281455994,0.163406446576118,1.89001703262329
0,0.141666668192807,-0.0819444448505077,0.99583334084345,0.289550125598908,-0.406530827283859,1.05465888977051
0,-0.0194444453391775,-0.0416666683668809,1.08333333499303,-0.178067222237587,-0.189673662185669,-0.11636982858181
0,-0.0444444460554069,-0.0236111118719664,1.13611112930897,-0.478918343782425,0.41813725233078,-1.20798599720001
0,0.0944444474878658,-0.0236111118719664,1.12499999424293,-0.777020573616028,0.743117570877075,-1.81579697132111
0,0.361111135976272,0.0888888921108138,1.04722224327614,-1.06076753139496,0.842994034290314,-1.6667457818985
0,0.61944446708717,0.154166670830166,0.930555616825939,-1.00365161895752,0.739452362060547,-0.938899874687195
0,0.716666704419527,-0.00972222266958873,0.781944477060896,-0.80328780412674,0.0409279726445675,-0.189062789082527
0,0.729166682744956,0.0875000002275597,0.718055596302781,-0.259923160076141,-0.697913527488708,0.483194410800934
0,0.715277812536273,0.0875000002275597,0.705555569353494,0.559247136116028,-0.251065611839294,1.03022420406342
0,0.559722261978817,0.0805555590452358,0.733333358394718,0.804204106330872,-0.0491746515035629,1.16583633422852
0,0.477777786738398,0.052777782159976,0.769444450111609,0.831693053245544,-0.239459171891212,0.937983572483063
0,0.281944444502361,-0.0222222230277034,0.886111173809523,0.787710726261139,-0.555887401103973,0.223576679825783
0,0.144444451959316,-0.0777777813567098,0.98888888142718,0.464257597923279,-0.616973876953125,-0.45998153090477
0,0.105555564319952,-0.0652777787193518,1.04166667574312,-0.0146607663482428,-0.192117124795914,-1.09528136253357
0,0.176388892338373,-0.0125000003581147,1.07777786470773,-0.529009282588959,0.383928805589676,-1.44286370277405
0,0.333333346935047,0.0930555616825939,1.05555559457566,-0.986241936683655,0.62338799238205,-1.39979767799377
0,0.536111148587356,0.16527778158427,0.973611167959101,-1.06657075881958,0.571464419364929,-0.859487414360046
0,0.687500023495048,0.106944444047242,0.780555585177642,-0.680503904819489,0.0503963828086853,-0.11087204515934
0,0.688888915378302,0.0861111144222878,0.744444493460751,0.0934623852372169,-0.313068449497223,0.514653980731964
0,0.648611148011649,0.0930555616825939,0.718055596302781,0.409279704093933,-0.276721954345703,0.699746131896973
0,0.579166699720517,0.120833338567854,0.75000001236991,0.429438263177872,0.116675265133381,0.737008929252625
0,0.449999997697174,0.0847222225390337,0.823611136310804,0.472198843955994,0.219606056809425,0.544891774654388
0,0.269444466176932,-0.0194444453391775,0.936111184358955,0.553138494491577,-0.142637029290199,0.0882700309157372
0,0.12916666555545,-0.0680555564078778,1.06527783775844,0.3961461186409,-0.294437050819397,-0.456927210092545
0,0.130555557438704,-0.0500000014324589,1.17777778855888,-0.0928515195846558,-0.16371189057827,-1.00426244735718
0,0.166666673467524,-0.0236111118719664,1.17222222102586,-0.625526010990143,-0.0427605658769607,-1.44927775859833
0,0.316666668647927,0.0722222259796579,1.10416671324184,-1.06168377399445,0.297796815633774,-1.661248087883
0,0.519444445988306,0.176388892338373,0.947222222177272,-1.20248818397522,0.46059238910675,-1.42667579650879
0,0.650000039894903,0.170833336961321,0.762500039319197,-0.858265697956085,0.131641462445259,-0.95630955696106
0,0.676388937052873,0.113888891307548,0.645833364245141,0.136833816766739,0.00183259579353034,-0.135001212358475
0,0.672222261403111,0.0944444474878658,0.625000034620187,0.585819780826569,-0.199752941727638,0.475253164768219
0,0.591666678045946,0.104166672436698,0.673611153286365,0.794430255889893,-0.206777885556221,0.822224617004395
0,0.456944457113445,0.0625000010308258,0.754166688019672,1.07054138183594,-0.520457208156586,0.859181940555573
0,0.327777779402031,0.0361111129898289,0.84583340644287,1.40804433822632,-1.07939887046814,0.568715572357178
0,0.233333350148112,0.0388888906783549,0.94305554652751,1.50578284263611,-1.13956916332245,0.123394779860973
0,0.198611113846581,0.0416666683668809,1.03194452980806,1.31855261325836,-1.06107294559479,-0.40714168548584
0,0.238888893369199,0.0722222259796579,1.09444447005906,0.769384801387787,-0.613308727741241,-0.883311152458191
0,0.300000014672736,0.0861111144222878,1.10416671324184,0.183565005660057,-0.307876080274582,-1.07267940044403
0,0.333333346935047,0.111111119697004,1.0333333244436,-0.392480909824371,-0.36041048169136,-1.22325766086578
0,0.348611133338914,0.161111118090472,0.916666697993398,-0.70829826593399,-0.666759431362152,-1.50914263725281
0,0.408333338447267,0.197222234119292,0.858333336144441,-0.428216546773911,-0.727235078811646,-1.6823228597641
0,0.502777792013115,0.238888893369199,0.801388914802596,0.0574213340878487,-0.870482981204987,-1.6578882932663
0,0.577777807837263,0.243055569018962,0.773611125761372,0.54428094625473,-1.32802104949951,-1.22020328044891
0,0.611111115787646,0.268055574293678,0.755555579902926,0.667981147766113,-1.69728910923004,-0.830776751041412
0,0.591666678045946,0.294444447139719,0.752777796136418,0.564744889736176,-1.61665487289429,-0.619417369365692
0,0.601388921228725,0.33750002258481,0.765277823085705,0.408974289894104,-1.35856425762176,-0.627969443798065
0,0.670833369519857,0.384722225055805,0.745833336720147,0.0827722400426865,-1.10719323158264,-0.630107522010803
0,0.745833336720147,0.401388903342925,0.691666699144811,-0.0827722400426865,-1.38880217075348,-0.430049121379852
0,0.769444450111609,0.420833365396554,0.640277796712124,0.0311541277915239,-1.28434419631958,-0.096211276948452
0,0.712500028769764,0.426388884305712,0.609722223904392,0.335059583187103,-0.442266434431076,0.0824668109416962
0,0.712500028769764,0.426388884305712,0.609722223904392,0.277638256549835,-0.184786736965179,-0.0100792767480016
0,0.680555564078778,0.351388892793493,0.693055591028065,0.135001212358475,-0.332005262374878,0.01191187184304
0,0.680555564078778,0.351388892793493,0.693055591028065,-0.0045814891345799,-0.201585531234741,-0.0180205255746841
0,0.656944450687316,0.334722238818301,0.734722250277972,-0.114537231624126,-0.0461203269660473,-0.0357356183230877
0,0.656944450687316,0.334722238818301,0.734722250277972,-0.207694187760353,0.188757359981537,-0.017409659922123
0,0.675000045169619,0.325000019947452,0.706944461236748,-0.184175878763199,0.253203630447388,0.0519235469400883
0,0.666666693870094,0.312500017310094,0.706944461236748,-0.126143679022789,0.265420943498612,0.0714712366461754
0,0.666666693870094,0.312500017310094,0.706944461236748,0.0583376325666905,0.401338458061218,-0.0729983970522881
0,0.605555596878487,0.275000009398019,0.702777785586986,0.0916297882795334,0.318871647119522,-0.242208063602448
0,0.584722267253534,0.250000004123303,0.697222266677827,0.13225232064724,0.300545692443848,-0.361326783895493
0,0.597222245578963,0.244444460902216,0.718055596302781,0.103236228227615,0.531147301197052,-0.328340083360672
0,0.601388921228725,0.252777787889811,0.743055601577497,0.0516181141138077,0.528398454189301,-0.275805652141571
0,0.594444461812454,0.25555557165632,0.759722255552688,-0.00733038317412138,0.419053554534912,-0.25411993265152
0,0.625000034620187,0.305555557893823,0.788888936477167,-0.0931569486856461,0.22754730284214,-0.233350530266762
0,0.641666688595378,0.343055565805897,0.768055606852213,-0.147523954510689,-0.502131223678589,-0.0922406539320946
0,0.681944455962032,0.377777789951463,0.691666699144811,0.197614908218384,-0.194866016507149,0.183870434761047
0,0.686111131611794,0.368055571080613,0.661111126337078,0.510683357715607,0.446542501449585,0.372933238744736
0,0.630555602153203,0.370833354847121,0.709722245003256,0.242818936705589,0.431881725788117,0.222965821623802
0,0.555555586329055,0.354166676560001,0.779166693294388,-0.130419731140137,0.197004035115242,-0.0711658000946045
0,0.555555586329055,0.347222241455659,0.790277828360421,-0.118813291192055,0.158824965357781,-0.127976268529892
0,0.576388915954009,0.344444457689151,0.777777801411134,-0.0833831056952477,0.0836885422468185,-0.138971850275993
0,0.561111153862072,0.320833344297689,0.777777801411134,-0.129197999835014,0.0882700309157372,-0.115148097276688
0,0.533333364820847,0.305555557893823,0.762500039319197,-0.199447497725487,0.15851953625679,-0.16890424489975
0,0.530555581054339,0.305555557893823,0.75000001236991,-0.150272846221924,0.197614908218384,-0.22693644464016
0,0.551388910679293,0.312500017310094,0.744444493460751,-0.0427605658769607,0.189062789082527,-0.242818936705589
0,0.563888889004722,0.316666668647927,0.731944466511464,0.0131336031481624,0.167377084493637,-0.156076073646545
0,0.568055564654484,0.302777798439244,0.737500034044481,0.000610865245107561,0.233350530266762,-0.103847093880177
0,0.538888932353864,0.29166668768514,0.754166688019672,-0.0705549344420433,0.257174253463745,-0.123700208961964
0,0.527777797287831,0.295833339022973,0.751388904253164,-0.0659734457731247,0.309097826480865,-0.217468023300171
0,0.558333370095563,0.322222236180943,0.761111147435943,-0.0229074470698834,0.244346097111702,-0.193644285202026
0,0.581944483487025,0.334722238818301,0.765277823085705,0.00671951752156019,0.101098194718361,-0.0940732508897781
0,0.575000024070755,0.334722238818301,0.781944477060896,0.019547687843442,-0.0229074470698834,0.0204639863222837
0,0.568055564654484,0.331944455051793,0.787500044593913,-0.0210748501121998,-0.0659734457731247,0.0235183127224445
0,0.569444456537738,0.331944455051793,0.809722266102121,-0.118202425539494,-0.266337245702743,0.0149661982432008
0,0.565277780887976,0.325000019947452,0.801388914802596,-0.147523954510689,-0.4331034719944,0.0241291765123606
0,0.550000018796039,0.313888909193348,0.788888936477167,-0.134390354156494,-0.338113903999329,-0.0424551330506802
0,0.53750004047061,0.318055560531181,0.779166693294388,-0.102930791676045,-0.0775798857212067,-0.0922406539320946
0,0.552777802562547,0.322222236180943,0.773611125761372,-0.0766635909676552,0.0690277740359306,-0.0571159012615681
0,0.597222245578963,0.327777779402031,0.775000017644626,-0.130725160241127,-0.0109955742955208,-0.00916297826915979
0,0.594444461812454,0.331944455051793,0.772222233878117,-0.17409659922123,-0.027488935738802,-0.00244346098043024
0,0.575000024070755,0.333333346935047,0.766666714968959,-0.135917514562607,0.0705549344420433,-0.0293215326964855
0,0.573611132187501,0.322222236180943,0.762500039319197,-0.0708603709936142,0.124616511166096,-0.0531452745199203
0,0.575000024070755,0.322222236180943,0.765277823085705,-0.0842994004487991,0.276721954345703,-0.0678060427308083
0,0.602777813111979,0.340277782039389,0.769444450111609,-0.107512280344963,0.416610091924667,-0.0152716310694814
0,0.613888899554154,0.327777779402031,0.779166693294388,-0.210137650370598,0.332310706377029,0.115453533828259
0,0.666666693870094,0.331944455051793,0.78333336894415,-0.34880405664444,0.186924770474434,0.383928805589676
0,0.661111126337078,0.327777779402031,0.794444455386325,-0.59315013885498,-0.0311541277915239,0.652098655700684
0,0.569444456537738,0.294444447139719,0.763888931202451,-0.589484989643097,1.05374252796173,0.606589198112488
0,0.420833365396554,0.288888903918631,0.706944461236748,-0.602313160896301,1.98103594779968,0.225714713335037
0,0.424999992422458,0.265277790527169,0.737500034044481,-0.747699081897736,2.69177770614624,-0.167071640491486
0,0.444444478788016,0.215277779977737,0.779166693294388,-0.888808906078339,2.266921043396,-0.0638354197144508
0,0.444444478788016,0.215277779977737,0.779166693294388,-0.981049597263336,1.54762709140778,0.22235494852066
0,0.348611133338914,0.197222234119292,0.844444514559616,-0.670424580574036,1.05435335636139,0.308181524276733
0,0.348611133338914,0.197222234119292,0.844444514559616,-0.563523173332214,1.07451200485229,0.265420943498612
0,0.325000019947452,0.180555567988136,0.872222254976982,-0.404698222875595,1.22509026527405,0.143858760595322
0,0.315277801076602,0.161111118090472,0.894444525109048,-0.311846703290939,1.24524879455566,0.0372627787292004
0,0.295833339022973,0.131944449321958,0.94305554652751,-0.346971452236175,0.846353769302368,-0.0849102661013603
0,0.281944444502361,0.113888891307548,0.993055557076942,-0.407447129487991,0.649655163288116,-0.166766211390495
0,0.276388901281273,0.0986111170596459,1.0125000434425,-0.686917960643768,0.658512711524963,-0.134695783257484
0,0.252777787889811,0.104166672436698,1.01388893532575,-1.44500172138214,1.23883473873138,-0.107512280344963
0,0.230555566381603,0.101388894748172,0.98888888142718,-1.60168862342834,1.49112200736999,-0.190895393490791
0,0.212499996211229,0.0722222259796579,0.956944465360051,-1.35031759738922,1.21256756782532,-0.366519153118133
0,0.193055558469529,0.0236111118719664,0.934722292475701,-1.15392446517944,0.80328780412674,-0.386066824197769
0,0.158333334323963,-0.026388891079988,0.93750007624221,-0.795346558094025,0.651793241500854,-0.272140473127365
0,0.20138889761309,-0.0722222259796579,0.958333357243305,-0.583070874214172,0.0824668109416962,-0.210748508572578
0,0.170833336961321,-0.0722222259796579,0.976388951725609,-0.651182353496552,-0.403476506471634,0.22693644464016
0,0.18333333959868,-0.0583333375370279,0.968055600426084,-0.48197266459465,0.148745685815811,0.454178303480148
0,0.13750000469901,0.00972222266958873,0.931944508709193,-0.28496864438057,0.81428337097168,0.468839079141617
0,0.13750000469901,0.00972222266958873,0.931944508709193,-0.0531452745199203,1.06046211719513,0.336586743593216
0,0.115277783190802,-0.00416666691266287,0.936111184358955,0.0534507073462009,0.769690215587616,0.235183119773865
0,0.0972222251763917,-0.00277777787846293,0.93750007624221,0.210748508572578,0.251371055841446,0.0244346093386412
0,0.126388893944906,0.0472222237439329,0.911111130460381,0.247705861926079,-0.150883719325066,-0.200669229030609
0,0.12777778582816,0.0694444482911319,0.951388897827035,0.177150920033455,0.826195240020752,-0.34880405664444
0,0.0819444448505077,0.0444444460554069,1.00138890837647,0.168293371796608,2.01096844673157,-0.273667633533478
0,0.0625000010308258,0.0236111118719664,1.05694448645892,0.135612085461616,2.95506072044373,-0.144164204597473
0,0.0416666683668809,0.00138888893923146,1.09166668629255,-0.0763581544160843,3.15237021446228,0.104152522981167
0,-0.00972222266958873,0.00138888893923146,1.08194444310977,-0.160046696662903,2.64657378196716,0.230907067656517
0,-0.0444444460554069,-0.0194444453391775,1.04305556762637,-0.147829383611679,1.51952731609345,0.24312436580658
0,-0.0722222259796579,-0.0208333341834404,1.02500007039179,-0.0378736443817616,0.949895441532135,0.438295811414719
0,-0.0916666697993398,-0.0194444453391775,1.02222228662528,-0.0937678143382072,0.866512358188629,0.719293832778931
0,-0.0777777813567098,0.0180555564949145,1.02361117850853,-0.188451930880547,1.1157454252243,0.803593218326569
0,-0.0986111170596459,0.03194444645704,1.0125000434425,-0.0748309940099716,1.74951803684235,0.979522407054901
0,-0.12916666555545,0.0180555564949145,1.04583335139288,0.28557950258255,1.57572686672211,1.26662909984589
0,-0.293055555256465,-0.00972222266958873,1.03194452980806,-0.0668897479772568,0.318871647119522,1.88604640960693
0,-0.302777798439244,-0.0347222241455659,0.968055600426084,-1.14689946174622,-1.33260250091553,2.38909387588501
0,-0.276388901281273,-0.00416666691266287,0.973611167959101,-1.46607661247253,-1.71500420570373,2.27028059959412
0,-0.126388893944906,0.0430555572111439,0.947222222177272,-1.58672249317169,-1.77731239795685,1.71958565711975
0,-0.0833333367337618,0.0388888906783549,0.93750007624221,-1.94163513183594,-0.980438709259033,0.865901470184326
0,-0.00277777787846293,0.00972222266958873,0.913888914226889,-1.90498328208923,0.29107728600502,0.566272079944611
0,-0.0388888906783549,-0.0375000018340919,0.918055589876652,-1.82801425457001,0.69272118806839,0.568715572357178
0,-0.00972222266958873,-0.0750000036681839,0.884722281926269,-1.28770399093628,0.197004035115242,0.533896207809448
0,-0.0625000010308258,-0.197222234119292,0.940277860008718,-0.513126790523529,-0.545808076858521,0.358272463083267
0,-0.0736111117849297,-0.197222234119292,0.877777822509998,-0.300240278244019,-0.662483334541321,0.386983126401901
0,-0.101388894748172,-0.131944449321958,0.805555590452358,-0.228158175945282,-0.864374339580536,0.231823354959488
0,-0.0819444448505077,-0.0777777813567098,0.788888936477167,-0.259312301874161,-2.15024566650391,-0.294131606817245
0,-0.0777777813567098,-0.126388893944906,0.855555552377932,-0.741284966468811,-3.08486938476563,-0.404698222875595
0,-0.0222222230277034,-0.156944454596674,0.930555616825939,-1.66033172607422,-2.74309039115906,-0.537256002426147
0,0.0875000002275597,-0.206944452990142,0.96666670854283,-2.27272415161133,-1.50028502941132,-0.60261857509613
0,0.112499999424294,-0.220833347510754,1.00555558402623,-2.33778119087219,0.471893399953842,-0.542753756046295
0,0.0916666697993398,-0.268055574293678,1.0125000434425,-2.12458920478821,1.22845005989075,-0.486248731613159
0,0.0930555616825939,-0.384722225055805,0.991666665193688,-2.26264476776123,0.812756180763245,-0.629191219806671
0,0.029166668768514,-0.451388889580428,0.887500065692777,-2.81395077705383,-0.487775892019272,-0.479834645986557
0,0.0111111115138517,-0.440277803138253,0.827777811960566,-3.30111575126648,-1.17133414745331,-0.566272079944611
0,0.0972222251763917,-0.493055597454194,0.858333336144441,-3.49659276008606,-1.57053458690643,-1.01403629779816
0,0.0986111170596459,-0.659722234453824,0.933333400592447,-3.20795893669128,-0.842688620090485,-1.35520458221436
0,0.0750000036681839,-0.781944477060896,0.918055589876652,-2.59678816795349,0.740674138069153,-1.43186807632446
0,0.0750000036681839,-0.781944477060896,0.918055589876652,-1.81671321392059,0.933096647262573,-1.37872290611267
0,0.140277788465518,-0.887500065692777,0.647222256128395,-0.186008468270302,-0.737314343452454,-1.32954823970795
0,0.2194444556275,-0.880555606276507,0.627777818386695,0.913548946380615,-1.16064393520355,-1.6511687040329
0,0.2194444556275,-0.880555606276507,0.627777818386695,0.775798857212067,-1.39094018936157,-1.81579697132111
0,0.279166685047782,-0.962500032893068,0.78333336894415,-0.53481251001358,-2.49507904052734,-2.05311799049377
0,0.345833349572405,-0.951388897827035,0.801388914802596,-2.16551733016968,-2.66245627403259,-2.57265901565552
0,0.452777781463682,-0.884722281926269,0.688888915378302,-3.10380625724792,-2.66337251663208,-2.22171688079834
0,0.544444451263022,-0.993055557076942,0.550000018796039,-3.1224377155304,-3.04821753501892,-1.99447500705719
0,0.613888899554154,-0.990277773310434,0.47500000297189,-2.73606538772583,-2.97888445854187,-2.0146336555481
0,0.611111115787646,-0.906944454810619,0.473611111088636,-2.50454759597778,-1.58794414997101,-2.11145567893982
0,0.630555602153203,-0.772222233878117,0.400000011459671,-2.52226257324219,-0.657901883125305,-2.18078899383545
0,0.558333370095563,-0.848611190209378,0.29166668768514,-2.12000775337219,-0.60261857509613,-1.53999125957489
0,0.565277780887976,-0.823611136310804,0.290277795801886,-1.43767130374908,-0.0482583530247212,-1.03388941287994
0,0.681944455962032,-0.827777811960566,0.301388906555989,-0.934012949466705,-0.0369573459029198,-1.4611896276474
0,0.820833352544296,-0.755555579902926,0.25555557165632,-1.18813288211823,-1.16950154304504,-1.82954144477844
0,0.85138887672817,-0.743055601577497,0.265277790527169,-1.6978999376297,-2.22446584701538,-2.00058364868164
0,0.879166714393253,-0.709722245003256,0.281944444502361,-2.12306213378906,-2.62672066688538,-1.88451933860779
0,0.855555552377932,-0.676388937052873,0.279166685047782,-2.3402247428894,-2.56991004943848,-1.62032008171081
0,0.833333379493583,-0.613888899554154,0.212499996211229,-2.49477362632752,-2.36862993240356,-1.38758039474487
0,0.84583340644287,-0.551388910679293,0.138888896582264,-2.27180790901184,-1.71439325809479,-1.03266775608063
0,0.848611190209378,-0.470833327322128,0.0486111125881959,-1.40926611423492,-1.12521374225616,-0.59650993347168
0,0.849999984844916,-0.470833327322128,-0.0180555564949145,-0.972802877426147,-1.4556919336319,-0.519846320152283
0,0.797222239152834,-0.190277786858986,0.531944472937593,-2.73056769371033,-0.0235183127224445,-0.989907145500183
0,0.659722234453824,-0.325000019947452,0.00972222266958873,-3.46635484695435,-1.4645494222641,-1.16705811023712
0,0.731944466511464,-0.379166681834717,-0.00555555575692586,-2.89580678939819,-1.01739609241486,-0.581238269805908
0,0.801388914802596,-0.384722225055805,-0.0777777813567098,-2.48530530929565,-0.600785970687866,-0.382096201181412
0,0.844444514559616,-0.430555559955475,-0.172222228844576,-2.04395508766174,-1.61268424987793,-0.380874484777451
0,0.812500049868629,-0.33750002258481,-0.195833342236038,-1.49264919757843,-1.61970925331116,-0.296269655227661
0,0.762500039319197,-0.356944460326509,-0.202777789496344,-1.01617431640625,-0.996932089328766,-0.453872889280319
0,0.751388904253164,-0.379166681834717,-0.315277801076602,-0.861320018768311,-2.1102340221405,-0.723264455795288
0,0.852777768611424,-0.323611128064198,-0.308333341660331,-0.764497876167297,-2.25164937973023,-1.01281452178955
0,0.87500003874349,-0.331944455051793,-0.318055560531181,-0.103847093880177,-0.539394021034241,-0.580016553401947
0,0.969444492309338,-0.338888890156135,-0.348611133338914,-0.177150920033455,0.315817326307297,0.0265726372599602
0,0.956944465360051,-0.395833335809908,-0.451388889580428,-0.0913243517279625,0.134084925055504,0.29596421122551
0,0.837500055143345,-0.390277792588821,-0.415277797863537,0.0821613743901253,-0.222660377621651,0.381485342979431
0,0.755555579902926,-0.356944460326509,-0.387500008822313,0.238848313689232,0.232128798961639,0.325896620750427
0,0.722222271952543,-0.283333336385615,-0.415277797863537,0.261144906282425,0.580932855606079,0.0891863256692886
0,1.10972228077486,-0.301388906555989,-0.543055559379768,-0.361021369695664,-0.306348919868469,-0.816421389579773
0,0.909722238577127,-0.230555566381603,-0.518055554105052,-1.73455190658569,-0.129503428936005,-1.10077917575836
0,0.752777796136418,-0.248611112240049,-0.294444447139719,-0.447764217853546,1.98622834682465,-0.650876939296722
0,0.786111152710659,-0.263888898643915,-0.458333348996699,-1.07145762443543,0.540004849433899,-1.18385684490204
0,0.930555616825939,-0.252777787889811,-0.525000013521323,0.265420943498612,1.44805610179901,-0.589179515838623
0,0.979166735492117,-0.262500006760661,-0.479166678621653,0.167377084493637,0.609948933124542,-0.246789559721947
0,0.979166735492117,-0.262500006760661,-0.479166678621653,-0.00794124789535999,0.355829000473023,0.378431022167206
0,0.95000000594378,-0.24583335278547,-0.433333343721983,0.0864374339580536,0.364075690507889,0.630718350410461
0,1.05000002704265,-0.312500017310094,-0.483333354271415,-0.153938040137291,0.130419731140137,0.310014098882675
0,1.05000002704265,-0.312500017310094,-0.483333354271415,-0.197309479117393,0.203112691640854,0.248927593231201
0,1.02500007039179,-0.323611128064198,-0.44583337067127,-0.0494800843298435,0.326812893152237,0.0131336031481624
0,0.952777789710289,-0.305555557893823,-0.394444468238583,-0.0864374339580536,0.272751331329346,-0.16401731967926
0,0.952777789710289,-0.305555557893823,-0.394444468238583,0.158214092254639,0.480140089988708,-0.064446285367012
0,0.805555590452358,-0.377777789951463,-0.302777798439244,0.211053937673569,0.573602437973022,-0.115453533828259
0,0.912500022343635,-0.181944447715425,-0.384722225055805,0.0956004112958908,0.741895854473114,-0.42363503575325
0,0.912500022343635,-0.181944447715425,-0.384722225055805,-0.0616973899304867,0.644768238067627,-1.05862951278687
0,0.965277816659576,-0.262500006760661,-0.361111135976272,-0.160046696662903,0.305127203464508,-0.783434689044952
0,0.984722303025134,-0.168055565350778,-0.365277787314105,-0.0726929605007172,0.231212496757507,-0.34880405664444
0,0.984722303025134,-0.168055565350778,-0.365277787314105,-0.115758962929249,0.136222943663597,-0.0888808965682983
0,0.962500032893068,-0.163888889701015,-0.341666673922643,0.0739146918058395,0.0519235469400883,0.0192422550171614
0,1.00416669214298,-0.2194444556275,-0.322222236180943,0.0494800843298435,0.0943786799907684,0.0531452745199203
0,0.975000059842355,-0.212499996211229,-0.341666673922643,0.0403171069920063,0.178678080439568,0.0320704244077206
0,0.933333400592447,-0.212499996211229,-0.352777784676747,0.244956970214844,0.661872506141663,0.154854342341423
0,0.815277785011279,-0.259722222994153,-0.283333336385615,-0.0235183127224445,0.237015709280968,0.379041880369186
0,0.911111130460381,-0.168055565350778,-0.277777793164528,-0.184175878763199,-0.0946841165423393,0.225103840231896
0,0.993055557076942,-0.158333334323963,-0.318055560531181,-0.00977384392172098,-0.0180205255746841,0.304821759462357
0,1.08194444310977,-0.24583335278547,-0.362500003547597,-0.0549778714776039,-0.108734011650086,0.109344877302647
0,0.991666665193688,-0.308333341660331,-0.327777779402031,-0.164322748780251,-0.264504641294479,-0.131641462445259
0,0.941666654644256,-0.341666673922643,-0.426388884305712,-0.296269655227661,0.362853944301605,-0.142331600189209
0,0.784722260827405,-0.131944449321958,-0.404166687109433,-0.0448985956609249,1.48684597015381,0.456316351890564
0,0.848611190209378,-0.236111109602691,-0.424999992422458,-0.260839462280273,2.03082156181335,0.45509460568428
0,0.880555606276507,-0.200000005729836,-0.0125000003581147,-0.199142068624496,0.187535628676414,0.77152281999588
0,0.936111184358955,-0.193055558469529,-0.150000007336368,-0.0901026204228401,-0.2165517359972,0.772439122200012
0,1.09305557817581,-0.287500012035377,-0.188888894975731,0.156381502747536,-0.556498229503632,0.401033043861389
0,1.04583335139288,-0.29166668768514,-0.243055569018962,0.266337245702743,-0.356745302677154,0.231517925858498
0,0.969444492309338,-0.263888898643915,-0.266666682410424,0.109650313854218,-0.489303052425385,0.212275668978691
0,0.986111194908388,-0.300000014672736,-0.348611133338914,0.0537561401724815,-0.107512280344963,0.130114302039146
0,1.04305556762637,-0.325000019947452,-0.377777789951463,0.0534507073462009,0.266642689704895,0.00641408516094089
0,0.958333357243305,-0.298611122789481,-0.319444452414435,0.0122173046693206,0.418748140335083,-0.0415388382971287
0,0.870833363093728,-0.288888903918631,-0.316666668647927,-0.0931569486856461,0.587346911430359,-0.398284137248993
0,1.05555559457566,-0.413888905980283,-0.515277818962402,-0.395229816436768,2.01005220413208,-1.10536062717438
0,1.06527783775844,-0.375000006184955,-0.405555578992687,0.2165517359972,-0.122783914208412,-0.542448341846466
0,0.909722238577127,-0.130555557438704,-0.029166668768514,0.0128281703218818,-0.22174409031868,-0.282219737768173
0,0.930555616825939,-0.238888893369199,-0.304166666010569,-0.226325571537018,0.646295428276062,-0.16890424489975
0,0.984722303025134,-0.223611131277262,-0.326388911830706,-0.326507478952408,0.759305477142334,-0.102930791676045
0,1.01527782720901,-0.248611112240049,-0.252777787889811,-0.415082931518555,0.525649547576904,-0.287412106990814
0,0.990277773310434,-0.244444460902216,-0.172222228844576,-0.198531210422516,0.270613312721252,-0.211970239877701
0,0.912500022343635,-0.244444460902216,-0.152777778946911,-0.0241291765123606,0.0265726372599602,-0.319787949323654
0,0.94305554652751,-0.200000005729836,-0.166666673467524,-0.00610865233466029,-0.217162594199181,-0.131946891546249
0,1.06250005399193,-0.190277786858986,-0.202777789496344,0.0442877300083637,-0.244956970214844,0.0433714315295219
0,1.06805562152495,-0.188888894975731,-0.25555557165632,0.103236228227615,-0.0772744566202164,0.0891863256692886
0,0.972222276075846,-0.18333333959868,-0.240277785252453,0.00305432616733015,-0.115148097276688,0.148440256714821
0,0.961111141009813,-0.226388890731841,-0.190277786858986,0.0693332031369209,-0.182343274354935,0.0494800843298435
0,1.03472221632685,-0.266666682410424,-0.236111109602691,0.0971275717020035,0.0207694191485643,-0.10048733651638
0,1.0513889189259,-0.234722242031366,-0.272222225631511,-0.0204639863222837,0.0400116741657257,-0.0268780700862408
0,0.980555627375371,-0.20972223675665,-0.229166674498349,0.0250454749912024,0.0445931628346443,0.0284052342176437
0,0.934722292475701,-0.176388892338373,-0.197222234119292,0.0360410511493683,0.00916297826915979,0.13744467496872
0,0.963888924776322,-0.273611117514765,-0.202777789496344,-0.0537561401724815,0.277638256549835,-0.0140499006956816
0,0.963888924776322,-0.273611117514765,-0.202777789496344,-0.0537561401724815,0.277638256549835,-0.0140499006956816
0,0.963888924776322,-0.273611117514765,-0.202777789496344,-0.0537561401724815,0.277638256549835,-0.0140499006956816
0,0.963888924776322,-0.273611117514765,-0.202777789496344,-0.0412334054708481,0.151189148426056,-0.0549778714776039
0,0.976388951725609,-0.254166679773066,-0.204166669223633,0.0479529201984406,-0.0959058403968811,-0.0332921557128429
0,0.983333411141879,-0.229166674498349,-0.206944452990142,-0.0363464802503586,-0.0616973899304867,0.0665843114256859
0,0.831944487610329,-0.251388896006557,-0.280555576931036,-0.140499010682106,0.270307868719101,0.459370672702789
0,0.706944461236748,-0.231944458264858,-0.200000005729836,-0.0714712366461754,-0.0360410511493683,1.14903748035431
0,0.922222265526414,-0.204166669223633,-0.154166670830166,0.0907134860754013,-0.422413319349289,1.23761296272278
0,0.970833384192592,-0.187500003092477,-0.294444447139719,-0.0100792767480016,-0.0736092627048492,1.49020576477051
0,0.948611114060526,-0.356944460326509,-0.251388896006557,0.235183119773865,0.304821759462357,1.34023833274841
0,1.08750001064279,-0.42916666807222,-0.252777787889811,0.266031801700592,0.630718350410461,0.938899874687195
0,1.03750000009336,-0.443055586904762,-0.195833342236038,0.314595609903336,0.712574303150177,0.543364644050598
0,1.25555563677339,-0.437500019371745,-0.166666673467524,0.315206468105316,0.346666038036346,0.168598800897598
0,1.08472222687628,-0.372222246730376,-0.15555556271342,0.39675697684288,0.328340083360672,-0.0696386396884918
0,0.994444448960196,-0.345833349572405,-0.143055560076062,0.326812893152237,0.0113010071218014,-0.100181899964809
0,0.940277860008718,-0.369444462963867,-0.18333333959868,0.208915919065475,0.0858265683054924,-0.247094988822937
0,0.84583340644287,-0.351388892793493,-0.156944454596674,-0.0433714315295219,0.0464257597923279,-0.409279704093933
0,0.870833363093728,-0.334722238818301,-0.140277788465518,0.013744467869401,-0.19578230381012,-0.379347324371338
0,0.976388951725609,-0.340277782039389,-0.18333333959868,-0.0329867228865623,-0.193949714303017,-0.197614908218384
0,1.07083340529146,-0.345833349572405,-0.216666671860991,-0.0943786799907684,0.0766635909676552,-0.220827788114548
0,1.05833337834217,-0.326388911830706,-0.170833336961321,-0.101098194718361,0.450207680463791,-0.25961771607399
0,1.04583335139288,-0.341666673922643,-0.100000002864918,0.182648703455925,0.738230645656586,-0.306654363870621
0,0.933333400592447,-0.334722238818301,-0.134722233088466,0.02382374368608,0.674089789390564,-0.394618958234787
0,0.990277773310434,-0.308333341660331,-0.14722222356986,-0.0882700309157372,0.143553331494331,-0.251676470041275
0,0.981944519258625,-0.295833339022973,-0.14583334384257,-0.0965167060494423,0.177761793136597,-0.135612085461616
0,0.981944519258625,-0.295833339022973,-0.14583334384257,-0.163101017475128,0.156381502747536,-0.0723875313997269
0,0.986111194908388,-0.33750002258481,-0.115277783190802,0.0534507073462009,0.22724187374115,-0.103847093880177
0,1.00555558402623,-0.287500012035377,-0.120833338567854,0.101098194718361,0.141415297985077,-0.081855945289135
0,1.00555558402623,-0.287500012035377,-0.120833338567854,0.102625362575054,0.0180205255746841,-0.0229074470698834
0,0.94305554652751,-0.287500012035377,-0.112499999424294,0.106901414692402,-0.0885754600167274,-0.00122173049021512
0,0.973611167959101,-0.311111125426839,-0.136111112815755,0.0916297882795334,-0.0629191175103188,0.0241291765123606
0,0.973611167959101,-0.311111125426839,-0.136111112815755,-0.0287106670439243,-0.319787949323654,-0.00366519158706069
0,0.969444492309338,-0.313888909193348,-0.120833338567854,-0.111482910811901,-0.429132848978043,0.0494800843298435
0,1.01388893532575,-0.325000019947452,-0.166666673467524,-0.0366519130766392,-0.178983509540558,0.0244346093386412
0,1.01388893532575,-0.325000019947452,-0.166666673467524,-0.0171042270958424,-0.0928515195846558,0.00397062394768
0,1.00833336779274,-0.322222236180943,-0.158333334323963,0.0552833043038845,-0.0387899428606033,0.0183259565383196
0,0.961111141009813,-0.306944449777077,-0.143055560076062,0.0213802829384804,-0.00916297826915979,0.0183259565383196
0,0.954166681593543,-0.309722233543585,-0.130555557438704,-0.0467311926186085,-0.0720821022987366,-0.0210748501121998
0,0.997222232726705,-0.309722233543585,-0.161111118090472,-0.153021737933159,0.0342084541916847,-0.0442877300083637
0,1.0333333244436,-0.318055560531181,-0.18333333959868,-0.131336033344269,0.118202425539494,-0.0262672062963247
0,1.00000001649321,-0.318055560531181,-0.150000007336368,-0.0106901414692402,0.0949895456433296,0.0241291765123606
0,0.95000000594378,-0.309722233543585,-0.122222230451108,0.0613919571042061,0.16401731967926,0.128587126731873
0,0.944444438410764,-0.288888903918631,-0.136111112815755,0.00244346098043024,0.149051114916802,0.113620936870575
0,0.99583334084345,-0.305555557893823,-0.144444451959316,-0.000610865245107561,0.147523954510689,0.0583376325666905
0,1.00972225967599,-0.316666668647927,-0.1194444466846,0.0171042270958424,-0.00183259579353034,0.01191187184304
0,0.961111141009813,-0.315277801076602,-0.105555564319952,-0.0177150927484035,-0.267864406108856,-0.0229074470698834
0,0.972222276075846,-0.29166668768514,-0.125000002061652,-0.0980438739061356,-0.161268427968025,0.0461203269660473
0,0.98888888142718,-0.301388906555989,-0.15555556271342,-0.0723875313997269,0.0027488935738802,0.0503963828086853
0,0.973611167959101,-0.327777779402031,-0.106944444047242,0.0241291765123606,0.0452040284872055,-0.0366519130766392
0,0.975000059842355,-0.318055560531181,-0.138888896582264,-0.0268780700862408,-0.00183259579353034,-0.0916297882795334
0,1.00000001649321,-0.293055555256465,-0.152777778946911,-0.0604756586253643,0.164628177881241,-0.0943786799907684
0,1.01527782720901,-0.301388906555989,-0.12777778582816,-0.0784961804747581,0.233350530266762,-0.0751364231109619
0,0.975000059842355,-0.302777798439244,-0.120833338567854,-0.00519235478714108,0.396451532840729,0.109344877302647
0,0.929166724942685,-0.313888909193348,-0.0916666697993398,0.114842668175697,0.234266817569733,0.107206851243973
0,0.941666654644256,-0.316666668647927,-0.101388894748172,0.113315500319004,-0.145996794104576,-0.0482583530247212
0,1.00694447590948,-0.298611122789481,-0.211111128639904,-0.0812450796365738,-0.474336862564087,-0.175318330526352
0,1.02222228662528,-0.325000019947452,-0.13750000469901,-0.104152522981167,-0.0256563406437635,-0.102014496922493
0,1.01388893532575,-0.348611133338914,-0.125000002061652,0.00794124789535999,0.239153742790222,-0.0360410511493683
0,0.987499989543926,-0.305555557893823,-0.151388899219622,0.00580321997404099,0.363159388303757,0.021685715764761
0,0.940277860008718,-0.288888903918631,-0.104166672436698,0.0601702257990837,0.0571159012615681,-0.0207694191485643
0,0.94305554652751,-0.29166668768514,-0.0958333393711199,0.106901414692402,-0.314901024103165,-0.0638354197144508
0,0.983333411141879,-0.313888909193348,-0.0847222225390337,0.0204639863222837,-0.345444291830063,-0.0629191175103188
0,1.00694447590948,-0.311111125426839,-0.156944454596674,-0.0390953756868839,-0.0415388382971287,-0.0616973899304867
0,0.986111194908388,-0.305555557893823,-0.20972223675665,-0.0794124826788902,0.353690981864929,-0.0128281703218818
0,0.98888888142718,-0.316666668647927,-0.138888896582264,0.0659734457731247,0.237626582384109,-0.0439822971820831
0,0.986111194908388,-0.309722233543585,-0.0916666697993398,0.161268427968025,0.0464257597923279,-0.0778853222727776
0,0.975000059842355,-0.297222230906227,-0.101388894748172,0.108123145997524,-0.145996794104576,-0.0928515195846558
0,0.968055600426084,-0.297222230906227,-0.134722233088466,-0.00855211354792118,-0.146302223205566,-0.0571159012615681
0,0.977777843608863,-0.306944449777077,-0.143055560076062,0.00794124789535999,-0.0351247526705265,-0.0656680166721344
0,0.976388951725609,-0.308333341660331,-0.180555567988136,-0.0800233483314514,0.156686931848526,-0.185703039169311
0,0.944444438410764,-0.295833339022973,-0.190277786858986,-0.139277279376984,-0.00488692196086049,-0.28557950258255
0,1.00138890837647,-0.259722222994153,-0.134722233088466,-0.013744467869401,0.0369573459029198,-0.0592539273202419
0,1.04583335139288,-0.277777793164528,-0.0958333393711199,0.106595985591412,0.0552833043038845,0.135612085461616
0,1.00277780025972,-0.279166685047782,-0.0486111125881959,0.137139245867729,-0.241597205400467,0.0839939713478088
0,0.993055557076942,-0.297222230906227,-0.0625000010308258,0.244040668010712,-0.623998820781708,-0.013744467869401
0,0.983333411141879,-0.305555557893823,-0.123611110178398,0.203418120741844,-0.700967848300934,0.0256563406437635
0,1.05833337834217,-0.243055569018962,-0.216666671860991,0.015577063895762,-0.554360210895538,0.123394779860973
0,0.963888924776322,-0.238888893369199,-0.231944458264858,0.0833831056952477,-0.196698606014252,0.0268780700862408
0,0.905555562927365,-0.262500006760661,-0.187500003092477,-0.42271876335144,0.266948103904724,0.118507854640484
0,0.954166681593543,-0.305555557893823,-0.0819444448505077,-0.0607810914516449,0.0739146918058395,0.0610865242779255
0,0.986111194908388,-0.308333341660331,-0.104166672436698,0.0647517144680023,-0.229685336351395,0.0540615729987621
0,0.991666665193688,-0.29166668768514,-0.190277786858986,-0.00671951752156019,-0.0311541277915239,0.00702495034784079
0,0.991666665193688,-0.294444447139719,-0.169444445078067,0.0247400421649218,0.0390953756868839,0.00946841109544039
0,1.02777785415829,-0.295833339022973,-0.156944454596674,-0.0598647929728031,0.424245923757553,0.0613919571042061
0,0.962500032893068,-0.323611128064198,-0.17361112072783,-0.16951510310173,0.577878534793854,-0.0332921557128429
0,1.03750000009336,-0.311111125426839,-0.150000007336368,0.064446285367012,0.587652385234833,0.0534507073462009
5,0.926388941176177,-0.25555557165632,-0.118055554801345,0.0171042270958424,0.452956587076187,0.0369573459029198
5,0.930555616825939,-0.297222230906227,-0.10972222781375,-0.00671951752156019,0.138971850275993,-0.0207694191485643
5,0.968055600426084,-0.33750002258481,-0.0986111170596459,-0.0491746515035629,-0.182037845253944,0.00916297826915979
5,0.970833384192592,-0.322222236180943,-0.120833338567854,-0.0583376325666905,-0.17470745742321,-0.0268780700862408
5,0.969444492309338,-0.315277801076602,-0.123611110178398,-0.0598647929728031,-0.251981914043427,-0.0366519130766392
5,1.00277780025972,-0.300000014672736,-0.15555556271342,-0.113620936870575,-0.105068825185299,-0.029626963660121
5,0.99583334084345,-0.302777798439244,-0.1194444466846,-0.0143553335219622,-0.058643065392971,-0.0632245540618896
5,0.944444438410764,-0.268055574293678,-0.193055558469529,-0.0681114718317986,-0.210443079471588,0.0503963828086853
5,0.944444438410764,-0.295833339022973,-0.12916666555545,0.368657171726227,-0.344833433628082,-0.0891863256692886
5,0.923611157409668,-0.268055574293678,-0.186111123365188,-0.0436768643558025,-0.311846703290939,0.137750118970871
5,0.923611157409668,-0.24583335278547,-0.140277788465518,-0.194866016507149,-0.587957799434662,0.245873257517815
5,0.983333411141879,-0.336111130701556,-0.161111118090472,-0.100792765617371,-0.226631000638008,0.18020524084568
5,1.00972225967599,-0.326388911830706,-0.175000000455119,0.0678060427308083,-0.0711658000946045,0.200058370828629
5,1.02638896227504,-0.325000019947452,-0.223611131277262,0.0198531206697226,0.212275668978691,-0.00305432616733015
5,1.01666671909226,-0.338888890156135,-0.200000005729836,-0.0247400421649218,0.198836639523506,-0.11087204515934
5,0.983333411141879,-0.319444452414435,-0.17361112072783,-0.0977384373545647,0.0632245540618896,-0.0882700309157372
5,0.977777843608863,-0.243055569018962,-0.190277786858986,-0.105068825185299,0.399811297655106,0.0956004112958908
5,0.963888924776322,-0.280555576931036,-0.158333334323963,0.0210748501121998,0.642630219459534,0.294437050819397
5,0.923611157409668,-0.302777798439244,-0.144444451959316,0.0931569486856461,0.526565849781036,0.462119549512863
5,0.65833334257057,-0.123611110178398,-0.229166674498349,-0.736703515052795,-1.06046211719513,0.299323976039886
5,0.65833334257057,-0.123611110178398,-0.229166674498349,-0.331699818372726,-0.246178686618805,0.0555887371301651
5,0.940277860008718,-0.331944455051793,-0.150000007336368,-0.0397062413394451,-0.248316720128059,0.172569438815117
5,0.95000000594378,-0.322222236180943,-0.140277788465518,0.233961388468742,-0.406836241483688,0.292604446411133
5,1.06527783775844,-0.33750002258481,-0.258333331110899,0.0305432621389627,0.0565050356090069,0.0739146918058395
5,1.00000001649321,-0.325000019947452,-0.166666673467524,-0.00366519158706069,0.117286130785942,0.0430659987032413
5,0.990277773310434,-0.327777779402031,-0.175000000455119,0.112399205565453,0.176540061831474,-0.0204639863222837
5,0.959722249126559,-0.387500008822313,-0.205555561106887,-0.0913243517279625,0.386372268199921,-0.098960168659687
5,0.954166681593543,-0.352777784676747,-0.20972223675665,-0.351552963256836,0.372322380542755,-0.0378736443817616
5,0.969444492309338,-0.318055560531181,-0.159722226207217,-0.253203630447388,0.333837866783142,0.0592539273202419
5,0.923611157409668,-0.348611133338914,-0.125000002061652,-0.141415297985077,0.0122173046693206,0.02382374368608
5,0.955555573476797,-0.356944460326509,-0.116666675074056,-0.149356558918953,-0.0427605658769607,0.00397062394768
5,1.00694447590948,-0.322222236180943,-0.177777784221628,-0.266337245702743,-0.0986547395586967,0.0604756586253643
5,0.962500032893068,-0.302777798439244,-0.169444445078067,-0.300240278244019,-0.121867619454861,0.0922406539320946
5,0.89722221162784,-0.308333341660331,-0.154166670830166,-0.110566608607769,-0.454789161682129,0.204945296049118
5,0.930555616825939,-0.375000006184955,-0.134722233088466,-0.127670839428902,-0.299018532037735,0.0384845100343227
5,1.01805561097552,-0.400000011459671,-0.180555567988136,0.13225232064724,0.0390953756868839,-0.0482583530247212
5,1.04722224327614,-0.354166676560001,-0.0986111170596459,-0.0464257597923279,-0.124921940267086,-0.0699440687894821
5,0.965277816659576,-0.286111120152123,-0.256944463539574,-0.565050363540649,-0.13744467496872,-0.131030589342117
5,0.940277860008718,-0.312500017310094,-0.194444450352783,-0.42363503575325,-0.0830776765942574,-0.0534507073462009
5,0.926388941176177,-0.356944460326509,-0.134722233088466,-0.0277943685650826,-0.195171445608139,-0.0305432621389627
5,0.938888968125464,-0.341666673922643,-0.14722222356986,0.0226020142436027,-0.22235494852066,-0.0482583530247212
5,0.961111141009813,-0.331944455051793,-0.184722231481934,0.0167987942695618,-0.196393176913261,-0.121256753802299
5,0.956944465360051,-0.368055571080613,-0.187500003092477,0.0491746515035629,-0.32284227013588,-0.260228604078293
5,1.02222228662528,-0.344444457689151,-0.216666671860991,0.149967417120934,-0.0635299831628799,-0.253203630447388
5,0.947222222177272,-0.284722228268869,-0.243055569018962,0.20616702735424,0.0421497002243996,0.081855945289135
5,0.909722238577127,-0.311111125426839,-0.198611113846581,0.123700208961964,-0.107512280344963,0.0781907513737679
5,0.883333390043015,-0.387500008822313,-0.170833336961321,0.133779495954514,-0.291382730007172,-0.0510072484612465
5,0.96666670854283,-0.345833349572405,-0.250000004123303,0.019547687843442,-0.136528387665749,-0.0885754600167274
5,0.975000059842355,-0.283333336385615,-0.259722222994153,-0.0363464802503586,-0.0861319974064827,-0.0458148941397667
5,0.976388951725609,-0.295833339022973,-0.211111128639904,0.0650571510195732,-0.134390354156494,-0.00580321997404099
5,0.975000059842355,-0.351388892793493,-0.212499996211229,-0.00641408516094089,-0.220216915011406,-0.0045814891345799
5,1.00277780025972,-0.356944460326509,-0.231944458264858,-0.0186313893646002,-0.0244346093386412,-0.0980438739061356
5,0.965277816659576,-0.33750002258481,-0.241666677135707,-0.0109955742955208,0.155770644545555,-0.0971275717020035
5,0.933333400592447,-0.323611128064198,-0.202777789496344,-0.019547687843442,0.102014496922493,-0.104457959532738
5,0.919444481759906,-0.325000019947452,-0.200000005729836,0.0247400421649218,-0.0827722400426865,-0.0922406539320946
5,0.961111141009813,-0.294444447139719,-0.220833347510754,-0.0766635909676552,-0.142026171088219,-0.0681114718317986
5,0.99583334084345,-0.287500012035377,-0.229166674498349,-0.109344877302647,0.101403631269932,-0.0360410511493683
5,1.00694447590948,-0.295833339022973,-0.229166674498349,0.058643065392971,0.138055548071861,-0.0406225398182869
5,0.997222232726705,-0.343055565805897,-0.243055569018962,0.0916297882795334,0.098960168659687,-0.0891863256692886
5,0.938888968125464,-0.294444447139719,-0.220833347510754,-0.0635299831628799,0.0464257597923279,-0.0940732508897781
5,0.916666697993398,-0.294444447139719,-0.2194444556275,-0.311235845088959,0.017409659922123,-0.128587126731873
5,0.94305554652751,-0.290277795801886,-0.193055558469529,-0.207999616861343,-0.481056392192841,-0.107206851243973
5,0.976388951725609,-0.331944455051793,-0.223611131277262,-0.00488692196086049,-0.439822971820831,0.0412334054708481
5,0.979166735492117,-0.333333346935047,-0.223611131277262,0.0968221426010132,-0.206777885556221,-0.0638354197144508
5,0.955555573476797,-0.311111125426839,-0.212499996211229,0.0616973899304867,-0.130114302039146,-0.107206851243973
5,0.952777789710289,-0.288888903918631,-0.2194444556275,0.04764748737216,-0.117286130785942,-0.0558941699564457
5,0.962500032893068,-0.286111120152123,-0.24583335278547,0.0946841165423393,-0.0482583530247212,-0.0574213340878487
5,0.990277773310434,-0.295833339022973,-0.259722222994153,0.171958565711975,0.0794124826788902,-0.0540615729987621
5,0.970833384192592,-0.290277795801886,-0.247222220356795,0.132863193750381,0.0488692186772823,-0.103541657328606
5,0.933333400592447,-0.286111120152123,-0.2194444556275,0.0531452745199203,-0.0125227374956012,-0.078801617026329
5,0.947222222177272,-0.301388906555989,-0.233333350148112,0.00122173049021512,0.0256563406437635,0.0335975885391235
5,0.972222276075846,-0.315277801076602,-0.24583335278547,-0.00794124789535999,0.130419731140137,0.0125227374956012
5,0.968055600426084,-0.327777779402031,-0.226388890731841,0.00855211354792118,0.192727982997894,-0.0742201283574104
5,0.981944519258625,-0.316666668647927,-0.250000004123303,-0.0714712366461754,0.290160983800888,-0.0409279726445675
5,0.929166724942685,-0.308333341660331,-0.301388906555989,-0.127365410327911,0.0952949747443199,0.0888808965682983
5,0.94305554652751,-0.261111114877407,-0.2194444556275,-0.0635299831628799,0.12705996632576,0.0488692186772823
5,0.94305554652751,-0.261111114877407,-0.2194444556275,-0.119424156844616,-0.0232128798961639,-0.00855211354792118
5,0.984722303025134,-0.315277801076602,-0.226388890731841,-0.11087204515934,-0.0280998013913631,-0.0421497002243996
5,0.983333411141879,-0.311111125426839,-0.2194444556275,0.0305432621389627,-0.0870482996106148,-0.0549778714776039
5,0.983333411141879,-0.311111125426839,-0.2194444556275,0.0161879286170006,-0.0311541277915239,-0.0369573459029198
5,0.970833384192592,-0.279166685047782,-0.223611131277262,-0.00916297826915979,-0.251981914043427,-0.0552833043038845
5,0.981944519258625,-0.306944449777077,-0.229166674498349,0.0971275717020035,-0.304516315460205,-0.0109955742955208
5,0.981944519258625,-0.306944449777077,-0.229166674498349,0.224798411130905,-0.342695415019989,0.0467311926186085
5,0.96666670854283,-0.316666668647927,-0.223611131277262,0.148440256714821,-0.244956970214844,0.0027488935738802
5,0.936111184358955,-0.312500017310094,-0.231944458264858,-0.0662788823246956,-0.22204951941967,-0.08460483700037
5,0.936111184358955,-0.312500017310094,-0.231944458264858,-0.0635299831628799,-0.22754730284214,-0.0678060427308083
5,0.95000000594378,-0.302777798439244,-0.243055569018962,0.0384845100343227,-0.151800006628036,-0.0100792767480016
5,0.955555573476797,-0.281944444502361,-0.250000004123303,0.0833831056952477,-0.139277279376984,-0.0167987942695618
5,0.955555573476797,-0.272222225631511,-0.258333331110899,0.133779495954514,-0.0812450796365738,0.00610865233466029
5,0.979166735492117,-0.283333336385615,-0.279166685047782,0.253814518451691,0.161268427968025,0.0830776765942574
5,0.96666670854283,-0.290277795801886,-0.262500006760661,0.253203630447388,0.333837866783142,0.120645888149738
5,0.95000000594378,-0.302777798439244,-0.250000004123303,0.16920967400074,0.29107728600502,0.0662788823246956
5,0.956944465360051,-0.325000019947452,-0.200000005729836,0.107817716896534,0.225409269332886,-0.0494800843298435
5,0.951388897827035,-0.319444452414435,-0.226388890731841,0.199142068624496,0.310319542884827,-0.0378736443817616
5,0.956944465360051,-0.311111125426839,-0.24583335278547,0.171958565711975,0.479834645986557,0.0345138870179653
5,1.00555558402623,-0.288888903918631,-0.218055563744246,0.200974673032761,0.545197248458862,0.0335975885391235
5,0.973611167959101,-0.279166685047782,-0.224999998848587,0.314595609903336,0.312763005495071,-0.00641408516094089
5,0.963888924776322,-0.283333336385615,-0.202777789496344,-0.22693644464016,0.0103847095742822,0.0192422550171614
5,1.00000001649321,-0.311111125426839,-0.202777789496344,-0.0198531206697226,0.116675265133381,-0.0033597587607801
5,0.983333411141879,-0.308333341660331,-0.193055558469529,-0.0232128798961639,0.0647517144680023,-0.0143553335219622
5,0.961111141009813,-0.294444447139719,-0.18333333959868,-0.0207694191485643,0.0161879286170006,-0.0189368221908808
5,0.968055600426084,-0.294444447139719,-0.197222234119292,-0.0314595587551594,0.0418442711234093,-0.0109955742955208
5,0.973611167959101,-0.295833339022973,-0.20138889761309,-0.0332921557128429,0.0415388382971287,-0.000610865245107561
5,0.969444492309338,-0.297222230906227,-0.193055558469529,-0.0222965814173222,0.0183259565383196,-0.00366519158706069
5,0.962500032893068,-0.298611122789481,-0.197222234119292,-0.0226020142436027,0.0149661982432008,-0.00946841109544039
5,0.962500032893068,-0.297222230906227,-0.206944452990142,-0.0241291765123606,0.01588249579072,-0.0027488935738802
5,0.969444492309338,-0.301388906555989,-0.194444450352783,-0.0256563406437635,0.0045814891345799,-0.00397062394768
5,0.972222276075846,-0.301388906555989,-0.184722231481934,-0.0189368221908808,0.00702495034784079,-0.000610865245107561
5,0.973611167959101,-0.306944449777077,-0.193055558469529,-0.0183259565383196,0.0183259565383196,-0.00305432616733015
5,0.972222276075846,-0.305555557893823,-0.19166667874224,-0.0207694191485643,0.0226020142436027,0.00305432616733015
5,0.970833384192592,-0.305555557893823,-0.202777789496344,-0.0186313893646002,0.00763581553474069,0.00122173049021512
5,0.972222276075846,-0.301388906555989,-0.193055558469529,-0.00977384392172098,0.0149661982432008,-0.0021380283869803
5,0.96666670854283,-0.301388906555989,-0.202777789496344,-0.0113010071218014,0.0149661982432008,-0.00152716308366507
5,0.969444492309338,-0.304166666010569,-0.200000005729836,-0.01191187184304,0.0143553335219622,-0.00305432616733015
5,0.96666670854283,-0.301388906555989,-0.194444450352783,-0.00488692196086049,0.013744467869401,-0.00641408516094089
5,0.968055600426084,-0.305555557893823,-0.198611113846581,0.00244346098043024,0.00488692196086049,-0.00122173049021512
5,0.970833384192592,-0.305555557893823,-0.194444450352783,0.000610865245107561,0.0045814891345799,0.00427605677396059
5,0.968055600426084,-0.305555557893823,-0.19166667874224,0.00519235478714108,0.00366519158706069,-0.00183259579353034
5,0.972222276075846,-0.308333341660331,-0.200000005729836,0.00152716308366507,-0.00122173049021512,-0.0033597587607801
5,0.968055600426084,-0.305555557893823,-0.206944452990142,0.0033597587607801,-0.00641408516094089,0.000916297896765172
5,0.969444492309338,-0.311111125426839,-0.204166669223633,-0.00397062394768,-0.0106901414692402,-0.00397062394768
5,0.976388951725609,-0.305555557893823,-0.195833342236038,0.0027488935738802,0.00183259579353034,-0.0021380283869803
5,0.972222276075846,-0.308333341660331,-0.204166669223633,0.0125227374956012,0.0131336031481624,-0.00610865233466029
5,0.973611167959101,-0.308333341660331,-0.190277786858986,0.0161879286170006,0.011606439948082,-0.00366519158706069
5,0.970833384192592,-0.305555557893823,-0.190277786858986,0.0222965814173222,0.00244346098043024,0.00152716308366507
5,0.970833384192592,-0.300000014672736,-0.200000005729836,0.0250454749912024,0.00305432616733015,0.00519235478714108
5,0.969444492309338,-0.301388906555989,-0.193055558469529,0.021685715764761,0.01191187184304,0.00305432616733015
5,0.969444492309338,-0.297222230906227,-0.194444450352783,0.00946841109544039,0.00794124789535999,0.00397062394768
5,0.969444492309338,-0.301388906555989,-0.197222234119292,0.00488692196086049,0.00580321997404099,0.00244346098043024
5,0.965277816659576,-0.301388906555989,-0.197222234119292,0.00977384392172098,-0.00152716308366507,0.00122173049021512
5,0.963888924776322,-0.305555557893823,-0.197222234119292,0.0100792767480016,-0.00549778714776039,-0.0027488935738802
5,0.970833384192592,-0.298611122789481,-0.193055558469529,0.0109955742955208,-0.00122173049021512,0.0033597587607801
5,0.970833384192592,-0.302777798439244,-0.200000005729836,0.0125227374956012,0.00427605677396059,0.00122173049021512
5,0.970833384192592,-0.295833339022973,-0.197222234119292,-0.00671951752156019,0.027488935738802,-0.00794124789535999
5,0.969444492309338,-0.295833339022973,-0.193055558469529,-0.0152716310694814,0.00885754637420177,-0.000610865245107561
5,0.972222276075846,-0.305555557893823,-0.195833342236038,-0.0164933614432812,0.0167987942695618,-0.0021380283869803
5,0.96666670854283,-0.311111125426839,-0.186111123365188,-0.00824668072164059,0.011606439948082,0.00122173049021512
5,0.96666670854283,-0.298611122789481,-0.188888894975731,-0.00733038317412138,0.00519235478714108,0.0033597587607801
5,0.96666670854283,-0.301388906555989,-0.184722231481934,-0.00733038317412138,0.00488692196086049,-0.000916297896765172
5,0.973611167959101,-0.306944449777077,-0.187500003092477,0.0021380283869803,0.0045814891345799,0.00366519158706069
5,0.970833384192592,-0.301388906555989,-0.195833342236038,-0.00794124789535999,0.0128281703218818,0.00885754637420177
5,0.976388951725609,-0.301388906555989,-0.195833342236038,-0.015577063895762,0.0207694191485643,0.000610865245107561
5,0.972222276075846,-0.304166666010569,-0.194444450352783,-0.0284052342176437,0.0100792767480016,0.00946841109544039
5,0.972222276075846,-0.308333341660331,-0.195833342236038,-0.0229074470698834,0.0140499006956816,0.00397062394768
5,0.972222276075846,-0.308333341660331,-0.20138889761309,-0.0262672062963247,0.0125227374956012,0.00885754637420177
5,0.973611167959101,-0.312500017310094,-0.202777789496344,-0.0311541277915239,0.02382374368608,0.00641408516094089
5,0.970833384192592,-0.308333341660331,-0.20972223675665,-0.0378736443817616,0.0222965814173222,0.0113010071218014
5,0.970833384192592,-0.301388906555989,-0.200000005729836,-0.0494800843298435,0.0192422550171614,0.0177150927484035
5,0.96666670854283,-0.312500017310094,-0.188888894975731,-0.0387899428606033,0.00671951752156019,0.0122173046693206
5,0.969444492309338,-0.304166666010569,-0.187500003092477,-0.0387899428606033,-0.0033597587607801,0.0186313893646002
5,0.965277816659576,-0.302777798439244,-0.187500003092477,-0.0433714315295219,-0.00855211354792118,0.0189368221908808
5,0.96666670854283,-0.302777798439244,-0.193055558469529,-0.0290160998702049,-0.019547687843442,0.0290160998702049
5,0.970833384192592,-0.302777798439244,-0.194444450352783,-0.0369573459029198,-0.0167987942695618,0.0247400421649218
5,0.976388951725609,-0.306944449777077,-0.19166667874224,-0.0302378293126821,-0.011606439948082,0.0345138870179653
5,0.979166735492117,-0.304166666010569,-0.198611113846581,-0.0262672062963247,-0.00366519158706069,0.0253509078174829
5,0.976388951725609,-0.306944449777077,-0.200000005729836,-0.0345138870179653,0.000610865245107561,0.00885754637420177
5,0.979166735492117,-0.313888909193348,-0.197222234119292,-0.03176499158144,0.00122173049021512,0.0113010071218014
5,0.979166735492117,-0.313888909193348,-0.197222234119292,-0.0262672062963247,0.0131336031481624,0.00519235478714108
5,0.975000059842355,-0.316666668647927,-0.197222234119292,-0.0271835029125214,0.0250454749912024,0.0021380283869803
5,0.969444492309338,-0.315277801076602,-0.19166667874224,-0.0201585534960032,0.0448985956609249,-0.00855211354792118
5,0.969444492309338,-0.315277801076602,-0.19166667874224,-0.0241291765123606,0.0424551330506802,-0.00152716308366507
5,0.970833384192592,-0.312500017310094,-0.208333344873396,-0.0342084541916847,0.0494800843298435,-0.00610865233466029
5,0.972222276075846,-0.315277801076602,-0.200000005729836,-0.0293215326964855,0.03176499158144,0.0045814891345799
5,0.972222276075846,-0.315277801076602,-0.200000005729836,-0.0222965814173222,0.0256563406437635,0.00122173049021512
5,0.96666670854283,-0.313888909193348,-0.197222234119292,-0.0247400421649218,0.0232128798961639,0.0106901414692402
5,0.965277816659576,-0.315277801076602,-0.202777789496344,-0.0342084541916847,0.0167987942695618,0.0113010071218014
5,0.965277816659576,-0.315277801076602,-0.202777789496344,-0.0335975885391235,0.0293215326964855,0.0103847095742822
5,0.972222276075846,-0.312500017310094,-0.197222234119292,-0.0357356183230877,0.0311541277915239,0.00946841109544039
5,0.96666670854283,-0.302777798439244,-0.202777789496344,-0.0470366254448891,0.0171042270958424,0.00641408516094089
5,0.96666670854283,-0.302777798439244,-0.202777789496344,-0.0479529201984406,0.00610865233466029,0.0268780700862408
5,0.965277816659576,-0.308333341660331,-0.202777789496344,-0.037568211555481,0.00152716308366507,0.0268780700862408
5,0.968055600426084,-0.318055560531181,-0.202777789496344,-0.0369573459029198,0.0045814891345799,0.0177150927484035
5,0.962500032893068,-0.322222236180943,-0.208333344873396,-0.0284052342176437,0.0021380283869803,0.0171042270958424
5,0.962500032893068,-0.322222236180943,-0.208333344873396,-0.0222965814173222,0.00549778714776039,0.00366519158706069
5,0.955555573476797,-0.318055560531181,-0.20972223675665,-0.0339030213654041,0.000916297896765172,0.00733038317412138
5,0.959722249126559,-0.322222236180943,-0.216666671860991,-0.0299323964864016,0.0027488935738802,0.00427605677396059
5,0.959722249126559,-0.326388911830706,-0.211111128639904,-0.0210748501121998,-0.000610865245107561,0.00946841109544039
5,0.952777789710289,-0.320833344297689,-0.206944452990142,-0.00519235478714108,-0.0259617734700441,0.0222965814173222
5,0.947222222177272,-0.322222236180943,-0.206944452990142,-0.0021380283869803,-0.0430659987032413,0.0290160998702049
5,0.941666654644256,-0.305555557893823,-0.20138889761309,-0.00641408516094089,-0.0833831056952477,0.0510072484612465
5,0.95000000594378,-0.298611122789481,-0.202777789496344,-0.0180205255746841,-0.117286130785942,0.0714712366461754
5,0.968055600426084,-0.298611122789481,-0.205555561106887,-0.017409659922123,-0.112399205565453,0.0791070461273193
5,0.976388951725609,-0.308333341660331,-0.20138889761309,-0.0354301854968071,-0.0943786799907684,0.0717766657471657
5,0.972222276075846,-0.312500017310094,-0.200000005729836,-0.0381790772080422,-0.0870482996106148,0.0610865242779255
5,0.969444492309338,-0.315277801076602,-0.186111123365188,-0.0494800843298435,-0.0974330082535744,0.0577267669141293
5,0.96666670854283,-0.311111125426839,-0.19166667874224,-0.0598647929728031,-0.103847093880177,0.0659734457731247
5,0.976388951725609,-0.308333341660331,-0.193055558469529,-0.0809396430850029,-0.0830776765942574,0.0653625801205635
5,0.973611167959101,-0.302777798439244,-0.197222234119292,-0.0983493030071259,-0.0635299831628799,0.076052725315094
5,0.983333411141879,-0.309722233543585,-0.188888894975731,-0.102625362575054,-0.0256563406437635,0.0620028227567673
5,0.979166735492117,-0.315277801076602,-0.193055558469529,-0.108123145997524,-0.0134390350431204,0.0522289797663689
5,0.976388951725609,-0.312500017310094,-0.20138889761309,-0.134084925055504,-0.0128281703218818,0.0406225398182869
5,0.976388951725609,-0.313888909193348,-0.198611113846581,-0.149661988019943,0.00855211354792118,0.0442877300083637
5,0.970833384192592,-0.312500017310094,-0.197222234119292,-0.153021737933159,0.01191187184304,0.0357356183230877
5,0.96666670854283,-0.315277801076602,-0.197222234119292,-0.149967417120934,0.0146607663482428,0.0326812900602817
5,0.968055600426084,-0.318055560531181,-0.193055558469529,-0.159741267561913,0.0345138870179653,0.0329867228865623
5,0.969444492309338,-0.326388911830706,-0.198611113846581,-0.148134827613831,0.0442877300083637,0.0259617734700441
5,0.969444492309338,-0.322222236180943,-0.200000005729836,-0.151800006628036,0.0537561401724815,0.00610865233466029
5,0.970833384192592,-0.325000019947452,-0.197222234119292,-0.159130394458771,0.0726929605007172,-0.00122173049021512
5,0.975000059842355,-0.325000019947452,-0.204166669223633,-0.166155353188515,0.0888808965682983,-0.017409659922123
5,0.973611167959101,-0.318055560531181,-0.202777789496344,-0.177761793136597,0.105374254286289,-0.00885754637420177
5,0.972222276075846,-0.318055560531181,-0.213888888094483,-0.189673662185669,0.122783914208412,-0.0149661982432008
5,0.96666670854283,-0.313888909193348,-0.20972223675665,-0.201585531234741,0.130114302039146,-0.0171042270958424
5,0.96666670854283,-0.313888909193348,-0.195833342236038,-0.218995183706284,0.144164204597473,-0.0311541277915239
5,0.96666670854283,-0.318055560531181,-0.202777789496344,-0.22754730284214,0.138666406273842,-0.029626963660121
5,0.959722249126559,-0.318055560531181,-0.195833342236038,-0.240070044994354,0.144469633698463,-0.0235183127224445
5,0.96666670854283,-0.312500017310094,-0.20138889761309,-0.267558991909027,0.162184715270996,-0.00488692196086049
5,0.968055600426084,-0.308333341660331,-0.202777789496344,-0.317649930715561,0.170431405305862,0.00610865233466029
5,0.955555573476797,-0.308333341660331,-0.200000005729836,-0.309403240680695,0.156686931848526,-0.0125227374956012
5,0.952777789710289,-0.295833339022973,-0.190277786858986,-0.323453158140182,0.122478485107422,-0.00610865233466029
5,0.948611114060526,-0.287500012035377,-0.188888894975731,-0.318260788917542,0.0183259565383196,-0.0125227374956012
5,0.958333357243305,-0.288888903918631,-0.206944452990142,-0.31245756149292,-0.0439822971820831,-0.0164933614432812
5,0.970833384192592,-0.298611122789481,-0.206944452990142,-0.282525181770325,-0.0525344125926495,-0.017409659922123
5,0.973611167959101,-0.306944449777077,-0.211111128639904,-0.252592772245407,-0.037568211555481,-0.0384845100343227
5,0.983333411141879,-0.308333341660331,-0.2194444556275,-0.22235494852066,-0.00366519158706069,-0.0784961804747581
5,0.983333411141879,-0.301388906555989,-0.223611131277262,-0.173485726118088,0.0348193198442459,-0.122478485107422
5,0.981944519258625,-0.286111120152123,-0.224999998848587,-0.155159771442413,0.0522289797663689,-0.156686931848526
5,0.972222276075846,-0.265277790527169,-0.222222239394008,-0.113926365971565,0.0314595587551594,-0.176234617829323
5,0.979166735492117,-0.252777787889811,-0.229166674498349,-0.0968221426010132,0.08460483700037,-0.157297804951668
5,0.986111194908388,-0.24583335278547,-0.223611131277262,-0.0439822971820831,0.116675265133381,-0.113620936870575
5,0.987499989543926,-0.243055569018962,-0.220833347510754,-0.0250454749912024,0.135001212358475,-0.0949895456433296
5,0.991666665193688,-0.244444460902216,-0.212499996211229,0.00763581553474069,0.132863193750381,-0.076052725315094
5,0.98888888142718,-0.243055569018962,-0.223611131277262,0.0143553335219622,0.10048733651638,-0.0632245540618896
5,1.00000001649321,-0.252777787889811,-0.230555566381603,0.0448985956609249,0.110261179506779,-0.0458148941397667
5,0.99583334084345,-0.252777787889811,-0.213888888094483,0.10048733651638,0.135612085461616,-0.0311541277915239
5,0.977777843608863,-0.230555566381603,-0.211111128639904,0.110261179506779,0.109650313854218,-0.0323758572340012
5,0.975000059842355,-0.208333344873396,-0.20972223675665,0.0925460830330849,0.0794124826788902,-0.0183259565383196
5,0.979166735492117,-0.202777789496344,-0.216666671860991,0.0717766657471657,0.0131336031481624,0.0125227374956012
5,0.983333411141879,-0.204166669223633,-0.230555566381603,0.0369573459029198,-0.00885754637420177,0.0308486949652433
5,0.993055557076942,-0.216666671860991,-0.227777782615095,0.0647517144680023,0.0134390350431204,0.0647517144680023
5,0.994444448960196,-0.229166674498349,-0.223611131277262,0.0949895456433296,0.0265726372599602,0.0723875313997269
5,0.99583334084345,-0.241666677135707,-0.218055563744246,0.0891863256692886,0.0210748501121998,0.0757472887635231
5,1.00000001649321,-0.241666677135707,-0.222222239394008,0.0897971913218498,0.0192422550171614,0.0632245540618896
5,1.01388893532575,-0.244444460902216,-0.220833347510754,0.0836885422468185,0.0186313893646002,0.0412334054708481
5,1.00833336779274,-0.241666677135707,-0.226388890731841,0.0678060427308083,0.0232128798961639,-0.0027488935738802
5,1.00416669214298,-0.243055569018962,-0.233333350148112,0.0415388382971287,0.00702495034784079,-0.0113010071218014
5,0.986111194908388,-0.259722222994153,-0.224999998848587,0.0607810914516449,-0.00397062394768,0.0247400421649218
5,0.973611167959101,-0.276388901281273,-0.234722242031366,0.0781907513737679,0.0406225398182869,0.100792765617371
5,0.959722249126559,-0.308333341660331,-0.226388890731841,0.0934623852372169,0.0387899428606033,0.155159771442413
5,0.952777789710289,-0.331944455051793,-0.218055563744246,0.107206851243973,0.0540615729987621,0.175623759627342
5,0.956944465360051,-0.341666673922643,-0.212499996211229,0.123700208961964,0.0516181141138077,0.188451930880547
5,0.941666654644256,-0.347222241455659,-0.2194444556275,0.131641462445259,0.0113010071218014,0.19578230381012
5,0.933333400592447,-0.351388892793493,-0.216666671860991,0.135001212358475,0.00427605677396059,0.181121543049812
5,0.94305554652751,-0.362500003547597,-0.197222234119292,0.156076073646545,0.000916297896765172,0.17409659922123
5,0.95000000594378,-0.373611114301701,-0.19166667874224,0.187230199575424,-0.00702495034784079,0.16371189057827
5,0.959722249126559,-0.356944460326509,-0.184722231481934,0.189979091286659,-0.00152716308366507,0.155770644545555
5,0.969444492309338,-0.327777779402031,-0.163888889701015,0.173485726118088,0.0177150927484035,0.138360977172852
5,0.976388951725609,-0.305555557893823,-0.150000007336368,0.1795943826437,0.0235183127224445,0.113315500319004
5,1.00277780025972,-0.305555557893823,-0.156944454596674,0.182648703455925,0.0198531206697226,0.0497855171561241
5,0.983333411141879,-0.295833339022973,-0.161111118090472,0.12156218290329,0.064446285367012,-0.0180205255746841
5,0.94305554652751,-0.315277801076602,-0.12777778582816,0.0461203269660473,0.0638354197144508,-0.0222965814173222
5,0.911111130460381,-0.309722233543585,-0.116666675074056,0.0827722400426865,0.0629191175103188,0.0103847095742822
5,0.912500022343635,-0.315277801076602,-0.1194444466846,0.112704634666443,0.00946841109544039,-0.013744467869401
5,0.912500022343635,-0.315277801076602,-0.1194444466846,0.130725160241127,-0.0167987942695618,-0.0128281703218818
5,0.951388897827035,-0.350000000910239,-0.156944454596674,0.182648703455925,0.0565050356090069,-0.04764748737216
5,0.94305554652751,-0.352777784676747,-0.15555556271342,0.23273965716362,0.0247400421649218,-0.107817716896534
5,0.94305554652751,-0.352777784676747,-0.15555556271342,0.299934834241867,-0.0949895456433296,-0.127670839428902
5,0.99583334084345,-0.404166687109433,-0.193055558469529,0.371100634336472,-0.0751364231109619,-0.125838235020638
5,0.993055557076942,-0.413888905980283,-0.2194444556275,0.413250327110291,-0.00610865233466029,-0.0873537287116051
5,0.993055557076942,-0.413888905980283,-0.2194444556275,0.377820163965225,0.0146607663482428,-0.0424551330506802
5,0.958333357243305,-0.361111135976272,-0.202777789496344,0.376903861761093,0.00610865233466029,-0.0213802829384804
5,0.945833330294018,-0.322222236180943,-0.169444445078067,0.348498612642288,-0.106595985591412,-0.0497855171561241
5,0.945833330294018,-0.322222236180943,-0.169444445078067,0.315511912107468,-0.149661988019943,-0.0839939713478088
5,0.972222276075846,-0.319444452414435,-0.166666673467524,0.28557950258255,-0.124616511166096,-0.0855211317539215
5,0.973611167959101,-0.300000014672736,-0.163888889701015,0.281303435564041,-0.112704634666443,-0.064446285367012
5,0.973611167959101,-0.300000014672736,-0.163888889701015,0.228158175945282,-0.0910189226269722,-0.0360410511493683
5,0.96666670854283,-0.29166668768514,-0.156944454596674,0.178678080439568,-0.0873537287116051,-0.0299323964864016
5,0.970833384192592,-0.277777793164528,-0.148611115453114,0.112399205565453,-0.0736092627048492,-0.0183259565383196
5,0.983333411141879,-0.275000009398019,-0.13750000469901,0.0647517144680023,-0.0678060427308083,-0.000610865245107561
5,0.986111194908388,-0.270833333748257,-0.134722233088466,0.00580321997404099,-0.0992656052112579,0.0164933614432812
5,0.986111194908388,-0.284722228268869,-0.134722233088466,-0.0204639863222837,-0.101709060370922,0.0213802829384804
5,0.987499989543926,-0.288888903918631,-0.159722226207217,-0.0604756586253643,-0.0919352173805237,0.017409659922123
5,0.983333411141879,-0.306944449777077,-0.180555567988136,-0.0897971913218498,-0.0458148941397667,0.0109955742955208
5,0.977777843608863,-0.331944455051793,-0.176388892338373,-0.11087204515934,-0.0021380283869803,-0.0045814891345799
5,0.977777843608863,-0.333333346935047,-0.179166676104882,-0.11636982858181,0.00519235478714108,-0.00855211354792118
5,0.973611167959101,-0.316666668647927,-0.166666673467524,-0.0998764708638191,-0.0192422550171614,0.0021380283869803
5,0.973611167959101,-0.318055560531181,-0.166666673467524,-0.0595593601465225,-0.0265726372599602,0.0106901414692402
5,0.969444492309338,-0.312500017310094,-0.170833336961321,-0.0406225398182869,-0.0445931628346443,0.0198531206697226
5,0.976388951725609,-0.315277801076602,-0.180555567988136,-0.0568104684352875,-0.0213802829384804,-0.0100792767480016
5,0.975000059842355,-0.313888909193348,-0.20138889761309,-0.078801617026329,-0.00152716308366507,-0.0131336031481624
5,0.973611167959101,-0.295833339022973,-0.208333344873396,-0.087659165263176,0.0265726372599602,-0.0201585534960032
5,0.973611167959101,-0.29166668768514,-0.212499996211229,-0.148745685815811,0.0461203269660473,-0.0140499006956816
5,0.973611167959101,-0.295833339022973,-0.215277779977737,-0.181426972150803,0.0421497002243996,-0.0161879286170006
5,0.973611167959101,-0.313888909193348,-0.208333344873396,-0.161573857069016,0.0400116741657257,-0.00580321997404099
5,0.975000059842355,-0.326388911830706,-0.206944452990142,-0.151494577527046,0.0546724386513233,-0.0113010071218014
5,0.973611167959101,-0.334722238818301,-0.200000005729836,-0.117896988987923,0.0601702257990837,-0.02382374368608
5,0.973611167959101,-0.341666673922643,-0.195833342236038,-0.0781907513737679,0.0699440687894821,-0.0332921557128429
5,0.959722249126559,-0.338888890156135,-0.187500003092477,-0.01588249579072,0.0681114718317986,-0.0287106670439243
5,0.954166681593543,-0.330555563168539,-0.163888889701015,0.0259617734700441,0.0479529201984406,-0.0427605658769607
5,0.956944465360051,-0.309722233543585,-0.15555556271342,0.0409279726445675,0.019547687843442,-0.0448985956609249
5,0.969444492309338,-0.300000014672736,-0.158333334323963,0.0290160998702049,0.00671951752156019,-0.0314595587551594
5,0.976388951725609,-0.293055555256465,-0.163888889701015,0.0222965814173222,-0.00549778714776039,-0.00580321997404099
5,0.96666670854283,-0.284722228268869,-0.168055565350778,-0.00977384392172098,-0.02382374368608,0.00671951752156019
5,0.970833384192592,-0.290277795801886,-0.169444445078067,-0.0439822971820831,-0.0219911485910416,0.00733038317412138
5,0.969444492309338,-0.300000014672736,-0.170833336961321,-0.0693332031369209,-0.0256563406437635,0.0045814891345799
5,0.969444492309338,-0.316666668647927,-0.169444445078067,-0.0678060427308083,-0.0045814891345799,-0.00946841109544039
5,0.961111141009813,-0.315277801076602,-0.169444445078067,-0.0815505087375641,0.00519235478714108,-0.01588249579072
5,0.952777789710289,-0.306944449777077,-0.156944454596674,-0.0742201283574104,-0.0513126812875271,0.0171042270958424
5,0.979166735492117,-0.308333341660331,-0.190277786858986,-0.0696386396884918,-0.101403631269932,0.0332921557128429
5,1.00416669214298,-0.319444452414435,-0.218055563744246,-0.0482583530247212,-0.0415388382971287,0.0479529201984406
5,0.979166735492117,-0.331944455051793,-0.216666671860991,-0.0427605658769607,0.0164933614432812,0.0549778714776039
5,0.944444438410764,-0.334722238818301,-0.204166669223633,-0.0348193198442459,0.00580321997404099,0.0369573459029198
5,0.944444438410764,-0.334722238818301,-0.204166669223633,-0.00763581553474069,-0.0219911485910416,0.00580321997404099
5,0.958333357243305,-0.345833349572405,-0.193055558469529,0.04764748737216,-0.0021380283869803,-0.0180205255746841
5,0.979166735492117,-0.350000000910239,-0.197222234119292,0.0842994004487991,0.0287106670439243,-0.0277943685650826
5,0.984722303025134,-0.33750002258481,-0.195833342236038,0.0946841165423393,0.0320704244077206,-0.0372627787292004
5,0.980555627375371,-0.308333341660331,-0.193055558469529,0.0772744566202164,0.0226020142436027,-0.03176499158144
5,0.973611167959101,-0.295833339022973,-0.181944447715425,0.0510072484612465,0.027488935738802,-0.0293215326964855
5,0.973611167959101,-0.29166668768514,-0.17361112072783,0.0409279726445675,0.0219911485910416,-0.0323758572340012
5,0.973611167959101,-0.290277795801886,-0.166666673467524,0.0381790772080422,0.00641408516094089,-0.0213802829384804
5,0.961111141009813,-0.288888903918631,-0.163888889701015,0.0387899428606033,-0.015577063895762,-0.0247400421649218
5,0.962500032893068,-0.301388906555989,-0.170833336961321,0.0339030213654041,-0.0293215326964855,-0.02382374368608
5,0.968055600426084,-0.312500017310094,-0.188888894975731,0.0467311926186085,-0.0143553335219622,-0.0241291765123606
5,0.976388951725609,-0.327777779402031,-0.205555561106887,0.0577267669141293,0.0149661982432008,-0.02382374368608
5,0.973611167959101,-0.322222236180943,-0.213888888094483,0.0500909499824047,0.0339030213654041,-0.0232128798961639
5,0.969444492309338,-0.315277801076602,-0.197222234119292,0.0332921557128429,0.0488692186772823,-0.0201585534960032
5,0.973611167959101,-0.300000014672736,-0.176388892338373,0.0244346093386412,0.0354301854968071,-0.0106901414692402
5,0.970833384192592,-0.290277795801886,-0.163888889701015,0.0183259565383196,0.00671951752156019,-0.00671951752156019
5,0.972222276075846,-0.286111120152123,-0.161111118090472,0.017409659922123,-0.0198531206697226,0.015577063895762
5,0.976388951725609,-0.295833339022973,-0.166666673467524,0.0232128798961639,-0.0494800843298435,0.00183259579353034
5,0.972222276075846,-0.309722233543585,-0.176388892338373,0.0305432621389627,-0.0473420582711697,-0.00916297826915979
5,0.979166735492117,-0.305555557893823,-0.181944447715425,0.0326812900602817,-0.027488935738802,-0.0180205255746841
5,0.975000059842355,-0.302777798439244,-0.187500003092477,0.0259617734700441,0.00916297826915979,-0.0302378293126821
5,0.980555627375371,-0.306944449777077,-0.195833342236038,0.0186313893646002,0.0262672062963247,-0.0250454749912024
5,0.979166735492117,-0.305555557893823,-0.188888894975731,0.0259617734700441,0.029626963660121,-0.0241291765123606
5,0.976388951725609,-0.305555557893823,-0.186111123365188,0.0149661982432008,0.0207694191485643,-0.0192422550171614
5,0.96666670854283,-0.295833339022973,-0.176388892338373,0.0109955742955208,0.0125227374956012,-0.015577063895762
5,0.970833384192592,-0.295833339022973,-0.180555567988136,0.00671951752156019,0.0021380283869803,-0.00610865233466029
5,0.972222276075846,-0.308333341660331,-0.172222228844576,0.0201585534960032,0.015577063895762,-0.0027488935738802
5,0.968055600426084,-0.309722233543585,-0.172222228844576,0.0177150927484035,0.000610865245107561,-0.00366519158706069
5,0.962500032893068,-0.305555557893823,-0.176388892338373,0.00916297826915979,-0.0247400421649218,-0.00183259579353034
5,0.96666670854283,-0.306944449777077,-0.181944447715425,0.00702495034784079,-0.0345138870179653,0.00610865233466029
5,0.975000059842355,-0.309722233543585,-0.180555567988136,0.0180205255746841,-0.0219911485910416,0.00916297826915979
5,0.979166735492117,-0.306944449777077,-0.180555567988136,0.00397062394768,0.00763581553474069,0.00641408516094089
5,0.975000059842355,-0.304166666010569,-0.177777784221628,-0.00916297826915979,-0.00855211354792118,0.00885754637420177
5,0.976388951725609,-0.301388906555989,-0.175000000455119,-0.01191187184304,-0.0189368221908808,0.0100792767480016
5,0.973611167959101,-0.294444447139719,-0.181944447715425,-0.00183259579353034,-0.0210748501121998,0.000610865245107561
5,0.970833384192592,-0.301388906555989,-0.180555567988136,-0.00244346098043024,-0.00977384392172098,0.0146607663482428
5,0.972222276075846,-0.300000014672736,-0.17361112072783,-0.01588249579072,-0.0045814891345799,0.00580321997404099
5,0.970833384192592,-0.302777798439244,-0.180555567988136,-0.0241291765123606,-0.0100792767480016,0.00244346098043024
5,0.977777843608863,-0.304166666010569,-0.170833336961321,-0.0293215326964855,-0.0125227374956012,0.00427605677396059
5,0.977777843608863,-0.301388906555989,-0.186111123365188,-0.0280998013913631,-0.00549778714776039,-0.000610865245107561
5,0.973611167959101,-0.298611122789481,-0.176388892338373,-0.0226020142436027,-0.00427605677396059,0.00977384392172098
5,0.976388951725609,-0.305555557893823,-0.172222228844576,-0.0219911485910416,0.00488692196086049,0.00641408516094089
5,0.973611167959101,-0.305555557893823,-0.179166676104882,-0.0192422550171614,0.00610865233466029,0.0045814891345799
5,0.973611167959101,-0.302777798439244,-0.179166676104882,-0.0109955742955208,0.0045814891345799,0.000305432622553781
5,0.975000059842355,-0.306944449777077,-0.170833336961321,-0.00549778714776039,-0.0045814891345799,-0.00549778714776039
5,0.970833384192592,-0.300000014672736,-0.17361112072783,-0.00183259579353034,-0.0198531206697226,-0.0100792767480016
5,0.973611167959101,-0.295833339022973,-0.162500009973726,0.00366519158706069,-0.0106901414692402,-0.00763581553474069
5,0.983333411141879,-0.301388906555989,-0.176388892338373,-0.00397062394768,-0.00488692196086049,0.00488692196086049
5,0.980555627375371,-0.297222230906227,-0.176388892338373,0.000305432622553781,-0.000610865245107561,0.00366519158706069
5,0.975000059842355,-0.302777798439244,-0.172222228844576,-0.00427605677396059,0.00244346098043024,-0.0027488935738802
5,0.975000059842355,-0.306944449777077,-0.176388892338373,0.0045814891345799,0.0027488935738802,-0.00763581553474069
5,0.976388951725609,-0.302777798439244,-0.180555567988136,0.00549778714776039,0.00641408516094089,0.000916297896765172
5,0.975000059842355,-0.302777798439244,-0.175000000455119,0.0103847095742822,0.0146607663482428,-0.0100792767480016
5,0.976388951725609,-0.308333341660331,-0.184722231481934,0.00977384392172098,0.0305432621389627,-0.0164933614432812
5,0.975000059842355,-0.311111125426839,-0.18333333959868,0.0109955742955208,0.0360410511493683,-0.0287106670439243
5,0.976388951725609,-0.306944449777077,-0.186111123365188,0.0192422550171614,0.0531452745199203,-0.0397062413394451
5,0.976388951725609,-0.302777798439244,-0.19166667874224,0.0143553335219622,0.0641408488154411,-0.0357356183230877
5,0.975000059842355,-0.301388906555989,-0.18333333959868,0.011606439948082,0.0665843114256859,-0.0345138870179653
5,0.975000059842355,-0.301388906555989,-0.18333333959868,0.0109955742955208,0.0613919571042061,-0.03176499158144
5,0.96666670854283,-0.302777798439244,-0.180555567988136,0.0125227374956012,0.0510072484612465,-0.0360410511493683
5,0.969444492309338,-0.297222230906227,-0.179166676104882,0.00946841109544039,0.0345138870179653,-0.0241291765123606
5,0.96666670854283,-0.297222230906227,-0.17361112072783,0.00794124789535999,0.02382374368608,-0.0171042270958424
5,0.96666670854283,-0.297222230906227,-0.17361112072783,0.0045814891345799,0.00763581553474069,-0.00427605677396059
5,0.962500032893068,-0.300000014672736,-0.188888894975731,0.000610865245107561,0.00397062394768,-0.00488692196086049
5,0.96666670854283,-0.301388906555989,-0.195833342236038,-0.011606439948082,-0.011606439948082,-0.000916297896765172
5,0.96666670854283,-0.301388906555989,-0.195833342236038,-0.01191187184304,-0.000305432622553781,0.00641408516094089
5,0.975000059842355,-0.306944449777077,-0.195833342236038,-0.0259617734700441,0.00855211354792118,0.00641408516094089
5,0.970833384192592,-0.300000014672736,-0.187500003092477,-0.0372627787292004,-0.00641408516094089,0.00885754637420177
5,0.969444492309338,-0.298611122789481,-0.187500003092477,-0.0390953756868839,-0.00885754637420177,-0.000610865245107561
5,0.976388951725609,-0.295833339022973,-0.186111123365188,-0.0323758572340012,0.00519235478714108,0.00580321997404099
5,0.968055600426084,-0.297222230906227,-0.18333333959868,-0.0329867228865623,0.00244346098043024,0.0113010071218014
5,0.969444492309338,-0.301388906555989,-0.176388892338373,-0.0345138870179653,-0.0140499006956816,0.00763581553474069
5,0.96666670854283,-0.295833339022973,-0.179166676104882,-0.0448985956609249,-0.0299323964864016,0.00763581553474069
5,0.972222276075846,-0.294444447139719,-0.180555567988136,-0.0339030213654041,-0.0192422550171614,0.00916297826915979
5,0.973611167959101,-0.298611122789481,-0.187500003092477,-0.0345138870179653,-0.00641408516094089,0.00702495034784079
5,0.977777843608863,-0.302777798439244,-0.187500003092477,-0.0400116741657257,-0.000916297896765172,0.0033597587607801
5,0.975000059842355,-0.305555557893823,-0.186111123365188,-0.0335975885391235,0.00855211354792118,0.00305432616733015
5,0.979166735492117,-0.309722233543585,-0.187500003092477,-0.0271835029125214,0.0213802829384804,-0.00610865233466029
5,0.981944519258625,-0.308333341660331,-0.187500003092477,-0.0262672062963247,0.0284052342176437,-0.00641408516094089
5,0.973611167959101,-0.306944449777077,-0.184722231481934,-0.0259617734700441,0.0219911485910416,-0.00824668072164059
5,0.970833384192592,-0.301388906555989,-0.180555567988136,-0.0271835029125214,0.01191187184304,-0.00641408516094089
5,0.970833384192592,-0.298611122789481,-0.18333333959868,-0.0268780700862408,0.000305432622553781,0.00152716308366507
5,0.973611167959101,-0.298611122789481,-0.180555567988136,-0.0207694191485643,-0.00183259579353034,0.00183259579353034
5,0.976388951725609,-0.301388906555989,-0.179166676104882,-0.0213802829384804,0.00122173049021512,0.00244346098043024
5,0.976388951725609,-0.301388906555989,-0.180555567988136,-0.0103847095742822,0.00885754637420177,-0.0033597587607801
5,0.977777843608863,-0.300000014672736,-0.181944447715425,-0.00519235478714108,0.00183259579353034,0.000305432622553781
5,0.975000059842355,-0.301388906555989,-0.18333333959868,-0.0140499006956816,-0.00733038317412138,-0.0033597587607801
5,0.970833384192592,-0.305555557893823,-0.187500003092477,-0.00885754637420177,-0.00244346098043024,-0.00183259579353034
5,0.972222276075846,-0.297222230906227,-0.190277786858986,-0.000916297896765172,-0.00244346098043024,0.00152716308366507
5,0.961111141009813,-0.300000014672736,-0.187500003092477,-0.0100792767480016,-0.0161879286170006,-0.00122173049021512
5,0.969444492309338,-0.302777798439244,-0.190277786858986,-0.0198531206697226,-0.0250454749912024,-0.00122173049021512
5,0.96666670854283,-0.298611122789481,-0.186111123365188,-0.0033597587607801,-0.0244346093386412,0.00366519158706069
5,0.970833384192592,-0.298611122789481,-0.181944447715425,-0.00763581553474069,-0.0268780700862408,0.00488692196086049
5,0.973611167959101,-0.298611122789481,-0.193055558469529,0.000305432622553781,-0.0290160998702049,0.0125227374956012
5,0.976388951725609,-0.295833339022973,-0.188888894975731,-0.00488692196086049,-0.0128281703218818,0.00641408516094089
5,0.979166735492117,-0.297222230906227,-0.195833342236038,-0.00702495034784079,-0.0045814891345799,0.00794124789535999
5,0.979166735492117,-0.298611122789481,-0.193055558469529,-0.00183259579353034,0.01191187184304,-0.00671951752156019
5,0.984722303025134,-0.295833339022973,-0.18333333959868,-0.00855211354792118,0.0167987942695618,-0.0167987942695618
5,0.986111194908388,-0.29166668768514,-0.188888894975731,-0.00733038317412138,0.0262672062963247,-0.0161879286170006
5,0.981944519258625,-0.288888903918631,-0.187500003092477,-0.0106901414692402,0.0387899428606033,-0.0177150927484035
5,0.976388951725609,-0.29166668768514,-0.17361112072783,-0.00855211354792118,0.0210748501121998,-0.0180205255746841
5,0.973611167959101,-0.295833339022973,-0.17361112072783,-0.0033597587607801,0.0033597587607801,-0.0100792767480016
5,0.973611167959101,-0.293055555256465,-0.170833336961321,0.00183259579353034,0.00427605677396059,-0.00397062394768
5,0.969444492309338,-0.280555576931036,-0.17361112072783,-0.00977384392172098,-0.00305432616733015,0.00763581553474069
5,0.970833384192592,-0.284722228268869,-0.187500003092477,0.0033597587607801,-0.0167987942695618,0.00152716308366507
5,0.979166735492117,-0.298611122789481,-0.190277786858986,0.00366519158706069,-0.0109955742955208,0.000610865245107561
5,0.986111194908388,-0.308333341660331,-0.202777789496344,0.0021380283869803,0.0033597587607801,0.0033597587607801
5,1.00138890837647,-0.318055560531181,-0.208333344873396,0.0100792767480016,0.0448985956609249,0.000610865245107561
5,0.997222232726705,-0.319444452414435,-0.204166669223633,0.0268780700862408,0.0980438739061356,-0.00916297826915979
5,0.997222232726705,-0.319444452414435,-0.204166669223633,0.0302378293126821,0.120340451598167,-0.0369573459029198
5,0.975000059842355,-0.287500012035377,-0.169444445078067,0.00916297826915979,0.121256753802299,-0.0516181141138077
5,0.979166735492117,-0.273611117514765,-0.16527778158427,-0.0180205255746841,0.0959058403968811,-0.0482583530247212
5,0.979166735492117,-0.273611117514765,-0.16527778158427,-0.027488935738802,0.0867428630590439,-0.0406225398182869
5,0.986111194908388,-0.265277790527169,-0.176388892338373,-0.0464257597923279,0.0791070461273193,-0.0253509078174829
5,0.956944465360051,-0.263888898643915,-0.163888889701015,-0.0763581544160843,0.0503963828086853,-0.0021380283869803
5,0.948611114060526,-0.272222225631511,-0.166666673467524,-0.0711658000946045,0.00733038317412138,0.015577063895762
5,0.940277860008718,-0.290277795801886,-0.170833336961321,-0.0461203269660473,-0.0332921557128429,0.0271835029125214
5,0.941666654644256,-0.309722233543585,-0.170833336961321,-0.0311541277915239,-0.0607810914516449,0.0167987942695618
5,0.94305554652751,-0.318055560531181,-0.190277786858986,0.00244346098043024,-0.0980438739061356,0.0229074470698834
5,0.956944465360051,-0.325000019947452,-0.197222234119292,0.02382374368608,-0.107206851243973,0.0314595587551594
5,0.958333357243305,-0.327777779402031,-0.216666671860991,0.0531452745199203,-0.122173048555851,0.0299323964864016
5,0.96666670854283,-0.325000019947452,-0.212499996211229,0.0537561401724815,-0.121867619454861,0.0503963828086853
5,0.973611167959101,-0.323611128064198,-0.218055563744246,0.0522289797663689,-0.110261179506779,0.0339030213654041
5,0.980555627375371,-0.312500017310094,-0.208333344873396,0.0448985956609249,-0.0986547395586967,0.0363464802503586
5,0.986111194908388,-0.295833339022973,-0.208333344873396,0.0226020142436027,-0.0781907513737679,0.0363464802503586
5,0.991666665193688,-0.295833339022973,-0.204166669223633,0.00794124789535999,-0.027488935738802,0.0436768643558025
5,0.986111194908388,-0.286111120152123,-0.188888894975731,-0.0268780700862408,-0.00366519158706069,0.0302378293126821
5,0.970833384192592,-0.287500012035377,-0.181944447715425,-0.0464257597923279,-0.00824668072164059,0.0363464802503586
5,0.96666670854283,-0.29166668768514,-0.180555567988136,-0.0497855171561241,-0.01191187184304,0.0384845100343227
5,0.973611167959101,-0.301388906555989,-0.177777784221628,-0.0311541277915239,-0.00885754637420177,0.0372627787292004
5,0.983333411141879,-0.305555557893823,-0.17361112072783,-0.0152716310694814,-0.00488692196086049,0.0207694191485643
5,0.981944519258625,-0.308333341660331,-0.169444445078067,0.00794124789535999,0.00855211354792118,0.00885754637420177
5,0.979166735492117,-0.304166666010569,-0.177777784221628,0.0183259565383196,0.0033597587607801,0.00305432616733015
5,0.973611167959101,-0.298611122789481,-0.197222234119292,0.0320704244077206,-0.00152716308366507,0.00244346098043024
5,0.973611167959101,-0.301388906555989,-0.187500003092477,0.0320704244077206,-0.0033597587607801,-0.00427605677396059
5,0.976388951725609,-0.306944449777077,-0.186111123365188,0.0390953756868839,0.013744467869401,-0.00824668072164059
5,0.977777843608863,-0.295833339022973,-0.18333333959868,0.0329867228865623,0.0113010071218014,-0.0125227374956012
5,0.976388951725609,-0.29166668768514,-0.18333333959868,0.0219911485910416,0.015577063895762,-0.0164933614432812
5,0.973611167959101,-0.288888903918631,-0.188888894975731,0.0161879286170006,0.00794124789535999,-0.0186313893646002
5,0.977777843608863,-0.294444447139719,-0.177777784221628,0.0213802829384804,0.019547687843442,-0.0106901414692402
5,0.976388951725609,-0.301388906555989,-0.181944447715425,0.0113010071218014,0.0268780700862408,-0.0167987942695618
5,0.969444492309338,-0.293055555256465,-0.18333333959868,0.00549778714776039,0.0152716310694814,-0.00733038317412138
5,0.975000059842355,-0.297222230906227,-0.186111123365188,0.00671951752156019,0.0189368221908808,-0.0122173046693206
5,0.969444492309338,-0.29166668768514,-0.180555567988136,0.00244346098043024,0.0198531206697226,-0.019547687843442
5,0.968055600426084,-0.29166668768514,-0.18333333959868,-0.0143553335219622,0.0152716310694814,-0.00794124789535999
5,0.973611167959101,-0.293055555256465,-0.187500003092477,-0.0113010071218014,0.0186313893646002,-0.011606439948082
5,0.976388951725609,-0.298611122789481,-0.188888894975731,-0.00824668072164059,0.0161879286170006,-0.00794124789535999
5,0.973611167959101,-0.305555557893823,-0.188888894975731,-0.000305432622553781,0.0134390350431204,-0.0149661982432008
5,0.969444492309338,-0.298611122789481,-0.176388892338373,0.00397062394768,0.0125227374956012,-0.0164933614432812
5,0.969444492309338,-0.297222230906227,-0.184722231481934,0.0103847095742822,0.00794124789535999,0.00305432616733015
5,0.973611167959101,-0.295833339022973,-0.177777784221628,0.00519235478714108,0.000305432622553781,-0.00244346098043024
5,0.970833384192592,-0.298611122789481,-0.176388892338373,0.00824668072164059,-0.00305432616733015,0.00702495034784079
5,0.973611167959101,-0.295833339022973,-0.177777784221628,0.011606439948082,-0.00427605677396059,-0.00427605677396059
5,0.972222276075846,-0.298611122789481,-0.180555567988136,0.0128281703218818,-0.0128281703218818,-0.00916297826915979
5,0.977777843608863,-0.300000014672736,-0.179166676104882,0.0122173046693206,-0.0131336031481624,-0.0021380283869803
5,0.977777843608863,-0.297222230906227,-0.179166676104882,0.01191187184304,0.000305432622553781,-0.00580321997404099
5,0.976388951725609,-0.298611122789481,-0.187500003092477,0.0131336031481624,0.0113010071218014,-0.00671951752156019
5,0.972222276075846,-0.295833339022973,-0.184722231481934,0.0152716310694814,0.0027488935738802,-0.0109955742955208
5,0.970833384192592,-0.295833339022973,-0.176388892338373,0.011606439948082,0.00427605677396059,-0.00610865233466029
5,0.972222276075846,-0.300000014672736,-0.177777784221628,0.0113010071218014,-0.00152716308366507,-0.00580321997404099
5,0.970833384192592,-0.298611122789481,-0.176388892338373,0.0134390350431204,-0.00122173049021512,-0.00977384392172098
5,0.973611167959101,-0.304166666010569,-0.177777784221628,0.0167987942695618,0.00610865233466029,-0.00794124789535999
5,0.973611167959101,-0.301388906555989,-0.19166667874224,0.0106901414692402,-0.00244346098043024,-0.0100792767480016
5,0.970833384192592,-0.29166668768514,-0.193055558469529,0.0152716310694814,0.000916297896765172,-0.00488692196086049
5,0.975000059842355,-0.301388906555989,-0.188888894975731,0.0103847095742822,0.00122173049021512,-0.0100792767480016
5,0.969444492309338,-0.297222230906227,-0.186111123365188,0.00977384392172098,0.01191187184304,-0.0109955742955208
5,0.96666670854283,-0.294444447139719,-0.180555567988136,0.00794124789535999,0.0183259565383196,-0.015577063895762
5,0.970833384192592,-0.294444447139719,-0.187500003092477,0.0021380283869803,0.0128281703218818,-0.0140499006956816
5,0.972222276075846,-0.294444447139719,-0.184722231481934,-0.00152716308366507,0.00641408516094089,-0.0204639863222837
5,0.980555627375371,-0.298611122789481,-0.186111123365188,-0.00366519158706069,0.0122173046693206,-0.0201585534960032
5,0.980555627375371,-0.298611122789481,-0.186111123365188,-0.0106901414692402,0.0189368221908808,-0.015577063895762
5,0.979166735492117,-0.298611122789481,-0.190277786858986,-0.0113010071218014,0.0262672062963247,-0.00397062394768
5,0.973611167959101,-0.294444447139719,-0.200000005729836,-0.00885754637420177,0.0201585534960032,-0.00702495034784079
5,0.969444492309338,-0.302777798439244,-0.194444450352783,-0.00549778714776039,0.0113010071218014,-0.00824668072164059
5,0.970833384192592,-0.304166666010569,-0.205555561106887,-0.00488692196086049,0.011606439948082,-0.00885754637420177
5,0.973611167959101,-0.301388906555989,-0.195833342236038,0.00183259579353034,0.0106901414692402,-0.00580321997404099
5,0.973611167959101,-0.294444447139719,-0.193055558469529,0.0027488935738802,0.015577063895762,-0.00916297826915979
5,0.973611167959101,-0.284722228268869,-0.181944447715425,-0.00763581553474069,0.027488935738802,-0.0027488935738802
5,0.972222276075846,-0.287500012035377,-0.187500003092477,-0.0189368221908808,0.00519235478714108,-0.00152716308366507
5,0.975000059842355,-0.300000014672736,-0.193055558469529,-0.0122173046693206,0.0207694191485643,-0.00122173049021512
5,0.976388951725609,-0.301388906555989,-0.19166667874224,-0.0045814891345799,0.0241291765123606,-0.0103847095742822
5,0.976388951725609,-0.297222230906227,-0.18333333959868,-0.00122173049021512,0.00977384392172098,-0.00702495034784079
5,0.972222276075846,-0.297222230906227,-0.19166667874224,-0.00824668072164059,0.000305432622553781,-0.0128281703218818
5,0.973611167959101,-0.297222230906227,-0.198611113846581,-0.00824668072164059,0.0131336031481624,-0.0131336031481624
5,0.980555627375371,-0.288888903918631,-0.197222234119292,-0.00855211354792118,0.0265726372599602,-0.0106901414692402
5,0.980555627375371,-0.288888903918631,-0.195833342236038,-0.00946841109544039,0.0311541277915239,-0.015577063895762
5,0.981944519258625,-0.29166668768514,-0.190277786858986,-0.0033597587607801,0.019547687843442,-0.01588249579072
5,0.972222276075846,-0.293055555256465,-0.18333333959868,0.00305432616733015,0.0103847095742822,-0.0109955742955208
5,0.970833384192592,-0.295833339022973,-0.187500003092477,0.00152716308366507,0.00885754637420177,-0.0128281703218818
5,0.976388951725609,-0.288888903918631,-0.188888894975731,-0.00183259579353034,-0.013744467869401,-0.0140499006956816
5,0.981944519258625,-0.286111120152123,-0.184722231481934,0.000916297896765172,-0.00580321997404099,-0.00977384392172098
5,0.979166735492117,-0.293055555256465,-0.179166676104882,-0.00427605677396059,0.00763581553474069,-0.00855211354792118
5,0.972222276075846,-0.29166668768514,-0.190277786858986,-0.01191187184304,-0.00702495034784079,0.00397062394768
5,0.972222276075846,-0.293055555256465,-0.186111123365188,-0.0167987942695618,-0.0226020142436027,0.00366519158706069
5,0.976388951725609,-0.300000014672736,-0.188888894975731,-0.0186313893646002,-0.0134390350431204,0.000610865245107561
5,0.983333411141879,-0.297222230906227,-0.190277786858986,0.00122173049021512,0.0171042270958424,-0.00122173049021512
5,0.981944519258625,-0.298611122789481,-0.177777784221628,0.0033597587607801,0.0293215326964855,-0.00824668072164059
5,0.96666670854283,-0.297222230906227,-0.187500003092477,-0.00610865233466029,0.0143553335219622,-0.00519235478714108
5,0.968055600426084,-0.294444447139719,-0.184722231481934,0.000916297896765172,0.0122173046693206,-0.00763581553474069
5,0.969444492309338,-0.301388906555989,-0.186111123365188,0.0161879286170006,0.00977384392172098,-0.00641408516094089
5,0.976388951725609,-0.295833339022973,-0.180555567988136,0.01588249579072,-0.00122173049021512,-0.00488692196086049
5,0.970833384192592,-0.295833339022973,-0.184722231481934,0.0201585534960032,-0.0146607663482428,-0.015577063895762
5,0.979166735492117,-0.29166668768514,-0.184722231481934,0.0290160998702049,-0.000610865245107561,-0.00397062394768
5,0.973611167959101,-0.29166668768514,-0.190277786858986,0.0305432621389627,-0.0045814891345799,-0.0045814891345799
5,0.973611167959101,-0.281944444502361,-0.187500003092477,0.0219911485910416,-0.013744467869401,-0.00580321997404099
5,0.973611167959101,-0.286111120152123,-0.188888894975731,0.0131336031481624,-0.0125227374956012,0.00824668072164059
5,0.979166735492117,-0.29166668768514,-0.197222234119292,0.0164933614432812,-0.0152716310694814,0.00610865233466029
5,0.977777843608863,-0.288888903918631,-0.187500003092477,0.0122173046693206,-0.000916297896765172,-0.00763581553474069
5,0.979166735492117,-0.293055555256465,-0.186111123365188,0.00397062394768,0.000305432622553781,-0.0021380283869803
5,0.980555627375371,-0.288888903918631,-0.184722231481934,-0.0033597587607801,0.00397062394768,0.0021380283869803
5,0.980555627375371,-0.286111120152123,-0.184722231481934,-0.0122173046693206,0.00977384392172098,-0.00671951752156019
5,0.984722303025134,-0.29166668768514,-0.17361112072783,-0.00885754637420177,0.01191187184304,0.00122173049021512
5,0.979166735492117,-0.29166668768514,-0.180555567988136,-0.0033597587607801,0.00977384392172098,-0.0106901414692402
5,0.972222276075846,-0.293055555256465,-0.186111123365188,0.00183259579353034,0.0113010071218014,0.00244346098043024
5,0.972222276075846,-0.293055555256465,-0.186111123365188,-0.000305432622553781,0.00580321997404099,0.00244346098043024
5,0.976388951725609,-0.295833339022973,-0.175000000455119,0.000610865245107561,0.00549778714776039,-0.00183259579353034
5,0.979166735492117,-0.29166668768514,-0.179166676104882,0.0033597587607801,0.0229074470698834,-0.0100792767480016
5,0.979166735492117,-0.29166668768514,-0.179166676104882,-0.0128281703218818,0.00305432616733015,0.000916297896765172
5,0.976388951725609,-0.290277795801886,-0.181944447715425,-0.0045814891345799,-0.00366519158706069,0.0100792767480016
5,0.975000059842355,-0.290277795801886,-0.184722231481934,0.00305432616733015,0.00122173049021512,0.00366519158706069
5,0.975000059842355,-0.290277795801886,-0.184722231481934,0.0021380283869803,0.00427605677396059,0.01191187184304
5,0.969444492309338,-0.301388906555989,-0.190277786858986,0.00244346098043024,-0.0021380283869803,0.00549778714776039
5,0.975000059842355,-0.293055555256465,-0.190277786858986,0.01191187184304,0.00671951752156019,0.00763581553474069
5,0.975000059842355,-0.293055555256465,-0.190277786858986,0.0125227374956012,0.0109955742955208,0.00152716308366507
5,0.976388951725609,-0.294444447139719,-0.186111123365188,0.00733038317412138,0.0128281703218818,0.0131336031481624
5,0.976388951725609,-0.294444447139719,-0.195833342236038,0.0125227374956012,0.00580321997404099,0.00671951752156019
5,0.973611167959101,-0.290277795801886,-0.184722231481934,0.011606439948082,0.00183259579353034,0.00488692196086049
5,0.969444492309338,-0.295833339022973,-0.190277786858986,0.0125227374956012,0.000916297896765172,0.00152716308366507
5,0.972222276075846,-0.300000014672736,-0.170833336961321,0.0152716310694814,-0.0033597587607801,0.0027488935738802
5,0.975000059842355,-0.293055555256465,-0.187500003092477,0.00946841109544039,0.00183259579353034,-0.00152716308366507
5,0.973611167959101,-0.287500012035377,-0.188888894975731,0.00641408516094089,-0.00152716308366507,-0.00580321997404099
5,0.979166735492117,-0.288888903918631,-0.184722231481934,0.00855211354792118,-0.00794124789535999,0.000305432622553781
5,0.975000059842355,-0.286111120152123,-0.188888894975731,0.0103847095742822,-0.00916297826915979,-0.0167987942695618
5,0.975000059842355,-0.29166668768514,-0.187500003092477,0.0100792767480016,-0.00641408516094089,-0.0152716310694814
5,0.976388951725609,-0.290277795801886,-0.193055558469529,0.0167987942695618,-0.00977384392172098,-0.0103847095742822
5,0.975000059842355,-0.29166668768514,-0.186111123365188,0.0146607663482428,0.0033597587607801,-0.0164933614432812
5,0.977777843608863,-0.294444447139719,-0.18333333959868,0.0192422550171614,0.00549778714776039,-0.00244346098043024
5,0.977777843608863,-0.298611122789481,-0.18333333959868,0.0210748501121998,0.0033597587607801,-0.0134390350431204
5,0.979166735492117,-0.29166668768514,-0.181944447715425,0.0201585534960032,-0.00702495034784079,-0.00733038317412138
5,0.979166735492117,-0.293055555256465,-0.195833342236038,0.0189368221908808,-0.0113010071218014,0.0045814891345799
5,0.976388951725609,-0.297222230906227,-0.180555567988136,0.0192422550171614,-0.0152716310694814,0.00733038317412138
5,0.979166735492117,-0.294444447139719,-0.18333333959868,0.015577063895762,-0.01191187184304,0.0204639863222837
5,0.976388951725609,-0.294444447139719,-0.170833336961321,0.0140499006956816,-0.00733038317412138,0.017409659922123
5,0.970833384192592,-0.288888903918631,-0.172222228844576,0.0143553335219622,-0.00794124789535999,0.0219911485910416
5,0.96666670854283,-0.29166668768514,-0.18333333959868,0.00305432616733015,-0.00794124789535999,0.0189368221908808
5,0.976388951725609,-0.288888903918631,-0.18333333959868,0.00397062394768,-0.00671951752156019,0.01191187184304
5,0.976388951725609,-0.288888903918631,-0.18333333959868,-0.00244346098043024,-0.00733038317412138,0.00763581553474069
5,0.979166735492117,-0.280555576931036,-0.200000005729836,-0.00488692196086049,-0.0100792767480016,0.00702495034784079
5,0.973611167959101,-0.286111120152123,-0.17361112072783,-0.00122173049021512,-0.0106901414692402,0.0125227374956012
5,0.973611167959101,-0.286111120152123,-0.17361112072783,0.000305432622553781,-0.0219911485910416,0.0021380283869803
5,0.976388951725609,-0.294444447139719,-0.193055558469529,0.00641408516094089,-0.0210748501121998,-0.000305432622553781
5,0.976388951725609,-0.294444447139719,-0.193055558469529,0.0106901414692402,-0.0192422550171614,-0.000916297896765172
5,0.969444492309338,-0.298611122789481,-0.20138889761309,0.015577063895762,-0.0149661982432008,0.00183259579353034
5,0.976388951725609,-0.300000014672736,-0.193055558469529,0.011606439948082,-0.01191187184304,-0.00610865233466029
5,0.979166735492117,-0.295833339022973,-0.190277786858986,0.0277943685650826,-0.000610865245107561,-0.00427605677396059
5,0.977777843608863,-0.301388906555989,-0.188888894975731,0.019547687843442,-0.00183259579353034,-0.0128281703218818
5,0.976388951725609,-0.298611122789481,-0.200000005729836,0.0198531206697226,-0.000305432622553781,-0.00885754637420177
5,0.976388951725609,-0.298611122789481,-0.200000005729836,0.019547687843442,0.00122173049021512,-0.00671951752156019
5,0.977777843608863,-0.288888903918631,-0.190277786858986,0.0149661982432008,0.0143553335219622,-0.00244346098043024
5,0.977777843608863,-0.288888903918631,-0.190277786858986,0.00152716308366507,0.0131336031481624,-0.0027488935738802
5,0.970833384192592,-0.286111120152123,-0.188888894975731,-0.0103847095742822,-0.00397062394768,-0.00763581553474069
5,0.975000059842355,-0.294444447139719,-0.19166667874224,-0.00122173049021512,0.00885754637420177,-0.00122173049021512
5,0.975000059842355,-0.294444447139719,-0.19166667874224,0.00855211354792118,0.000916297896765172,-0.00488692196086049
5,0.979166735492117,-0.29166668768514,-0.186111123365188,0.0122173046693206,-0.000610865245107561,-0.00641408516094089
5,0.972222276075846,-0.295833339022973,-0.186111123365188,0.0192422550171614,0.00397062394768,0.00244346098043024
5,0.975000059842355,-0.302777798439244,-0.18333333959868,0.0171042270958424,-0.00580321997404099,-0.00580321997404099
5,0.977777843608863,-0.298611122789481,-0.193055558469529,0.0183259565383196,0.00183259579353034,-0.00885754637420177
5,0.975000059842355,-0.297222230906227,-0.187500003092477,0.0164933614432812,-0.0021380283869803,-0.00488692196086049
5,0.968055600426084,-0.295833339022973,-0.180555567988136,0.0244346093386412,-0.000610865245107561,-0.00183259579353034
5,0.973611167959101,-0.298611122789481,-0.18333333959868,0.0256563406437635,-0.00977384392172098,0.00366519158706069
5,0.979166735492117,-0.295833339022973,-0.179166676104882,0.0372627787292004,0.0027488935738802,-0.00397062394768
5,0.981944519258625,-0.301388906555989,-0.186111123365188,0.0345138870179653,0.00916297826915979,-0.00763581553474069
5,0.977777843608863,-0.301388906555989,-0.190277786858986,0.0403171069920063,0.00641408516094089,-0.00549778714776039
5,0.976388951725609,-0.294444447139719,-0.187500003092477,0.0442877300083637,-0.00152716308366507,-0.00549778714776039
5,0.979166735492117,-0.29166668768514,-0.179166676104882,0.0403171069920063,0.00671951752156019,-0.0027488935738802
5,0.979166735492117,-0.301388906555989,-0.193055558469529,0.0427605658769607,-0.00244346098043024,-0.0103847095742822
5,0.981944519258625,-0.293055555256465,-0.197222234119292,0.0329867228865623,-0.000916297896765172,-0.00122173049021512
5,0.975000059842355,-0.290277795801886,-0.190277786858986,0.0366519130766392,-0.00152716308366507,-0.00610865233466029
5,0.969444492309338,-0.295833339022973,-0.17361112072783,0.0259617734700441,-0.00610865233466029,-0.00580321997404099
5,0.970833384192592,-0.290277795801886,-0.180555567988136,0.0284052342176437,-0.0183259565383196,-0.0021380283869803
5,0.968055600426084,-0.288888903918631,-0.190277786858986,0.0256563406437635,-0.0140499006956816,-0.00244346098043024
5,0.976388951725609,-0.290277795801886,-0.190277786858986,0.0259617734700441,-0.0100792767480016,-0.0045814891345799
5,0.976388951725609,-0.293055555256465,-0.188888894975731,0.0164933614432812,-0.00763581553474069,-0.000610865245107561
5,0.975000059842355,-0.29166668768514,-0.18333333959868,0.0180205255746841,-0.00397062394768,-0.0033597587607801
5,0.977777843608863,-0.297222230906227,-0.181944447715425,0.019547687843442,-0.00519235478714108,0.000305432622553781
5,0.979166735492117,-0.293055555256465,-0.181944447715425,0.0122173046693206,-0.00519235478714108,-0.0045814891345799
5,0.976388951725609,-0.29166668768514,-0.188888894975731,0.01191187184304,-0.00427605677396059,0.00488692196086049
5,0.975000059842355,-0.29166668768514,-0.186111123365188,0.00305432616733015,0.0045814891345799,0.00122173049021512
5,0.969444492309338,-0.293055555256465,-0.190277786858986,0.0027488935738802,0.00122173049021512,0.00427605677396059
5,0.973611167959101,-0.294444447139719,-0.180555567988136,0.00305432616733015,-0.00397062394768,-0.00519235478714108
5,0.975000059842355,-0.294444447139719,-0.180555567988136,0.0109955742955208,-0.0149661982432008,0.00794124789535999
5,0.972222276075846,-0.301388906555989,-0.187500003092477,0.000610865245107561,-0.01191187184304,-0.00152716308366507
5,0.970833384192592,-0.295833339022973,-0.187500003092477,0.00671951752156019,-0.00977384392172098,0.00427605677396059
5,0.975000059842355,-0.294444447139719,-0.19166667874224,0.0122173046693206,-0.00610865233466029,0.0027488935738802
5,0.976388951725609,-0.295833339022973,-0.194444450352783,0.0106901414692402,-0.011606439948082,-0.000610865245107561
5,0.976388951725609,-0.293055555256465,-0.190277786858986,0.00824668072164059,-0.0100792767480016,-0.00244346098043024
5,0.969444492309338,-0.294444447139719,-0.193055558469529,0.01191187184304,-0.0033597587607801,-0.00580321997404099
5,0.975000059842355,-0.298611122789481,-0.194444450352783,0.00977384392172098,0.0033597587607801,-0.00397062394768
5,0.970833384192592,-0.29166668768514,-0.200000005729836,0.00916297826915979,-0.000305432622553781,-0.00733038317412138
5,0.969444492309338,-0.294444447139719,-0.193055558469529,0.0125227374956012,-0.00397062394768,0.00366519158706069
5,0.972222276075846,-0.297222230906227,-0.19166667874224,0.0146607663482428,-0.011606439948082,-0.00519235478714108
5,0.976388951725609,-0.301388906555989,-0.181944447715425,0.019547687843442,-0.000916297896765172,-0.00122173049021512
5,0.973611167959101,-0.295833339022973,-0.19166667874224,0.00885754637420177,0.00366519158706069,0.000916297896765172
5,0.970833384192592,-0.29166668768514,-0.198611113846581,0.00641408516094089,-0.00885754637420177,-0.000916297896765172
5,0.973611167959101,-0.295833339022973,-0.19166667874224,0.0128281703218818,0.00427605677396059,-0.00702495034784079
5,0.975000059842355,-0.300000014672736,-0.190277786858986,0.0186313893646002,0.00671951752156019,0.00397062394768
5,0.975000059842355,-0.300000014672736,-0.190277786858986,0.00946841109544039,0.00519235478714108,-0.00733038317412138
5,0.972222276075846,-0.295833339022973,-0.18333333959868,0.011606439948082,-0.00366519158706069,-0.0103847095742822
5,0.972222276075846,-0.301388906555989,-0.184722231481934,0.0125227374956012,0.00244346098043024,-0.00152716308366507
5,0.972222276075846,-0.301388906555989,-0.184722231481934,0.0106901414692402,0.0122173046693206,-0.00671951752156019
5,0.973611167959101,-0.298611122789481,-0.187500003092477,0.0106901414692402,0.00977384392172098,-0.0103847095742822
5,0.970833384192592,-0.294444447139719,-0.186111123365188,0.0143553335219622,0.00427605677396059,-0.0021380283869803
5,0.970833384192592,-0.294444447139719,-0.186111123365188,0.015577063895762,-0.000305432622553781,-0.00366519158706069
5,0.973611167959101,-0.295833339022973,-0.193055558469529,0.0186313893646002,-0.00733038317412138,-0.00305432616733015
5,0.972222276075846,-0.298611122789481,-0.200000005729836,0.0146607663482428,-0.00519235478714108,-0.0021380283869803
5,0.969444492309338,-0.29166668768514,-0.200000005729836,0.0213802829384804,-0.00671951752156019,-0.000916297896765172
5,0.972222276075846,-0.295833339022973,-0.190277786858986,0.0232128798961639,-0.00519235478714108,-0.00183259579353034
5,0.972222276075846,-0.295833339022973,-0.190277786858986,0.0192422550171614,-0.0033597587607801,-0.000305432622553781
5,0.969444492309338,-0.298611122789481,-0.19166667874224,0.0222965814173222,-0.00763581553474069,0.0045814891345799
5,0.973611167959101,-0.300000014672736,-0.190277786858986,0.019547687843442,-0.01588249579072,-0.00488692196086049
5,0.970833384192592,-0.298611122789481,-0.195833342236038,0.0140499006956816,-0.00671951752156019,0.00152716308366507
5,0.979166735492117,-0.294444447139719,-0.190277786858986,0.0222965814173222,-0.000916297896765172,-0.0033597587607801
5,0.979166735492117,-0.29166668768514,-0.188888894975731,0.0164933614432812,-0.00641408516094089,-0.00519235478714108
5,0.973611167959101,-0.29166668768514,-0.184722231481934,0.0125227374956012,-0.00244346098043024,0.000610865245107561
5,0.973611167959101,-0.293055555256465,-0.193055558469529,0.0146607663482428,-0.00610865233466029,0.00488692196086049
5,0.973611167959101,-0.295833339022973,-0.193055558469529,0.00824668072164059,-0.000305432622553781,-0.00610865233466029
5,0.969444492309338,-0.294444447139719,-0.197222234119292,0.00183259579353034,-0.00549778714776039,-0.00549778714776039
5,0.976388951725609,-0.297222230906227,-0.202777789496344,0.00183259579353034,0.00305432616733015,0.00549778714776039
5,0.973611167959101,-0.294444447139719,-0.197222234119292,0.00610865233466029,0.00183259579353034,0.00671951752156019
5,0.975000059842355,-0.301388906555989,-0.180555567988136,0.00122173049021512,0.00885754637420177,0.00122173049021512
5,0.973611167959101,-0.298611122789481,-0.19166667874224,0.00427605677396059,0.00885754637420177,-0.00366519158706069
5,0.972222276075846,-0.295833339022973,-0.187500003092477,-0.00244346098043024,-0.000305432622553781,0.00397062394768
5,0.973611167959101,-0.295833339022973,-0.188888894975731,0.000916297896765172,-0.00305432616733015,0.00824668072164059
5,0.973611167959101,-0.295833339022973,-0.197222234119292,0.00610865233466029,-0.000305432622553781,-0.000916297896765172
5,0.977777843608863,-0.29166668768514,-0.200000005729836,0.00671951752156019,-0.0027488935738802,0.00397062394768
5,0.979166735492117,-0.295833339022973,-0.20138889761309,0.00733038317412138,0.00152716308366507,0.00885754637420177
5,0.973611167959101,-0.29166668768514,-0.188888894975731,-0.00366519158706069,-0.00641408516094089,0.00580321997404099
5,0.972222276075846,-0.293055555256465,-0.197222234119292,-0.00855211354792118,0.00183259579353034,0.00397062394768
5,0.973611167959101,-0.29166668768514,-0.19166667874224,-0.00397062394768,0.000916297896765172,-0.00183259579353034
5,0.977777843608863,-0.29166668768514,-0.195833342236038,-0.00122173049021512,0.00183259579353034,0.0027488935738802
5,0.976388951725609,-0.29166668768514,-0.188888894975731,0.00122173049021512,-0.000916297896765172,-0.00366519158706069
5,0.972222276075846,-0.293055555256465,-0.18333333959868,0.000916297896765172,-0.00977384392172098,0.00152716308366507
5,0.972222276075846,-0.298611122789481,-0.186111123365188,0.00488692196086049,-0.00427605677396059,0.00733038317412138
5,0.973611167959101,-0.300000014672736,-0.18333333959868,0.00366519158706069,-0.0152716310694814,0.0045814891345799
5,0.980555627375371,-0.295833339022973,-0.17361112072783,0.0131336031481624,-0.00733038317412138,0.00641408516094089
5,0.976388951725609,-0.293055555256465,-0.190277786858986,0.000610865245107561,0.0103847095742822,0.00855211354792118
5,0.975000059842355,-0.29166668768514,-0.187500003092477,-0.00244346098043024,-0.0033597587607801,0.00244346098043024
5,0.976388951725609,-0.293055555256465,-0.195833342236038,0.000916297896765172,-0.00641408516094089,0.00488692196086049
