Activity,acc_x,acc_y,acc_z,gyro_x,gyro_y,gyro_z
0,0.318055560531181,-0.00138888893923146,0.940277860008718,-0.0610865242779255,-0.262061178684235,0.00702495034784079
0,0.305555557893823,0.00694444498106275,0.979166735492117,-0.10048733651638,-0.47647488117218,0.0455094613134861
0,0.305555557893823,0.00694444498106275,0.979166735492117,-0.20616702735424,-0.662483334541321,0.0464257597923279
0,0.315277801076602,-0.0111111115138517,0.95000000594378,-0.251065611839294,-0.742506682872772,0.120340451598167
0,0.325000019947452,-0.0361111129898289,0.888888957576031,-0.1750128865242,-0.742812156677246,0.193338856101036
0,0.334722238818301,-0.0194444453391775,0.930555616825939,-0.00671951752156019,-0.388510286808014,0.0229074470698834
0,0.379166681834717,-0.0222222230277034,0.95000000594378,-0.000916297896765172,-0.213191971182823,-0.0229074470698834
0,0.394444468238583,-0.0152777788063885,0.936111184358955,-0.155159771442413,-0.401949346065521,-0.0897971913218498
0,0.402777795226179,-0.0500000014324589,0.898611103511094,0.00397062394768,-0.31703907251358,-0.178983509540558
0,0.397222227693163,-0.029166668768514,0.909722238577127,0.114537231624126,-0.182648703455925,-0.191811680793762
0,0.413888905980283,-0.0194444453391775,0.991666665193688,0.132863193750381,-0.461814135313034,-0.16951510310173
0,0.380555573717971,-0.0194444453391775,0.929166724942685,-0.120340451598167,-0.675006091594696,-0.155159771442413
0,0.388888900705567,0.00138888893923146,0.930555616825939,-0.225714713335037,-0.797179162502289,-0.172874867916107
0,0.400000011459671,-0.0138888899621255,0.92083337364316,-0.288328409194946,-1.16430914402008,-0.267864406108856
0,0.422222257279808,-0.0250000007162294,0.893055633225794,-0.157297804951668,-1.1157454252243,-0.469449937343597
0,0.449999997697174,-0.029166668768514,0.926388941176177,-0.171042263507843,-1.03022420406342,-0.617584764957428
0,0.451388889580428,-0.0652777787193518,0.933333400592447,-0.0259617734700441,-0.781602084636688,-0.691499471664429
0,0.440277803138253,-0.052777782159976,0.931944508709193,0.153938040137291,-0.247094988822937,-0.799317181110382
0,0.536111148587356,-0.0361111129898289,0.87500003874349,0.0714712366461754,-0.0534507073462009,-0.643241107463837
0,0.536111148587356,-0.0361111129898289,0.87500003874349,-0.0143553335219622,-0.252592772245407,-0.405919969081879
0,0.572222240304247,-0.0416666683668809,0.834722271376837,0.117591559886932,-0.0901026204228401,-0.305127203464508
0,0.570833348420992,-0.00694444498106275,0.826388920077312,0.137750118970871,0.0916297882795334,-0.408974289894104
0,0.545833343146276,0.055555559848502,0.848611190209378,0.00183259579353034,0.0922406539320946,-0.486554175615311
0,0.545833343146276,0.0638888929140799,0.85138887672817,0.269391566514969,0.664926826953888,-0.441960990428925
0,0.508333359546131,0.0833333367337618,0.86805557932722,0.170736834406853,0.692110300064087,-0.26419922709465
0,0.493055597454194,0.0416666683668809,0.881944498159761,0.182648703455925,0.242513507604599,-0.347276896238327
0,0.519444445988306,-0.0180555564949145,0.894444525109048,0.25870144367218,-0.32192599773407,-0.255952537059784
0,0.473611111088636,-0.0208333341834404,0.904166671044111,0.150272846221924,-1.19149267673492,-0.146302223205566
0,0.515277818962402,-0.0236111118719664,0.840277838909853,-0.255036234855652,-1.52074897289276,-0.0201585534960032
0,0.56666667277123,-0.00555555575692586,0.843055622676362,-0.547946095466614,-1.49967420101166,-0.145385921001434
0,0.572222240304247,0.0125000003581147,0.841666730793107,-0.636216163635254,-1.54243469238281,-0.163101017475128
0,0.587500002396184,-0.0388888906783549,0.729166682744956,-0.542448341846466,-1.30694615840912,-0.313679307699203
0,0.609722223904392,-0.0625000010308258,0.616666683320662,-1.22661745548248,-0.642019391059875,-0.529620170593262
0,0.690277807261557,-0.0458333348996699,0.461111132763207,-2.05769968032837,-0.359494209289551,-0.791375935077667
0,0.626388926503441,-0.113888891307548,0.697222266677827,-1.87993776798248,-1.01800692081451,-0.556803643703461
0,0.626388926503441,-0.111111119697004,0.809722266102121,-1.80296874046326,-0.853378772735596,-0.598342478275299
0,0.709722245003256,-0.0777777813567098,0.806944482335612,-1.77883958816528,0.00580321997404099,-0.904385983943939
0,0.650000039894903,-0.0805555590452358,0.865277795560711,-1.59405291080475,-1.1966849565506,-0.485637873411179
0,0.481944462388161,-0.0847222225390337,0.95000000594378,-1.23180973529816,-2.93673467636108,0.260228604078293
0,0.637500012945616,-0.0986111170596459,0.893055633225794,-0.972192049026489,-3.39274549484253,0.145691365003586
0,0.877777822509998,-0.116666675074056,0.863888903677457,-0.613003253936768,-2.56655025482178,-0.244956970214844
0,0.837500055143345,-0.130555557438704,0.961111141009813,0.0397062413394451,-2.5436429977417,0.0134390350431204
0,0.779166693294388,-0.116666675074056,0.701388893703731,-0.183565005660057,-3.00179171562195,0.326507478952408
0,0.959722249126559,-0.293055555256465,0.24583335278547,-1.07329022884369,-3.18780016899109,-0.021685715764761
0,0.938888968125464,-0.279166685047782,0.312500017310094,-1.13590395450592,-3.08303689956665,0.326812893152237
0,0.912500022343635,-0.18333333959868,0.361111135976272,-1.28373336791992,-2.77088475227356,0.653014957904816
0,0.848611190209378,-0.17361112072783,0.25555557165632,-1.36406207084656,-2.41811013221741,0.751975119113922
0,0.838888947026599,-0.14583334384257,0.205555561106887,-1.5534303188324,-2.35244202613831,0.766330420970917
0,0.961111141009813,-0.13750000469901,0.24583335278547,-1.42056715488434,-2.43185448646545,0.175318330526352
0,0.961111141009813,-0.13750000469901,0.24583335278547,-0.586125195026398,-2.90099906921387,-0.503658413887024
0,0.865277795560711,-0.263888898643915,0.384722225055805,-0.982271313667297,-0.87262099981308,-0.0998764708638191
0,0.793055563503071,-0.175000000455119,0.222222239394008,-1.56473135948181,-1.33412969112396,0.497855186462402
0,0.970833384192592,-0.179166676104882,0.2194444556275,-1.76417887210846,-1.36375665664673,0.333837866783142
0,1.06250005399193,-0.238888893369199,0.190277786858986,-1.9813414812088,-1.80327415466309,0.675311505794525
0,0.916666697993398,-0.227777782615095,0.112499999424294,-1.54671084880829,-1.44988870620727,0.470060795545578
0,0.791666671619817,-0.2194444556275,-0.00416666691266287,-1.36864352226257,-2.19300627708435,0.586736083030701
0,0.634722229179108,-0.200000005729836,-0.029166668768514,-0.655763864517212,0.307876080274582,0.417831838130951
0,0.965277816659576,-0.363888895430851,0.0222222230277034,0.0803287774324417,0.412944912910461,0.499993205070496
0,0.890277849459286,-0.329166671285285,0.0625000010308258,0.324369430541992,0.307265222072601,0.463035851716995
0,1.05833337834217,-0.334722238818301,0.055555559848502,0.423024177551269,-0.58062744140625,-0.0213802829384804
0,1.10416671324184,-0.33750002258481,0.00833333382532574,0.470060795545578,-1.15514612197876,-0.294742494821549
0,0.987499989543926,-0.381944465601225,-0.0222222230277034,0.697608113288879,-1.46180057525635,-0.132863193750381
0,0.986111194908388,-0.350000000910239,-0.0763888894734557,1.41842913627624,-1.71958565711975,0.176845490932465
0,0.98888888142718,-0.254166679773066,-0.150000007336368,1.43492245674133,0.0757472887635231,0.224187538027763
0,0.791666671619817,-0.226388890731841,-0.0347222241455659,0.260534018278122,0.806953012943268,0.705243945121765
0,0.716666704419527,-0.236111109602691,-0.0194444453391775,0.0161879286170006,1.52930116653442,-0.0427605658769607
0,0.715277812536273,-0.194444450352783,-0.00555555575692586,-0.533896207809448,1.23058807849884,-1.16094934940338
0,0.981944519258625,-0.259722222994153,0.0777777813567098,-1.53479897975922,0.262977480888367,-1.45813536643982
0,0.862500011794203,-0.216666671860991,0.00555555575692586,-1.98073053359985,-1.47982108592987,-2.31976079940796
0,0.930555616825939,-0.306944449777077,-0.0708333340964038,1.33076989650726,0.56657749414444,-2.10626339912415
0,0.876388930626744,-0.15555556271342,-0.0583333375370279,-0.328340083360672,-0.214719131588936,-2.51371049880981
0,0.965277816659576,-0.181944447715425,-0.0750000036681839,-0.16951510310173,-0.087659165263176,-2.48255634307861
0,1.51944451110538,-0.327777779402031,-0.134722233088466,-0.0027488935738802,0.131030589342117,0.24342979490757
0,1.39444453335565,-0.212499996211229,-0.206944452990142,0.0323758572340012,0.193949714303017,0.113010071218014
0,1.1236111996074,-0.20972223675665,-0.0625000010308258,0.0458148941397667,0.0561996027827263,-0.00366519158706069
0,1.04027778385987,-0.205555561106887,-0.055555559848502,0.0696386396884918,0.0565050356090069,-0.138055548071861
0,1.03750000009336,-0.176388892338373,-0.0791666671619817,0.0668897479772568,0.274278491735458,-0.138360977172852
0,0.990277773310434,-0.163888889701015,-0.0611111152255539,0.0956004112958908,0.441960990428925,-0.134084925055504
0,0.923611157409668,-0.138888896582264,-0.00555555575692586,0.0626136884093285,0.424856781959534,-0.245873257517815
0,0.952777789710289,-0.0625000010308258,-0.0194444453391775,-0.0583376325666905,0.569326400756836,-0.424551337957382
0,1.11666674019113,-0.0694444482911319,-0.052777782159976,-0.262977480888367,0.55527651309967,-0.216246291995048
0,1.11388895642462,-0.101388894748172,-0.0638888929140799,-0.270918726921081,0.752586007118225,-0.210137650370598
0,1.0361111082101,-0.144444451959316,0.00972222266958873,-0.171042263507843,0.741284966468811,-0.382096201181412
0,0.92083337364316,-0.13750000469901,0.0888888921108138,-0.098960168659687,0.424245923757553,-0.59650993347168
0,0.929166724942685,-0.14583334384257,0.0916666697993398,-0.102930791676045,0.229990765452385,-0.760832667350769
0,1.04166667574312,-0.0763888894734557,0.0513888902767219,-0.206777885556221,0.0699440687894821,-0.856433093547821
0,1.07777786470773,-0.0541666679652478,0.0416666683668809,0.0381790772080422,0.0742201283574104,-0.355523586273193
0,1.03888889197661,-0.0458333348996699,0.0680555564078778,0.358272463083267,0.029626963660121,-0.186924770474434
0,0.916666697993398,-0.0541666679652478,0.0680555564078778,0.205250725150108,-0.013744467869401,-0.136833816766739
0,1.06805562152495,-0.0361111129898289,-0.0125000003581147,0.0580321997404099,0.22204951941967,0.0558941699564457
0,1.14444448060849,-0.00416666691266287,-0.00833333382532574,-0.0546724386513233,0.264810085296631,0.00885754637420177
0,1.06527783775844,-0.00555555575692586,0.0916666697993398,-0.0186313893646002,-0.180816113948822,-0.0280998013913631
0,1.04166667574312,-0.108333335930496,0.0236111118719664,-0.00488692196086049,-0.481667250394821,-0.283746898174286
0,1.00416669214298,-0.0819444448505077,0.00833333382532574,-0.0329867228865623,-0.113010071218014,-0.186619326472282
0,0.849999984844916,-0.0388888906783549,0.113888891307548,0.103236228227615,-0.156686931848526,-0.175623759627342
0,0.916666697993398,-0.0111111115138517,0.0152777788063885,0.141415297985077,-0.133474051952362,-0.269391566514969
0,0.96666670854283,0.00833333382532574,-0.00694444498106275,0.0384845100343227,0.127670839428902,-0.0384845100343227
0,0.909722238577127,0.00972222266958873,0.0722222259796579,-0.0821613743901253,-0.0598647929728031,-0.0363464802503586
0,0.909722238577127,-0.0111111115138517,0.0819444448505077,0.0891863256692886,-0.304516315460205,-0.0229074470698834
0,1.01666671909226,-0.0819444448505077,-0.0111111115138517,0.0345138870179653,-0.148440256714821,-0.201585531234741
0,1.15138894002476,-0.0902777839940679,-0.0583333375370279,-0.00427605677396059,0.58062744140625,-0.362853944301605
0,1.08194444310977,-0.0416666683668809,-0.033333335301303,-0.0910189226269722,0.855516791343689,-0.518624603748322
0,1.09166668629255,0.0402777795226179,-0.00833333382532574,-0.379958182573318,0.764192402362823,-0.146913096308708
0,1.00000001649321,0.0222222230277034,0.0777777813567098,-0.364991992712021,0.612697839736938,0.251676470041275
0,0.93750007624221,-0.033333335301303,0.140277788465518,-0.118202425539494,0.311846703290939,0.242208063602448
0,0.858333336144441,-0.0638888929140799,0.154166670830166,0.109039448201656,-0.0329867228865623,-0.2379320114851
0,0.904166671044111,0.03194444645704,0.0416666683668809,0.0415388382971287,-0.181426972150803,0.0839939713478088
0,0.693055591028065,-0.00972222266958873,0.03194444645704,-0.00733038317412138,-0.0913243517279625,0.480140089988708
0,0.77638890952788,-0.055555559848502,0.108333335930496,-0.0662788823246956,-0.0891863256692886,0.934318363666534
0,1.23888893417434,-0.029166668768514,0.0986111170596459,-0.0430659987032413,-0.22693644464016,1.36497843265533
0,0.93750007624221,-0.033333335301303,0.029166668768514,0.0769690200686455,-0.0772744566202164,1.3023647069931
0,0.773611125761372,-0.0513888902767219,-0.0222222230277034,-0.191506251692772,0.820086598396301,2.19972586631775
0,0.773611125761372,-0.0513888902767219,-0.0222222230277034,-0.0647517144680023,1.00059723854065,1.15820050239563
0,1.08472222687628,-0.176388892338373,0.14722222356986,-0.193338856101036,0.467006474733353,0.426689386367798
0,1.07500008094122,-0.226388890731841,0.152777778946911,-0.175623759627342,0.102625362575054,-0.0794124826788902
0,1.07500008094122,-0.226388890731841,0.152777778946911,0.0293215326964855,-0.304821759462357,-0.664315938949585
0,1.11111117265811,-0.163888889701015,0.108333335930496,0.128587126731873,-0.196698606014252,-0.489608496427536
0,1.11666674019113,-0.118055554801345,0.0944444474878658,0.236710280179977,-0.058643065392971,-0.137750118970871
0,1.11666674019113,-0.118055554801345,0.0944444474878658,0.107206851243973,-0.000610865245107561,-0.0641408488154411
0,1.05694448645892,-0.0944444474878658,0.0777777813567098,0.0519235469400883,0.0287106670439243,-0.0931569486856461
0,1.0125000434425,-0.13750000469901,0.0972222251763917,0.0436768643558025,0.0839939713478088,-0.109955742955208
0,1.0125000434425,-0.13750000469901,0.0972222251763917,0.0913243517279625,0.205861583352089,-0.0986547395586967
0,1.00972225967599,-0.14583334384257,0.0805555590452358,0.0598647929728031,0.51740288734436,-0.143858760595322
0,1.03888889197661,-0.141666668192807,0.0972222251763917,-0.0348193198442459,0.694248378276825,-0.210137650370598
0,1.06805562152495,-0.131944449321958,0.156944454596674,0.110566608607769,0.450513124465942,-0.12675453722477
0,1.06388894587519,-0.104166672436698,0.197222234119292,0.218078896403313,0.0974330082535744,0.0348193198442459
0,1.08750001064279,-0.104166672436698,0.161111118090472,0.252287358045578,-0.0830776765942574,0.167071640491486
0,1.08750001064279,-0.104166672436698,0.162500009973726,0.401338458061218,-0.58215457201004,0.330172657966614
0,0.965277816659576,-0.0541666679652478,0.202777789496344,0.0616973899304867,-1.20615339279175,0.784656405448914
0,0.940277860008718,-0.0694444482911319,0.131944449321958,0.608727216720581,1.3946053981781,-0.127365410327911
0,1.08750001064279,0.00138888893923146,0.162500009973726,-0.236404851078987,-0.0448985956609249,0.015577063895762
0,0.959722249126559,-0.187500003092477,0.19166667874224,0.0204639863222837,-0.0604756586253643,-0.0467311926186085
0,0.973611167959101,-0.190277786858986,0.176388892338373,0.0277943685650826,-0.0537561401724815,-0.0497855171561241
0,1.03194452980806,-0.138888896582264,0.12916666555545,0.0394008085131645,0.0335975885391235,-0.0244346093386412
0,1.0513889189259,-0.1194444466846,0.113888891307548,-0.00641408516094089,0.130419731140137,0.0442877300083637
0,1.04444445950963,-0.106944444047242,0.1194444466846,0.0219911485910416,0.0824668109416962,-0.0213802829384804
0,1.01666671909226,-0.0583333375370279,0.154166670830166,0.191200822591782,0.0201585534960032,0.540004849433899
0,1.0361111082101,-0.0500000014324589,0.125000002061652,-0.000916297896765172,0.0665843114256859,0.176234617829323
0,0.979166735492117,-0.187500003092477,0.14583334384257,-0.0561996027827263,-0.0736092627048492,0.0620028227567673
0,0.980555627375371,-0.198611113846581,0.177777784221628,-0.0500909499824047,-0.128892570734024,-0.0806342139840126
0,1.07638897282447,-0.243055569018962,0.0986111170596459,-0.371100634336472,0.112093769013882,-0.667064845561981
0,1.02500007039179,-0.180555567988136,0.190277786858986,-0.0781907513737679,-0.029626963660121,-0.469144523143768
0,0.930555616825939,-0.143055560076062,0.170833336961321,0.0167987942695618,-0.375071257352829,-0.276111096143722
0,0.899999995394348,-0.1194444466846,0.156944454596674,0.13225232064724,-0.561079740524292,0.0507018156349659
0,0.983333411141879,-0.0652777787193518,0.13750000469901,0.124616511166096,-0.573297023773193,0.253814518451691
0,1.08194444310977,-0.111111119697004,0.0666666706026059,-0.108123145997524,-0.330478101968765,0.0525344125926495
0,1.08472222687628,-0.144444451959316,0.0750000036681839,-0.0907134860754013,-0.0681114718317986,-0.0800233483314514
0,1.00000001649321,-0.123611110178398,0.111111119697004,0.121867619454861,-0.0913243517279625,0.0580321997404099
0,0.998611124609959,-0.111111119697004,0.111111119697004,0.152105450630188,-0.108123145997524,0.130114302039146
0,1.08333333499303,-0.12777778582816,0.0763888894734557,0.0329867228865623,0.0287106670439243,0.0219911485910416
0,1.10416671324184,-0.150000007336368,0.0625000010308258,-0.0842994004487991,0.178372651338577,-0.104152522981167
0,1.02638896227504,-0.148611115453114,0.055555559848502,0.0345138870179653,0.621249973773956,-0.178067222237587
0,0.952777789710289,-0.0930555616825939,0.134722233088466,0.164322748780251,0.250760197639465,0.114842668175697
0,1.02638896227504,-0.123611110178398,0.125000002061652,0.120645888149738,0.131946891546249,0.125838235020638
0,1.07361118905796,-0.148611115453114,0.10972222781375,0.0534507073462009,0.0448985956609249,-0.113620936870575
0,1.08333333499303,-0.212499996211229,0.0847222225390337,-0.0613919571042061,0.30757063627243,-0.398894995450974
0,0.881944498159761,-0.156944454596674,0.144444451959316,0.0922406539320946,0.00366519158706069,-0.0647517144680023
0,0.872222254976982,-0.118055554801345,0.140277788465518,0.0708603709936142,-0.0977384373545647,0.210137650370598
0,0.98888888142718,-0.0458333348996699,0.12916666555545,0.0103847095742822,-0.17409659922123,0.283136039972305
0,1.0513889189259,-0.0777777813567098,0.125000002061652,-0.0571159012615681,-0.140804439783096,0.208915919065475
0,1.0694445134082,-0.102777780553444,0.111111119697004,0.070249505341053,0.166460782289505,0.195171445608139
0,1.06250005399193,-0.0930555616825939,0.116666675074056,-0.00549778714776039,0.0965167060494423,0.339335650205612
0,1.05555559457566,-0.115277783190802,0.116666675074056,-0.0366519130766392,0.26969701051712,0.0705549344420433
0,1.0305556379248,-0.10972222781375,0.13750000469901,-0.105374254286289,0.0928515195846558,0.0879645943641663
0,0.99583334084345,-0.12916666555545,0.134722233088466,-0.143553331494331,0.0626136884093285,0.165239050984383
0,1.00416669214298,-0.166666673467524,0.106944444047242,-0.202807262539864,0.142637029290199,-0.205861583352089
0,1.00000001649321,-0.144444451959316,0.0680555564078778,-0.000305432622553781,0.127976268529892,-0.173485726118088
0,0.930555616825939,-0.0833333367337618,0.123611110178398,-0.226631000638008,0.0467311926186085,-0.0711658000946045
0,0.94305554652751,-0.105555564319952,0.163888889701015,-0.172569438815117,-0.119424156844616,-0.0131336031481624
0,1.00000001649321,-0.122222230451108,0.125000002061652,-0.19028452038765,-0.0772744566202164,0.0308486949652433
0,1.08888890252604,-0.122222230451108,0.0916666697993398,-0.313679307699203,0.17440202832222,-0.102014496922493
0,1.06111116210868,-0.184722231481934,0.115277783190802,-0.294742494821549,0.193644285202026,-0.0491746515035629
0,1.03750000009336,-0.20972223675665,0.126388893944906,-0.217468023300171,0.246789559721947,-0.112399205565453
0,0.916666697993398,-0.195833342236038,0.236111109602691,0.0106901414692402,-0.257479697465897,0.0510072484612465
0,0.930555616825939,-0.205555561106887,0.195833342236038,0.152105450630188,-0.335059583187103,0.0415388382971287
0,1.02500007039179,-0.190277786858986,0.123611110178398,0.159130394458771,-0.0946841165423393,-0.0302378293126821
0,1.00555558402623,-0.13750000469901,0.12777778582816,0.157297804951668,-0.164933621883392,0.0308486949652433
0,1.07500008094122,-0.156944454596674,0.0875000002275597,-0.0500909499824047,0.125532805919647,-0.0913243517279625
0,1.02500007039179,-0.130555557438704,0.120833338567854,-0.0592539273202419,0.00641408516094089,-0.0558941699564457
0,1.02500007039179,-0.113888891307548,0.113888891307548,-0.239459171891212,-0.0482583530247212,-0.076052725315094
0,1.01805561097552,-0.113888891307548,0.138888896582264,-0.253203630447388,-0.0662788823246956,-0.0149661982432008
0,0.947222222177272,-0.12777778582816,0.159722226207217,-0.00885754637420177,-0.361021369695664,0.242208063602448
0,0.934722292475701,-0.148611115453114,0.150000007336368,0.158214092254639,-0.550084173679352,0.329561799764633
0,0.96666670854283,-0.156944454596674,0.118055554801345,0.18020524084568,-0.62491512298584,0.263893783092499
0,1.02916674604155,-0.156944454596674,0.0750000036681839,0.0949895456433296,-0.492051959037781,0.0357356183230877
0,1.04166667574312,-0.156944454596674,0.0625000010308258,0.0888808965682983,-0.304821759462357,-0.0167987942695618
0,1.03750000009336,-0.144444451959316,0.0638888929140799,0.178372651338577,-0.0849102661013603,-0.00733038317412138
0,1.09583336194232,-0.152777778946911,0.0569444456537738,0.250454753637314,0.223882108926773,0.0161879286170006
0,1.09305557817581,-0.138888896582264,0.055555559848502,0.270918726921081,0.494800835847855,-0.0714712366461754
0,1.17361111290911,-0.13750000469901,0.0111111115138517,0.10598511993885,0.843604922294617,-0.155159771442413
0,1.1083333888916,-0.144444451959316,0.102777780553444,-0.106290549039841,0.770911931991577,-0.492051959037781
0,0.904166671044111,-0.113888891307548,0.184722231481934,-0.0488692186772823,0.141720741987228,-0.01191187184304
0,0.927777833059431,-0.14583334384257,0.162500009973726,-0.03176499158144,-0.0244346093386412,-0.0180205255746841
0,0.963888924776322,-0.133333341205212,0.154166670830166,0.0161879286170006,-0.0922406539320946,-0.00183259579353034
0,1.01944450285877,-0.126388893944906,0.118055554801345,0.0262672062963247,-0.0589484944939613,0.000305432622553781
0,1.02361117850853,-0.111111119697004,0.131944449321958,0.0167987942695618,-0.0134390350431204,0.00122173049021512
0,1.02777785415829,-0.1194444466846,0.105555564319952,0.013744467869401,-0.0167987942695618,0.015577063895762
0,1.0305556379248,-0.123611110178398,0.0986111170596459,-0.0229074470698834,0.0125227374956012,0.017409659922123
0,1.02500007039179,-0.12916666555545,0.108333335930496,-0.0473420582711697,0.0342084541916847,0.00549778714776039
0,1.00555558402623,-0.130555557438704,0.112499999424294,-0.0470366254448891,0.0329867228865623,0.00946841109544039
0,1.00277780025972,-0.136111112815755,0.116666675074056,-0.0332921557128429,-0.00610865233466029,0.0134390350431204
0,1.01388893532575,-0.150000007336368,0.116666675074056,-0.0106901414692402,-0.00916297826915979,0.00977384392172098
0,1.02083339474202,-0.166666673467524,0.125000002061652,0.0287106670439243,-0.00305432616733015,0.0021380283869803
0,1.01111115155925,-0.150000007336368,0.136111112815755,0.0708603709936142,-0.013744467869401,0.00580321997404099
0,1.00277780025972,-0.140277788465518,0.12777778582816,0.0867428630590439,-0.0452040284872055,0.0033597587607801
0,1.0125000434425,-0.130555557438704,0.12777778582816,0.0565050356090069,-0.0598647929728031,0.0235183127224445
0,1.02222228662528,-0.13750000469901,0.120833338567854,0.0351247526705265,-0.0409279726445675,0.0452040284872055
0,1.02361117850853,-0.140277788465518,0.113888891307548,0.00671951752156019,-0.00794124789535999,0.0470366254448891
0,1.01388893532575,-0.144444451959316,0.120833338567854,0.0109955742955208,-0.000916297896765172,0.0345138870179653
5,1.00277780025972,-0.14722222356986,0.131944449321958,0.0143553335219622,-0.0400116741657257,0.0452040284872055
5,1.00972225967599,-0.154166670830166,0.12777778582816,0.0268780700862408,-0.0577267669141293,0.0555887371301651
5,1.02500007039179,-0.14722222356986,0.111111119697004,0.0232128798961639,-0.0561996027827263,0.0555887371301651
5,1.02361117850853,-0.14583334384257,0.123611110178398,0.0204639863222837,-0.0354301854968071,0.0497855171561241
5,1.02083339474202,-0.143055560076062,0.120833338567854,0.015577063895762,-0.0287106670439243,0.0497855171561241
5,1.01111115155925,-0.134722233088466,0.108333335930496,-0.0033597587607801,-0.03176499158144,0.0516181141138077
5,1.00833336779274,-0.134722233088466,0.106944444047242,-0.019547687843442,-0.0394008085131645,0.0497855171561241
5,1.01527782720901,-0.143055560076062,0.112499999424294,-0.0314595587551594,-0.0320704244077206,0.0565050356090069
5,1.01527782720901,-0.143055560076062,0.112499999424294,-0.0250454749912024,-0.029626963660121,0.0650571510195732
5,1.01666671909226,-0.16527778158427,0.118055554801345,-0.00916297826915979,-0.0198531206697226,0.0525344125926495
5,1.00972225967599,-0.170833336961321,0.123611110178398,0.0201585534960032,-0.0409279726445675,0.0555887371301651
5,1.00972225967599,-0.170833336961321,0.123611110178398,0.0473420582711697,-0.0555887371301651,0.0537561401724815
5,1.01111115155925,-0.16527778158427,0.130555557438704,0.0470366254448891,-0.0445931628346443,0.0534507073462009
5,1.01666671909226,-0.16527778158427,0.131944449321958,0.0537561401724815,-0.0198531206697226,0.0436768643558025
5,1.01666671909226,-0.16527778158427,0.131944449321958,0.0956004112958908,-0.017409659922123,0.021685715764761
5,1.01527782720901,-0.152777778946911,0.133333341205212,0.0965167060494423,-0.0345138870179653,0.00305432616733015
5,1.01944450285877,-0.118055554801345,0.12777778582816,0.0620028227567673,-0.0546724386513233,0.00794124789535999
5,1.01944450285877,-0.118055554801345,0.12777778582816,0.0033597587607801,-0.0128281703218818,0.0164933614432812
5,1.0305556379248,-0.122222230451108,0.111111119697004,-0.0372627787292004,0.0390953756868839,-0.00794124789535999
5,1.02500007039179,-0.12916666555545,0.116666675074056,-0.0595593601465225,0.0403171069920063,-0.0189368221908808
5,1.00694447590948,-0.136111112815755,0.140277788465518,-0.0638354197144508,0.00763581553474069,-0.011606439948082
5,0.993055557076942,-0.13750000469901,0.138888896582264,-0.0537561401724815,-0.0678060427308083,0.00733038317412138
5,1.00138890837647,-0.131944449321958,0.140277788465518,-0.0540615729987621,-0.0870482996106148,0.0229074470698834
5,1.01527782720901,-0.1194444466846,0.136111112815755,-0.0754418596625328,-0.0742201283574104,0.0400116741657257
5,1.02361117850853,-0.112499999424294,0.125000002061652,-0.12675453722477,-0.019547687843442,0.0671951770782471
5,0.962500032893068,-0.0916666697993398,0.186111123365188,0.098960168659687,-0.220827788114548,0.426078498363495
5,0.866666687443965,-0.184722231481934,0.120833338567854,0.191506251692772,-0.449291378259659,0.509156167507172
5,1.07361118905796,-0.2194444556275,0.0652777787193518,-0.18539759516716,-0.293215304613113,-0.0681114718317986
5,1.20972230187372,-0.163888889701015,0.029166668768514,-0.011606439948082,0.237015709280968,-0.0565050356090069
5,1.06111116210868,-0.150000007336368,0.0722222259796579,-0.141109868884087,0.120340451598167,-0.0836885422468185
5,1.02361117850853,-0.161111118090472,0.0847222225390337,-0.132557764649391,0.108428582549095,-0.0873537287116051
5,1.00555558402623,-0.176388892338373,0.0875000002275597,-0.142942473292351,0.10048733651638,-0.098960168659687
5,0.994444448960196,-0.179166676104882,0.0930555616825939,-0.123089343309402,0.0436768643558025,-0.0864374339580536
5,0.973611167959101,-0.161111118090472,0.113888891307548,-0.0867428630590439,-0.0140499006956816,-0.0299323964864016
5,0.976388951725609,-0.166666673467524,0.118055554801345,-0.0500909499824047,-0.0613919571042061,0.0403171069920063
5,0.98888888142718,-0.176388892338373,0.116666675074056,-0.0842994004487991,-0.0742201283574104,-0.0164933614432812
5,1.05972227022542,-0.17361112072783,0.0916666697993398,-0.131030589342117,0.0143553335219622,-0.0409279726445675
5,1.04166667574312,-0.17361112072783,0.0847222225390337,-0.147829383611679,0.058643065392971,0.00122173049021512
5,1.01527782720901,-0.169444445078067,0.0916666697993398,-0.182954147458077,0.0320704244077206,0.000916297896765172
5,0.994444448960196,-0.197222234119292,0.112499999424294,-0.113315500319004,-0.015577063895762,0.0122173046693206
5,0.993055557076942,-0.212499996211229,0.1194444466846,-0.0305432621389627,-0.0778853222727776,-0.05283984541893
5,0.99583334084345,-0.238888893369199,0.104166672436698,0.0345138870179653,-0.109344877302647,-0.0467311926186085
5,0.981944519258625,-0.247222220356795,0.0875000002275597,0.0720821022987366,-0.10567969083786,-0.0387899428606033
5,1.05555559457566,-0.233333350148112,0.0625000010308258,-0.0357356183230877,0.0641408488154411,-0.109344877302647
5,1.06666672964169,-0.187500003092477,0.0666666706026059,0.00641408516094089,0.0491746515035629,-0.0384845100343227
5,0.998611124609959,-0.179166676104882,0.102777780553444,0.0384845100343227,-0.0901026204228401,-0.0259617734700441
5,0.983333411141879,-0.188888894975731,0.0875000002275597,0.0403171069920063,-0.0696386396884918,0.00641408516094089
5,1.01805561097552,-0.205555561106887,0.0750000036681839,0.0131336031481624,-0.0045814891345799,-0.00244346098043024
5,1.0361111082101,-0.197222234119292,0.0722222259796579,0.00549778714776039,0.0549778714776039,0.0033597587607801
5,1.02083339474202,-0.172222228844576,0.0833333367337618,0.0390953756868839,0.0207694191485643,0.0192422550171614
5,0.997222232726705,-0.152777778946911,0.0916666697993398,0.0128281703218818,-0.0128281703218818,0.0265726372599602
5,0.998611124609959,-0.136111112815755,0.0777777813567098,-0.0320704244077206,-0.0183259565383196,0.0378736443817616
5,1.0125000434425,-0.13750000469901,0.0763888894734557,-0.0708603709936142,-0.00488692196086049,0.0394008085131645
5,1.03194452980806,-0.141666668192807,0.0972222251763917,-0.0736092627048492,0.0467311926186085,-0.0027488935738802
5,1.03194452980806,-0.14583334384257,0.101388894748172,-0.0424551330506802,0.157603234052658,-0.11636982858181
5,1.02638896227504,-0.138888896582264,0.112499999424294,0.0152716310694814,0.122173048555851,-0.249843880534172
5,1.01527782720901,-0.125000002061652,0.106944444047242,-0.0351247526705265,0.0861319974064827,-0.157297804951668
5,1.02777785415829,-0.122222230451108,0.0944444474878658,-0.135306656360626,0.0794124826788902,-0.0568104684352875
5,1.01388893532575,-0.102777780553444,0.100000002864918,-0.0772744566202164,0.0910189226269722,0.0308486949652433
5,0.99583334084345,-0.120833338567854,0.0958333393711199,-0.102625362575054,0.0381790772080422,0.0949895456433296
5,1.03750000009336,-0.156944454596674,0.0819444448505077,-0.196393176913261,0.139888137578964,0.0436768643558025
5,1.03888889197661,-0.141666668192807,0.101388894748172,-0.0949895456433296,0.178067222237587,0.0265726372599602
5,1.0125000434425,-0.136111112815755,0.0986111170596459,-0.104457959532738,0.16920967400074,0.0247400421649218
5,1.00000001649321,-0.130555557438704,0.10972222781375,-0.0971275717020035,0.156686931848526,-0.00427605677396059
5,0.990277773310434,-0.13750000469901,0.12777778582816,-0.0858265683054924,0.0665843114256859,0.0366519130766392
5,1.00972225967599,-0.138888896582264,0.108333335930496,-0.109955742955208,0.0345138870179653,0.0268780700862408
5,1.03472221632685,-0.138888896582264,0.108333335930496,-0.0809396430850029,0.064446285367012,0.0290160998702049
5,1.03750000009336,-0.138888896582264,0.101388894748172,-0.0800233483314514,0.124311074614525,-0.00244346098043024
5,1.02638896227504,-0.144444451959316,0.108333335930496,-0.087659165263176,0.141109868884087,-0.0320704244077206
5,1.0125000434425,-0.141666668192807,0.111111119697004,-0.124311074614525,0.148745685815811,-0.0491746515035629
5,1.00416669214298,-0.144444451959316,0.123611110178398,-0.0980438739061356,0.124616511166096,-0.0400116741657257
5,1.01527782720901,-0.154166670830166,0.130555557438704,-0.0842994004487991,0.102014496922493,-0.0549778714776039
5,1.01388893532575,-0.151388899219622,0.134722233088466,-0.0568104684352875,0.0937678143382072,-0.0616973899304867
5,1.00833336779274,-0.151388899219622,0.12916666555545,-0.0491746515035629,0.0540615729987621,-0.0461203269660473
5,1.00277780025972,-0.140277788465518,0.130555557438704,-0.05283984541893,0.0354301854968071,-0.0180205255746841
5,1.00555558402623,-0.131944449321958,0.130555557438704,-0.0626136884093285,0.00855211354792118,0.00549778714776039
5,1.01805561097552,-0.134722233088466,0.1194444466846,-0.0977384373545647,0.01191187184304,-0.00824668072164059
5,1.02083339474202,-0.138888896582264,0.10972222781375,-0.118813291192055,0.0424551330506802,-0.0348193198442459
5,1.01944450285877,-0.148611115453114,0.118055554801345,-0.139277279376984,0.0589484944939613,-0.0455094613134861
5,1.0125000434425,-0.163888889701015,0.12777778582816,-0.121256753802299,0.0519235469400883,-0.0189368221908808
5,1.00972225967599,-0.163888889701015,0.130555557438704,-0.102625362575054,0.0406225398182869,0.0122173046693206
5,1.01944450285877,-0.163888889701015,0.125000002061652,-0.0800233483314514,0.0369573459029198,0.00152716308366507
5,1.01944450285877,-0.163888889701015,0.125000002061652,-0.0650571510195732,0.0192422550171614,-0.00152716308366507
5,1.00277780025972,-0.163888889701015,0.133333341205212,-0.0549778714776039,0.00946841109544039,-0.00366519158706069
5,1.00277780025972,-0.162500009973726,0.150000007336368,-0.0470366254448891,0.00671951752156019,0.0113010071218014
5,1.00277780025972,-0.162500009973726,0.150000007336368,-0.0320704244077206,0.0033597587607801,0.0167987942695618
5,1.01388893532575,-0.158333334323963,0.12777778582816,-0.0131336031481624,-0.00549778714776039,0.0384845100343227
5,1.0125000434425,-0.150000007336368,0.116666675074056,-0.0164933614432812,-0.00671951752156019,0.0287106670439243
5,1.0125000434425,-0.150000007336368,0.116666675074056,-0.029626963660121,-0.000305432622553781,0.0265726372599602
5,1.0125000434425,-0.15555556271342,0.125000002061652,-0.0339030213654041,0.00305432616733015,0.0259617734700441
5,1.01666671909226,-0.154166670830166,0.131944449321958,-0.0354301854968071,0.00549778714776039,0.0219911485910416
5,1.01666671909226,-0.154166670830166,0.131944449321958,-0.0323758572340012,0.0125227374956012,0.0134390350431204
5,1.0125000434425,-0.161111118090472,0.122222230451108,-0.015577063895762,0.0100792767480016,0.00916297826915979
5,1.00694447590948,-0.161111118090472,0.12916666555545,-0.00580321997404099,-0.00427605677396059,-0.01191187184304
5,1.00694447590948,-0.161111118090472,0.12916666555545,0.00549778714776039,-0.00977384392172098,-0.0131336031481624
5,1.01527782720901,-0.156944454596674,0.126388893944906,0.0198531206697226,-0.00519235478714108,0.0027488935738802
5,1.01527782720901,-0.151388899219622,0.125000002061652,0.013744467869401,-0.0045814891345799,-0.0045814891345799
5,1.00972225967599,-0.156944454596674,0.130555557438704,0.0207694191485643,-0.0113010071218014,0.00641408516094089
5,1.00694447590948,-0.162500009973726,0.130555557438704,0.0244346093386412,-0.0113010071218014,0.00427605677396059
5,1.0125000434425,-0.158333334323963,0.118055554801345,0.0189368221908808,-0.0045814891345799,0.000610865245107561
5,1.01388893532575,-0.156944454596674,0.1194444466846,0.0146607663482428,-0.0033597587607801,0.013744467869401
5,1.00972225967599,-0.154166670830166,0.118055554801345,0.00580321997404099,-0.0109955742955208,0.0232128798961639
5,1.01111115155925,-0.154166670830166,0.125000002061652,0.00733038317412138,-0.0177150927484035,0.0357356183230877
5,1.00972225967599,-0.156944454596674,0.130555557438704,0.00885754637420177,-0.0232128798961639,0.0525344125926495
5,1.0125000434425,-0.156944454596674,0.125000002061652,0.00610865233466029,-0.0244346093386412,0.0513126812875271
5,1.01527782720901,-0.161111118090472,0.12777778582816,0.0167987942695618,-0.0262672062963247,0.0638354197144508
5,1.01666671909226,-0.158333334323963,0.1194444466846,0.0326812900602817,-0.0409279726445675,0.0687223374843597
5,1.00277780025972,-0.154166670830166,0.12916666555545,0.0280998013913631,-0.0549778714776039,0.0839939713478088
5,1.00555558402623,-0.15555556271342,0.13750000469901,0.019547687843442,-0.0522289797663689,0.0714712366461754
5,1.01111115155925,-0.151388899219622,0.130555557438704,0.00641408516094089,-0.0406225398182869,0.0754418596625328
5,1.01388893532575,-0.152777778946911,0.120833338567854,-0.00946841109544039,-0.0250454749912024,0.070249505341053
5,1.0125000434425,-0.154166670830166,0.126388893944906,-0.0149661982432008,-0.0299323964864016,0.0607810914516449
5,1.01111115155925,-0.16527778158427,0.1194444466846,-0.013744467869401,-0.0339030213654041,0.0381790772080422
5,1.01388893532575,-0.170833336961321,0.115277783190802,-0.0161879286170006,-0.0125227374956012,0.0290160998702049
5,1.01666671909226,-0.168055565350778,0.120833338567854,-0.00977384392172098,-0.0033597587607801,0.0250454749912024
5,1.01527782720901,-0.168055565350778,0.122222230451108,-0.0100792767480016,-0.00366519158706069,0.0262672062963247
5,1.01388893532575,-0.17361112072783,0.130555557438704,-0.000305432622553781,-0.00763581553474069,0.0134390350431204
5,1.01111115155925,-0.170833336961321,0.122222230451108,0.00946841109544039,-0.00916297826915979,0.00824668072164059
5,1.01388893532575,-0.17361112072783,0.125000002061652,0.015577063895762,-0.0100792767480016,0.0027488935738802
5,1.01666671909226,-0.177777784221628,0.122222230451108,0.029626963660121,-0.0045814891345799,-0.00702495034784079
5,1.01388893532575,-0.170833336961321,0.118055554801345,0.0277943685650826,-0.00305432616733015,-0.0122173046693206
5,1.01527782720901,-0.17361112072783,0.1194444466846,0.0125227374956012,-0.0033597587607801,-0.0198531206697226
5,1.01666671909226,-0.166666673467524,0.116666675074056,-0.000916297896765172,-0.0149661982432008,-0.0299323964864016
5,1.01388893532575,-0.163888889701015,0.118055554801345,-0.000916297896765172,-0.0351247526705265,-0.0177150927484035
5,1.01111115155925,-0.158333334323963,0.111111119697004,0.00488692196086049,-0.0244346093386412,-0.00885754637420177
5,1.01388893532575,-0.162500009973726,0.118055554801345,0.0021380283869803,-0.0259617734700441,0.00305432616733015
5,1.01111115155925,-0.161111118090472,0.113888891307548,0.0109955742955208,-0.0287106670439243,0.0161879286170006
5,1.0125000434425,-0.170833336961321,0.113888891307548,0.0167987942695618,-0.0403171069920063,0.011606439948082
5,1.01388893532575,-0.169444445078067,0.104166672436698,0.00488692196086049,-0.0311541277915239,0.0100792767480016
5,1.01805561097552,-0.175000000455119,0.106944444047242,0.011606439948082,-0.0268780700862408,0.00946841109544039
5,1.01388893532575,-0.179166676104882,0.104166672436698,0.0455094613134861,-0.0320704244077206,0.0103847095742822
5,1.01944450285877,-0.176388892338373,0.113888891307548,0.0616973899304867,-0.0140499006956816,0.0140499006956816
5,1.02222228662528,-0.170833336961321,0.120833338567854,0.0684169083833694,-0.00152716308366507,0.0253509078174829
5,1.01388893532575,-0.170833336961321,0.12777778582816,0.0592539273202419,-0.0167987942695618,-0.000916297896765172
5,1.00694447590948,-0.169444445078067,0.12777778582816,0.0577267669141293,-0.0623082555830479,-0.0045814891345799
5,1.00972225967599,-0.163888889701015,0.118055554801345,0.0577267669141293,-0.0592539273202419,0.0183259565383196
5,1.02500007039179,-0.166666673467524,0.111111119697004,0.0503963828086853,-0.0470366254448891,0.0339030213654041
5,1.01944450285877,-0.161111118090472,0.100000002864918,0.027488935738802,-0.0259617734700441,0.0415388382971287
5,1.01666671909226,-0.175000000455119,0.10972222781375,0.00916297826915979,-0.0192422550171614,0.0262672062963247
5,1.01805561097552,-0.181944447715425,0.112499999424294,0.00885754637420177,-0.013744467869401,0.0164933614432812
5,1.01388893532575,-0.181944447715425,0.105555564319952,0.0140499006956816,-0.0164933614432812,0.00733038317412138
5,1.0125000434425,-0.181944447715425,0.118055554801345,0.0213802829384804,-0.0262672062963247,0.00427605677396059
5,1.01527782720901,-0.181944447715425,0.120833338567854,0.0302378293126821,-0.0390953756868839,0.00824668072164059
5,1.00972225967599,-0.177777784221628,0.106944444047242,0.0167987942695618,-0.0280998013913631,0.00427605677396059
5,1.01666671909226,-0.181944447715425,0.10972222781375,0.0345138870179653,-0.0171042270958424,0.011606439948082
5,1.01527782720901,-0.19166667874224,0.112499999424294,0.0513126812875271,-0.0177150927484035,0.0167987942695618
5,1.00972225967599,-0.188888894975731,0.116666675074056,0.0525344125926495,-0.0186313893646002,0.01191187184304
5,1.00833336779274,-0.186111123365188,0.118055554801345,0.0445931628346443,-0.0222965814173222,0.0171042270958424
5,1.00694447590948,-0.180555567988136,0.104166672436698,0.0415388382971287,-0.0314595587551594,0.0232128798961639
5,1.0125000434425,-0.176388892338373,0.108333335930496,0.0442877300083637,-0.0287106670439243,0.0167987942695618
5,1.0125000434425,-0.176388892338373,0.111111119697004,0.0366519130766392,-0.0268780700862408,0.0164933614432812
5,1.01527782720901,-0.179166676104882,0.118055554801345,0.0354301854968071,-0.0244346093386412,0.00916297826915979
5,1.01111115155925,-0.175000000455119,0.113888891307548,0.0299323964864016,-0.029626963660121,0.00916297826915979
5,1.01388893532575,-0.166666673467524,0.112499999424294,0.01191187184304,-0.0387899428606033,0.0100792767480016
5,1.01944450285877,-0.162500009973726,0.112499999424294,0.000916297896765172,-0.0241291765123606,0.00671951752156019
5,1.01388893532575,-0.168055565350778,0.104166672436698,-0.00305432616733015,-0.0189368221908808,0.00702495034784079
5,1.01527782720901,-0.163888889701015,0.108333335930496,-0.0100792767480016,0.000305432622553781,0.0103847095742822
5,1.01666671909226,-0.162500009973726,0.112499999424294,-0.0140499006956816,-0.00549778714776039,0.00702495034784079
5,1.01527782720901,-0.170833336961321,0.101388894748172,-0.00580321997404099,-0.0143553335219622,0.00794124789535999
5,1.0125000434425,-0.176388892338373,0.105555564319952,-0.00977384392172098,-0.019547687843442,0.00794124789535999
5,1.01527782720901,-0.175000000455119,0.0986111170596459,-0.00946841109544039,-0.0143553335219622,0.00794124789535999
5,1.0125000434425,-0.176388892338373,0.115277783190802,-0.0033597587607801,-0.0122173046693206,0.00244346098043024
5,1.00694447590948,-0.176388892338373,0.111111119697004,-0.0033597587607801,-0.0207694191485643,-0.00397062394768
5,1.01111115155925,-0.17361112072783,0.10972222781375,0.000916297896765172,-0.0241291765123606,0.000610865245107561
5,1.0125000434425,-0.176388892338373,0.106944444047242,-0.000916297896765172,-0.0222965814173222,0.00794124789535999
5,1.01944450285877,-0.177777784221628,0.104166672436698,0.000610865245107561,-0.0103847095742822,-0.000305432622553781
5,1.00694447590948,-0.181944447715425,0.101388894748172,0.000305432622553781,-0.011606439948082,-0.00733038317412138
5,1.00694447590948,-0.176388892338373,0.101388894748172,-0.00152716308366507,-0.0253509078174829,-0.00397062394768
5,1.00833336779274,-0.17361112072783,0.102777780553444,-0.0021380283869803,-0.0201585534960032,0.00122173049021512
5,1.01527782720901,-0.176388892338373,0.0986111170596459,-0.0100792767480016,-0.0229074470698834,-0.00519235478714108
5,1.01527782720901,-0.177777784221628,0.101388894748172,-0.00977384392172098,-0.0171042270958424,-0.0045814891345799
5,1.01944450285877,-0.17361112072783,0.0944444474878658,-0.0109955742955208,-0.00702495034784079,-0.0201585534960032
5,1.01666671909226,-0.177777784221628,0.0972222251763917,-0.0140499006956816,-0.0183259565383196,-0.0207694191485643
5,1.01527782720901,-0.17361112072783,0.0972222251763917,-0.0277943685650826,-0.011606439948082,-0.0311541277915239
5,1.0125000434425,-0.177777784221628,0.0944444474878658,-0.0186313893646002,-0.00580321997404099,-0.0284052342176437
5,1.01388893532575,-0.180555567988136,0.0944444474878658,-0.00733038317412138,0.00794124789535999,-0.0302378293126821
5,1.01805561097552,-0.181944447715425,0.0930555616825939,0.00519235478714108,0.0262672062963247,-0.0265726372599602
5,1.01944450285877,-0.18333333959868,0.102777780553444,0.0186313893646002,0.00916297826915979,-0.0287106670439243
5,1.00833336779274,-0.180555567988136,0.104166672436698,0.0161879286170006,-0.000916297896765172,-0.0311541277915239
5,1.0125000434425,-0.176388892338373,0.115277783190802,0.0171042270958424,-0.015577063895762,-0.0232128798961639
5,1.01527782720901,-0.17361112072783,0.104166672436698,0.0271835029125214,-0.0109955742955208,-0.0109955742955208
5,1.00972225967599,-0.172222228844576,0.102777780553444,0.0345138870179653,-0.019547687843442,-0.00855211354792118
5,1.01111115155925,-0.169444445078067,0.105555564319952,0.0314595587551594,-0.00916297826915979,0.00610865233466029
5,1.01527782720901,-0.166666673467524,0.104166672436698,0.0183259565383196,-0.00519235478714108,0.00885754637420177
5,1.00833336779274,-0.168055565350778,0.106944444047242,0.0033597587607801,0.00427605677396059,-0.00641408516094089
5,1.0125000434425,-0.17361112072783,0.104166672436698,0.00183259579353034,-0.00580321997404099,-0.0021380283869803
5,1.01527782720901,-0.175000000455119,0.0916666697993398,0.00641408516094089,0.00702495034784079,-0.00733038317412138
5,1.01527782720901,-0.175000000455119,0.0916666697993398,-0.00152716308366507,0.0247400421649218,-0.00855211354792118
5,1.01527782720901,-0.172222228844576,0.0944444474878658,-0.00305432616733015,0.0229074470698834,-0.00671951752156019
5,1.01527782720901,-0.17361112072783,0.102777780553444,-0.00519235478714108,0.02382374368608,-0.00549778714776039
5,1.01527782720901,-0.17361112072783,0.102777780553444,0.00977384392172098,0.0348193198442459,0.00519235478714108
5,1.01666671909226,-0.170833336961321,0.115277783190802,0.017409659922123,0.0406225398182869,-0.000610865245107561
5,1.01388893532575,-0.166666673467524,0.112499999424294,0.01588249579072,0.0293215326964855,0.0134390350431204
5,1.01388893532575,-0.166666673467524,0.112499999424294,0.0207694191485643,0.0204639863222837,0.0250454749912024
5,1.01527782720901,-0.161111118090472,0.108333335930496,0.00977384392172098,0.0311541277915239,0.0232128798961639
5,1.0125000434425,-0.156944454596674,0.106944444047242,-0.01191187184304,0.04764748737216,0.027488935738802
5,1.0125000434425,-0.156944454596674,0.106944444047242,-0.0229074470698834,0.0558941699564457,0.0226020142436027
5,1.0125000434425,-0.158333334323963,0.0972222251763917,-0.0247400421649218,0.0610865242779255,0.0293215326964855
5,1.01666671909226,-0.163888889701015,0.106944444047242,-0.0201585534960032,0.0519235469400883,0.029626963660121
5,1.01666671909226,-0.163888889701015,0.106944444047242,-0.0241291765123606,0.0653625801205635,0.0369573459029198
5,1.0125000434425,-0.170833336961321,0.105555564319952,-0.0161879286170006,0.0397062413394451,0.0299323964864016
5,1.00694447590948,-0.17361112072783,0.116666675074056,-0.0033597587607801,0.0271835029125214,0.0335975885391235
5,1.00416669214298,-0.172222228844576,0.104166672436698,0.00549778714776039,0.0256563406437635,0.0345138870179653
5,1.0125000434425,-0.177777784221628,0.111111119697004,0.00855211354792118,0.0219911485910416,0.019547687843442
5,1.01944450285877,-0.179166676104882,0.105555564319952,-0.0027488935738802,0.0299323964864016,0.011606439948082
5,1.0125000434425,-0.179166676104882,0.104166672436698,-0.000916297896765172,0.0320704244077206,0.0033597587607801
5,1.00555558402623,-0.176388892338373,0.111111119697004,0.00305432616733015,0.0210748501121998,0.00733038317412138
5,1.01111115155925,-0.181944447715425,0.1194444466846,0.0021380283869803,0.0192422550171614,0.0021380283869803
5,1.0125000434425,-0.176388892338373,0.112499999424294,0.00916297826915979,0.0192422550171614,0.0103847095742822
5,1.00972225967599,-0.187500003092477,0.113888891307548,0.0171042270958424,0.021685715764761,-0.00366519158706069
5,1.01111115155925,-0.181944447715425,0.106944444047242,0.013744467869401,0.0128281703218818,-0.015577063895762
5,1.0125000434425,-0.180555567988136,0.120833338567854,0.0167987942695618,0.0131336031481624,-0.0146607663482428
5,1.0125000434425,-0.177777784221628,0.125000002061652,0.0177150927484035,0.02382374368608,-0.00580321997404099
5,1.01527782720901,-0.180555567988136,0.111111119697004,0.0167987942695618,0.01588249579072,0.0100792767480016
5,1.01527782720901,-0.177777784221628,0.112499999424294,0.0290160998702049,0.00702495034784079,0.00244346098043024
5,1.0125000434425,-0.181944447715425,0.115277783190802,0.027488935738802,0.011606439948082,0.0177150927484035
5,1.01527782720901,-0.186111123365188,0.101388894748172,0.0247400421649218,0.00763581553474069,0.0027488935738802
5,1.0125000434425,-0.187500003092477,0.111111119697004,0.0131336031481624,0.0140499006956816,0.0140499006956816
5,1.0125000434425,-0.186111123365188,0.120833338567854,0.01588249579072,0.00885754637420177,-0.000305432622553781
5,1.00972225967599,-0.18333333959868,0.111111119697004,0.00702495034784079,0.00580321997404099,-0.000610865245107561
5,1.01527782720901,-0.17361112072783,0.108333335930496,0.00122173049021512,0.0106901414692402,0.00855211354792118
5,1.01388893532575,-0.169444445078067,0.104166672436698,-0.0100792767480016,0.013744467869401,0.00610865233466029
5,1.0125000434425,-0.18333333959868,0.111111119697004,-0.0222965814173222,0.0125227374956012,-0.0021380283869803
5,1.00833336779274,-0.179166676104882,0.113888891307548,-0.00794124789535999,0.0134390350431204,-0.00946841109544039
5,1.01527782720901,-0.186111123365188,0.118055554801345,-0.00916297826915979,0.00855211354792118,-0.00885754637420177
5,1.01666671909226,-0.177777784221628,0.120833338567854,-0.00397062394768,0.00885754637420177,0.00946841109544039
5,1.01805561097552,-0.179166676104882,0.1194444466846,0.0027488935738802,0.0232128798961639,0.00885754637420177
5,1.0125000434425,-0.187500003092477,0.113888891307548,0.00183259579353034,0.0213802829384804,-0.00397062394768
5,1.01111115155925,-0.179166676104882,0.1194444466846,0.00885754637420177,0.00977384392172098,-0.0109955742955208
5,1.01111115155925,-0.177777784221628,0.108333335930496,0.00488692196086049,0.00519235478714108,-0.0226020142436027
5,1.0125000434425,-0.181944447715425,0.116666675074056,0.000916297896765172,0.0122173046693206,-0.0219911485910416
5,1.01527782720901,-0.181944447715425,0.112499999424294,0.00427605677396059,0.015577063895762,-0.0106901414692402
5,1.0125000434425,-0.180555567988136,0.126388893944906,0.0134390350431204,0.00763581553474069,-0.0113010071218014
5,1.00694447590948,-0.180555567988136,0.1194444466846,0.0186313893646002,-0.00641408516094089,-0.00885754637420177
5,1.00694447590948,-0.176388892338373,0.115277783190802,0.0183259565383196,-0.0186313893646002,-0.00946841109544039
5,1.00972225967599,-0.17361112072783,0.112499999424294,0.00824668072164059,-0.0109955742955208,-0.0021380283869803
5,1.00833336779274,-0.17361112072783,0.1194444466846,0.00519235478714108,0.00671951752156019,0.0027488935738802
5,1.0125000434425,-0.184722231481934,0.1194444466846,0.0100792767480016,0.0134390350431204,0.00305432616733015
5,1.01111115155925,-0.187500003092477,0.126388893944906,0.0152716310694814,0.00366519158706069,0.000916297896765172
5,1.00972225967599,-0.186111123365188,0.130555557438704,0.0253509078174829,-0.00855211354792118,-0.0021380283869803
5,1.00833336779274,-0.181944447715425,0.122222230451108,0.0241291765123606,-0.00794124789535999,0.000305432622553781
5,1.0125000434425,-0.176388892338373,0.118055554801345,0.0241291765123606,0.00427605677396059,0.00824668072164059
5,1.00972225967599,-0.18333333959868,0.125000002061652,0.0244346093386412,0.0125227374956012,0.00366519158706069
5,1.00694447590948,-0.180555567988136,0.120833338567854,0.03176499158144,0.011606439948082,-0.00305432616733015
5,1.0125000434425,-0.176388892338373,0.120833338567854,0.0284052342176437,0.00885754637420177,-0.0167987942695618
5,1.00555558402623,-0.169444445078067,0.126388893944906,0.0323758572340012,0.00397062394768,-0.019547687843442
5,1.00416669214298,-0.170833336961321,0.112499999424294,0.0345138870179653,0.00519235478714108,-0.00885754637420177
5,1.01111115155925,-0.172222228844576,0.108333335930496,0.0213802829384804,0.013744467869401,-0.00824668072164059
5,1.0125000434425,-0.170833336961321,0.120833338567854,0.0140499006956816,0.00641408516094089,-0.0021380283869803
5,1.00694447590948,-0.17361112072783,0.130555557438704,0.0183259565383196,-0.00488692196086049,-0.00977384392172098
5,1.00972225967599,-0.170833336961321,0.1194444466846,0.0167987942695618,-0.00305432616733015,-0.00397062394768
5,1.01111115155925,-0.180555567988136,0.125000002061652,0.0128281703218818,0.00152716308366507,-0.00641408516094089
5,1.00972225967599,-0.180555567988136,0.126388893944906,0.0186313893646002,0.00885754637420177,-0.00794124789535999
5,1.01111115155925,-0.17361112072783,0.120833338567854,0.0134390350431204,0.00641408516094089,-0.0149661982432008
5,1.0125000434425,-0.17361112072783,0.122222230451108,0.0113010071218014,0.00824668072164059,-0.00977384392172098
5,1.01388893532575,-0.166666673467524,0.113888891307548,0.00794124789535999,-0.000305432622553781,-0.00763581553474069
5,1.0125000434425,-0.170833336961321,0.118055554801345,0.00549778714776039,-0.000916297896765172,-0.00855211354792118
5,1.00972225967599,-0.172222228844576,0.123611110178398,0.00549778714776039,0.00152716308366507,0.00671951752156019
5,1.01111115155925,-0.17361112072783,0.115277783190802,-0.0045814891345799,-0.00488692196086049,0.0021380283869803
5,1.00972225967599,-0.177777784221628,0.125000002061652,-0.0033597587607801,-0.00244346098043024,-0.00152716308366507
5,1.0125000434425,-0.168055565350778,0.123611110178398,0.00641408516094089,-0.013744467869401,-0.0045814891345799
5,1.01111115155925,-0.170833336961321,0.126388893944906,0.000916297896765172,-0.0021380283869803,-0.0021380283869803
5,1.01666671909226,-0.175000000455119,0.1194444466846,0.00152716308366507,0.0128281703218818,-0.0171042270958424
5,1.01666671909226,-0.175000000455119,0.125000002061652,-0.00885754637420177,0.0146607663482428,-0.0204639863222837
5,1.01666671909226,-0.175000000455119,0.125000002061652,-0.00549778714776039,0.00916297826915979,-0.019547687843442
5,1.00972225967599,-0.17361112072783,0.118055554801345,-0.00183259579353034,0.00488692196086049,-0.0167987942695618
5,1.00972225967599,-0.17361112072783,0.113888891307548,-0.0109955742955208,0.00519235478714108,-0.00946841109544039
5,1.00972225967599,-0.17361112072783,0.113888891307548,-0.00824668072164059,0.0100792767480016,-0.0021380283869803
5,1.01527782720901,-0.180555567988136,0.126388893944906,-0.01588249579072,0.0131336031481624,-0.011606439948082
5,1.01527782720901,-0.179166676104882,0.12777778582816,-0.00702495034784079,0.00916297826915979,-0.0256563406437635
5,1.01666671909226,-0.177777784221628,0.130555557438704,0.00152716308366507,0.0122173046693206,-0.0293215326964855
5,1.0125000434425,-0.163888889701015,0.125000002061652,0.011606439948082,0.0235183127224445,-0.0406225398182869
5,1.01388893532575,-0.159722226207217,0.126388893944906,0.0125227374956012,0.0100792767480016,-0.0412334054708481
5,1.00694447590948,-0.148611115453114,0.123611110178398,0.00519235478714108,0.00305432616733015,-0.0394008085131645
5,1.00694447590948,-0.152777778946911,0.123611110178398,-0.00305432616733015,-0.0021380283869803,-0.0342084541916847
5,1.01111115155925,-0.148611115453114,0.123611110178398,-0.0171042270958424,0.00519235478714108,-0.0241291765123606
5,1.01527782720901,-0.154166670830166,0.118055554801345,-0.00916297826915979,0.0125227374956012,-0.00733038317412138
5,1.0125000434425,-0.156944454596674,0.120833338567854,-0.01588249579072,0.0131336031481624,0.000610865245107561
5,1.00972225967599,-0.166666673467524,0.120833338567854,0.0021380283869803,0.0027488935738802,0.00397062394768
5,1.0125000434425,-0.168055565350778,0.123611110178398,0.0164933614432812,-0.0033597587607801,0.00427605677396059
5,1.01527782720901,-0.17361112072783,0.122222230451108,0.0198531206697226,-0.00366519158706069,0.00122173049021512
5,1.0125000434425,-0.176388892338373,0.126388893944906,0.0189368221908808,0.00305432616733015,-0.0033597587607801
5,1.01388893532575,-0.17361112072783,0.122222230451108,0.0210748501121998,0.00366519158706069,-0.00794124789535999
5,1.0125000434425,-0.172222228844576,0.123611110178398,0.0222965814173222,0.00244346098043024,-0.00641408516094089
5,1.00833336779274,-0.16527778158427,0.125000002061652,0.0186313893646002,-0.00549778714776039,-0.00671951752156019
5,1.00833336779274,-0.168055565350778,0.130555557438704,0.0152716310694814,-0.00549778714776039,-0.0149661982432008
5,1.01111115155925,-0.163888889701015,0.113888891307548,0.0134390350431204,-0.0027488935738802,-0.00671951752156019
5,1.0125000434425,-0.166666673467524,0.115277783190802,0.01191187184304,0.00244346098043024,-0.00488692196086049
5,1.0125000434425,-0.169444445078067,0.126388893944906,0.00702495034784079,-0.000305432622553781,-0.00794124789535999
5,1.0125000434425,-0.168055565350778,0.131944449321958,0.00305432616733015,-0.00152716308366507,0.00122173049021512
5,1.0125000434425,-0.170833336961321,0.125000002061652,0.00702495034784079,-0.00641408516094089,0.0143553335219622
5,1.00833336779274,-0.175000000455119,0.118055554801345,0.0177150927484035,-0.00427605677396059,0.0122173046693206
5,1.00972225967599,-0.176388892338373,0.122222230451108,0.0351247526705265,-0.00610865233466029,0.02382374368608
5,1.01527782720901,-0.176388892338373,0.113888891307548,0.0494800843298435,-0.00488692196086049,0.0342084541916847
5,1.0125000434425,-0.18333333959868,0.125000002061652,0.0607810914516449,-0.00488692196086049,0.0180205255746841
5,1.00555558402623,-0.177777784221628,0.13750000469901,0.0708603709936142,-0.0299323964864016,0.0180205255746841
5,1.00694447590948,-0.175000000455119,0.1194444466846,0.081855945289135,-0.0412334054708481,0.0219911485910416
5,1.01388893532575,-0.166666673467524,0.120833338567854,0.0812450796365738,-0.0427605658769607,0.0332921557128429
5,1.0125000434425,-0.170833336961321,0.12777778582816,0.0748309940099716,-0.0280998013913631,0.0354301854968071
5,1.01666671909226,-0.161111118090472,0.120833338567854,0.0684169083833694,-0.0244346093386412,0.0305432621389627
5,1.0125000434425,-0.163888889701015,0.116666675074056,0.0589484944939613,-0.019547687843442,0.0244346093386412
5,1.0125000434425,-0.16527778158427,0.113888891307548,0.0387899428606033,-0.0198531206697226,0.00916297826915979
5,1.0125000434425,-0.161111118090472,0.116666675074056,0.0314595587551594,-0.0177150927484035,0.00152716308366507
5,1.01666671909226,-0.161111118090472,0.120833338567854,0.0299323964864016,0.0021380283869803,0.0033597587607801
5,1.01805561097552,-0.156944454596674,0.115277783190802,0.0290160998702049,-0.00183259579353034,-0.00305432616733015
5,1.01111115155925,-0.154166670830166,0.118055554801345,0.00794124789535999,-0.00610865233466029,-0.0109955742955208
5,1.0125000434425,-0.156944454596674,0.122222230451108,0.000305432622553781,-0.00549778714776039,-0.0134390350431204
5,1.01111115155925,-0.159722226207217,0.122222230451108,-0.00763581553474069,-0.00488692196086049,-0.0103847095742822
5,1.02222228662528,-0.166666673467524,0.123611110178398,-0.013744467869401,0.00519235478714108,-0.0293215326964855
5,1.01944450285877,-0.170833336961321,0.116666675074056,0.00977384392172098,0.0125227374956012,-0.0335975885391235
5,1.00972225967599,-0.175000000455119,0.1194444466846,0.0250454749912024,-0.00641408516094089,-0.0284052342176437
5,1.00972225967599,-0.163888889701015,0.125000002061652,0.0320704244077206,-0.021685715764761,-0.0299323964864016
5,1.01111115155925,-0.163888889701015,0.122222230451108,0.00977384392172098,-0.0171042270958424,-0.0241291765123606
5,1.01527782720901,-0.158333334323963,0.113888891307548,-0.00610865233466029,0.0045814891345799,-0.0140499006956816
5,1.01527782720901,-0.156944454596674,0.125000002061652,-0.0146607663482428,0.013744467869401,-0.00610865233466029
5,1.0125000434425,-0.158333334323963,0.113888891307548,-0.0247400421649218,0.00916297826915979,-0.0134390350431204
5,1.00416669214298,-0.156944454596674,0.122222230451108,-0.0226020142436027,-0.0122173046693206,-0.00488692196086049
5,1.0125000434425,-0.162500009973726,0.118055554801345,-0.0271835029125214,-0.0045814891345799,-0.0045814891345799
5,1.01527782720901,-0.161111118090472,0.120833338567854,-0.0259617734700441,0.00397062394768,0.00855211354792118
5,1.00972225967599,-0.161111118090472,0.113888891307548,-0.0241291765123606,-0.011606439948082,0.00366519158706069
5,1.00833336779274,-0.16527778158427,0.126388893944906,-0.0186313893646002,-0.0125227374956012,0.00427605677396059
5,1.00833336779274,-0.16527778158427,0.12777778582816,-0.0167987942695618,-0.000916297896765172,-0.00122173049021512
5,1.00972225967599,-0.17361112072783,0.126388893944906,-0.0128281703218818,-0.00244346098043024,0.00244346098043024
5,1.01388893532575,-0.17361112072783,0.120833338567854,0.00488692196086049,-0.000916297896765172,-0.0027488935738802
5,1.01527782720901,-0.170833336961321,0.1194444466846,0.0171042270958424,-0.00641408516094089,-0.00610865233466029
5,1.01388893532575,-0.170833336961321,0.106944444047242,0.0164933614432812,-0.00885754637420177,0.00427605677396059
5,1.0125000434425,-0.168055565350778,0.112499999424294,0.00519235478714108,-0.0140499006956816,0.000916297896765172
5,1.01666671909226,-0.162500009973726,0.118055554801345,0.0106901414692402,0.0021380283869803,-0.00733038317412138
5,1.01527782720901,-0.166666673467524,0.120833338567854,0.0143553335219622,0.00397062394768,-0.00427605677396059
5,1.00972225967599,-0.156944454596674,0.12777778582816,0.00580321997404099,0.00183259579353034,-0.0021380283869803
5,1.00972225967599,-0.150000007336368,0.113888891307548,0.00977384392172098,-0.00763581553474069,0.00122173049021512
5,1.01111115155925,-0.150000007336368,0.120833338567854,0.0027488935738802,-0.00671951752156019,-0.00427605677396059
5,1.0125000434425,-0.154166670830166,0.1194444466846,-0.00794124789535999,-0.00824668072164059,-0.00183259579353034
5,1.01527782720901,-0.161111118090472,0.123611110178398,-0.017409659922123,0.00794124789535999,-0.00671951752156019
5,1.01388893532575,-0.161111118090472,0.118055554801345,-0.0103847095742822,0.013744467869401,-0.0149661982432008
5,1.0125000434425,-0.16527778158427,0.120833338567854,0.000610865245107561,0.00610865233466029,-0.0033597587607801
5,1.01805561097552,-0.170833336961321,0.112499999424294,-0.0021380283869803,0.0109955742955208,-0.0021380283869803
5,1.01944450285877,-0.170833336961321,0.1194444466846,0.00244346098043024,0.0113010071218014,-0.00122173049021512
5,1.01388893532575,-0.161111118090472,0.111111119697004,-0.00366519158706069,0.0161879286170006,-0.0100792767480016
5,1.01944450285877,-0.159722226207217,0.125000002061652,0.00824668072164059,0.0180205255746841,-0.01191187184304
5,1.0125000434425,-0.162500009973726,0.122222230451108,-0.0033597587607801,0.0229074470698834,-0.0045814891345799
5,1.01805561097552,-0.166666673467524,0.125000002061652,-0.00702495034784079,0.0232128798961639,-0.00397062394768
5,1.00972225967599,-0.16527778158427,0.130555557438704,-0.011606439948082,0.0192422550171614,-0.00366519158706069
5,1.00972225967599,-0.163888889701015,0.122222230451108,-0.00641408516094089,0.021685715764761,-0.00702495034784079
5,1.00972225967599,-0.166666673467524,0.113888891307548,-0.00946841109544039,0.0241291765123606,0.0033597587607801
5,1.00972225967599,-0.166666673467524,0.113888891307548,-0.00977384392172098,0.0204639863222837,0.00610865233466029
5,1.00972225967599,-0.16527778158427,0.12777778582816,-0.0113010071218014,0.0247400421649218,0.00824668072164059
5,1.01111115155925,-0.162500009973726,0.130555557438704,-0.0186313893646002,0.02382374368608,0.0131336031481624
5,1.01111115155925,-0.162500009973726,0.130555557438704,-0.0180205255746841,0.0213802829384804,0.00794124789535999
5,1.0125000434425,-0.170833336961321,0.120833338567854,-0.01588249579072,0.0189368221908808,0.00916297826915979
5,1.01111115155925,-0.170833336961321,0.12777778582816,0.00244346098043024,0.0186313893646002,0.00397062394768
5,1.01111115155925,-0.170833336961321,0.12777778582816,-0.0021380283869803,0.0229074470698834,0.00519235478714108
5,1.00833336779274,-0.166666673467524,0.133333341205212,0.000610865245107561,0.0192422550171614,0.0021380283869803
5,1.01388893532575,-0.172222228844576,0.13750000469901,-0.00244346098043024,0.0259617734700441,0.00244346098043024
5,1.01388893532575,-0.172222228844576,0.13750000469901,0.00549778714776039,0.02382374368608,0.000610865245107561
5,1.01111115155925,-0.162500009973726,0.12777778582816,-0.00122173049021512,0.0256563406437635,-0.0045814891345799
5,1.01388893532575,-0.158333334323963,0.134722233088466,0.00366519158706069,0.0167987942695618,-0.00641408516094089
5,1.01388893532575,-0.158333334323963,0.134722233088466,-0.00244346098043024,0.00549778714776039,0.00946841109544039
5,1.00972225967599,-0.156944454596674,0.12777778582816,-0.00152716308366507,0.0027488935738802,0.00244346098043024
5,1.01111115155925,-0.161111118090472,0.125000002061652,-0.01191187184304,0.00641408516094089,0.00977384392172098
5,1.00972225967599,-0.161111118090472,0.136111112815755,-0.00488692196086049,0.00488692196086049,0.00794124789535999
5,1.01111115155925,-0.163888889701015,0.131944449321958,0.0021380283869803,0.00885754637420177,0.00305432616733015
5,1.00833336779274,-0.16527778158427,0.143055560076062,-0.0021380283869803,0.00733038317412138,-0.00977384392172098
5,1.0125000434425,-0.169444445078067,0.140277788465518,-0.00580321997404099,0.0106901414692402,-0.00610865233466029
5,1.0125000434425,-0.163888889701015,0.1194444466846,-0.0134390350431204,0.0149661982432008,-0.00671951752156019
5,1.0125000434425,-0.156944454596674,0.12916666555545,-0.00763581553474069,0.0198531206697226,0.00152716308366507
5,1.01388893532575,-0.156944454596674,0.134722233088466,-0.00427605677396059,0.00641408516094089,0.00366519158706069
5,1.01111115155925,-0.169444445078067,0.125000002061652,-0.00916297826915979,0.00519235478714108,-0.0033597587607801
5,1.01111115155925,-0.166666673467524,0.130555557438704,-0.0131336031481624,-0.00733038317412138,0.00183259579353034
5,1.00972225967599,-0.163888889701015,0.125000002061652,-0.00519235478714108,0.00244346098043024,0.00183259579353034
5,1.01527782720901,-0.166666673467524,0.125000002061652,0.00122173049021512,0.00763581553474069,-0.00183259579353034
5,1.01666671909226,-0.169444445078067,0.126388893944906,-0.00488692196086049,0.01588249579072,0.000610865245107561
5,1.01527782720901,-0.16527778158427,0.126388893944906,-0.0143553335219622,0.0167987942695618,-0.00549778714776039
5,1.01527782720901,-0.163888889701015,0.125000002061652,-0.0128281703218818,0.0183259565383196,-0.00610865233466029
5,1.0125000434425,-0.163888889701015,0.125000002061652,-0.0122173046693206,0.00885754637420177,-0.000916297896765172
5,1.00694447590948,-0.168055565350778,0.126388893944906,-0.0180205255746841,0.00671951752156019,0.00977384392172098
5,1.0125000434425,-0.163888889701015,0.125000002061652,-0.0027488935738802,0.0204639863222837,0.00977384392172098
5,1.01111115155925,-0.163888889701015,0.12777778582816,-0.017409659922123,0.0146607663482428,0.0021380283869803
5,1.00694447590948,-0.16527778158427,0.130555557438704,-0.0128281703218818,0.00549778714776039,0.00183259579353034
5,1.00694447590948,-0.163888889701015,0.138888896582264,-0.0143553335219622,0.00183259579353034,-0.00366519158706069
5,1.00972225967599,-0.168055565350778,0.131944449321958,-0.00549778714776039,-0.0021380283869803,0.00794124789535999
5,1.00972225967599,-0.163888889701015,0.130555557438704,-0.00794124789535999,-0.00519235478714108,0.00824668072164059
5,1.01527782720901,-0.162500009973726,0.14583334384257,-0.00183259579353034,0.00244346098043024,0.00885754637420177
5,1.01388893532575,-0.159722226207217,0.131944449321958,0.000305432622553781,0.00366519158706069,-0.00549778714776039
5,1.0125000434425,-0.161111118090472,0.130555557438704,-0.00366519158706069,0.000916297896765172,0.00244346098043024
5,1.00972225967599,-0.163888889701015,0.13750000469901,-0.00305432616733015,-0.00397062394768,0.0045814891345799
5,1.00972225967599,-0.159722226207217,0.126388893944906,-0.00885754637420177,-0.0021380283869803,0.00733038317412138
5,1.01111115155925,-0.16527778158427,0.140277788465518,-0.00519235478714108,-0.00244346098043024,0.00824668072164059
5,1.00972225967599,-0.169444445078067,0.13750000469901,-0.0152716310694814,-0.00152716308366507,0.000610865245107561
5,1.00972225967599,-0.168055565350778,0.131944449321958,-0.00580321997404099,-0.000610865245107561,0.00733038317412138
5,1.01111115155925,-0.172222228844576,0.120833338567854,-0.00366519158706069,0.0100792767480016,0.00183259579353034
5,1.00416669214298,-0.169444445078067,0.12916666555545,-0.00549778714776039,0.000305432622553781,0.00519235478714108
5,1.00972225967599,-0.168055565350778,0.131944449321958,-0.00244346098043024,0.00641408516094089,-0.0027488935738802
5,1.01111115155925,-0.163888889701015,0.133333341205212,0.00152716308366507,-0.00519235478714108,0.00855211354792118
5,1.01111115155925,-0.168055565350778,0.123611110178398,-0.00305432616733015,0.00488692196086049,0.00366519158706069
5,1.00972225967599,-0.166666673467524,0.125000002061652,0.000305432622553781,-0.0027488935738802,0.00763581553474069
5,1.01111115155925,-0.169444445078067,0.12916666555545,0.00671951752156019,-0.00244346098043024,0.0027488935738802
5,1.01944450285877,-0.169444445078067,0.1194444466846,0.00702495034784079,0.00152716308366507,0.00610865233466029
5,1.01527782720901,-0.168055565350778,0.133333341205212,0.00977384392172098,0.00152716308366507,0.0021380283869803
5,1.00972225967599,-0.163888889701015,0.134722233088466,0.00397062394768,-0.00702495034784079,0.00488692196086049
5,1.0125000434425,-0.162500009973726,0.120833338567854,0.00794124789535999,-0.00916297826915979,0.011606439948082
5,1.00972225967599,-0.163888889701015,0.130555557438704,0.00488692196086049,-0.00885754637420177,0.011606439948082
5,1.0125000434425,-0.169444445078067,0.12777778582816,-0.000610865245107561,-0.00946841109544039,0.0033597587607801
5,1.01111115155925,-0.172222228844576,0.12916666555545,-0.00122173049021512,-0.0103847095742822,0.00183259579353034
5,1.01111115155925,-0.163888889701015,0.131944449321958,-0.0122173046693206,-0.0201585534960032,0.00152716308366507
5,1.00694447590948,-0.162500009973726,0.140277788465518,-0.0100792767480016,-0.0662788823246956,0.00641408516094089
5,1.00000001649321,-0.162500009973726,0.143055560076062,-0.000610865245107561,-0.161879286170006,0.00733038317412138
5,1.0125000434425,-0.17361112072783,0.131944449321958,-0.0125227374956012,-0.184481307864189,0.000305432622553781
5,1.02361117850853,-0.180555567988136,0.115277783190802,0.00824668072164059,-0.109650313854218,-0.000305432622553781
5,1.02500007039179,-0.175000000455119,0.102777780553444,0.00366519158706069,-0.00427605677396059,0.000610865245107561
5,1.00833336779274,-0.175000000455119,0.112499999424294,0.019547687843442,-0.00122173049021512,-0.0131336031481624
5,0.993055557076942,-0.168055565350778,0.122222230451108,0.0222965814173222,-0.0473420582711697,-0.00427605677396059
5,1.00416669214298,-0.17361112072783,0.123611110178398,0.0256563406437635,-0.0488692186772823,0.00671951752156019
5,1.01111115155925,-0.166666673467524,0.118055554801345,0.0387899428606033,-0.0229074470698834,0.0177150927484035
5,1.0125000434425,-0.163888889701015,0.122222230451108,0.0320704244077206,-0.0177150927484035,0.0140499006956816
5,1.01388893532575,-0.16527778158427,0.126388893944906,0.0198531206697226,-0.02382374368608,0.0222965814173222
5,1.01527782720901,-0.163888889701015,0.115277783190802,0.0201585534960032,-0.0164933614432812,0.0290160998702049
5,1.01527782720901,-0.156944454596674,0.1194444466846,0.0143553335219622,-0.0045814891345799,0.02382374368608
5,1.01944450285877,-0.168055565350778,0.126388893944906,0.0103847095742822,0.00488692196086049,0.00549778714776039
5,1.0125000434425,-0.16527778158427,0.126388893944906,0.011606439948082,-0.00610865233466029,0.00733038317412138
5,1.01111115155925,-0.170833336961321,0.1194444466846,0.0149661982432008,-0.0100792767480016,0.000610865245107561
5,1.01944450285877,-0.179166676104882,0.111111119697004,0.00580321997404099,-0.00397062394768,-0.0213802829384804
5,1.01527782720901,-0.176388892338373,0.108333335930496,-0.00305432616733015,0.00397062394768,-0.0161879286170006
5,1.0125000434425,-0.172222228844576,0.120833338567854,0.0122173046693206,0.0027488935738802,-0.0143553335219622
5,1.01111115155925,-0.17361112072783,0.120833338567854,0.0290160998702049,0.0100792767480016,-0.00580321997404099
5,1.00833336779274,-0.181944447715425,0.126388893944906,0.0339030213654041,0.00122173049021512,-0.00610865233466029
5,1.00694447590948,-0.179166676104882,0.116666675074056,0.0351247526705265,-0.00610865233466029,-0.00824668072164059
5,1.00833336779274,-0.166666673467524,0.118055554801345,0.0345138870179653,-0.0140499006956816,0.00763581553474069
5,1.0125000434425,-0.163888889701015,0.106944444047242,0.0229074470698834,-0.000916297896765172,0.0106901414692402
5,1.01527782720901,-0.163888889701015,0.105555564319952,0.0180205255746841,0.011606439948082,0.00855211354792118
5,1.00972225967599,-0.169444445078067,0.108333335930496,0.00885754637420177,0.0106901414692402,0.00519235478714108
5,1.01111115155925,-0.159722226207217,0.104166672436698,-0.0113010071218014,0.0027488935738802,0.00671951752156019
5,1.01388893532575,-0.163888889701015,0.120833338567854,-0.0207694191485643,0.0146607663482428,0.00824668072164059
5,1.01805561097552,-0.163888889701015,0.106944444047242,-0.0262672062963247,0.019547687843442,0.00824668072164059
5,1.0125000434425,-0.170833336961321,0.111111119697004,-0.0241291765123606,0.0308486949652433,-0.0134390350431204
5,1.00555558402623,-0.180555567988136,0.120833338567854,-0.0128281703218818,0.0146607663482428,-0.0180205255746841
5,1.00555558402623,-0.172222228844576,0.123611110178398,0.000610865245107561,0.0106901414692402,-0.0109955742955208
5,1.01527782720901,-0.17361112072783,0.122222230451108,0.00733038317412138,0.00824668072164059,-0.00183259579353034
5,1.00972225967599,-0.176388892338373,0.120833338567854,0.0210748501121998,-0.0021380283869803,0.00702495034784079
5,1.0125000434425,-0.176388892338373,0.113888891307548,0.0299323964864016,-0.00122173049021512,0.00397062394768
5,1.0125000434425,-0.166666673467524,0.111111119697004,0.0287106670439243,-0.0103847095742822,0.011606439948082
5,1.00972225967599,-0.169444445078067,0.104166672436698,0.0311541277915239,-0.00122173049021512,0.000916297896765172
5,1.01388893532575,-0.17361112072783,0.111111119697004,0.0287106670439243,0.0027488935738802,0.00244346098043024
5,1.01388893532575,-0.17361112072783,0.111111119697004,0.00977384392172098,0.0189368221908808,0.00122173049021512
5,1.01388893532575,-0.169444445078067,0.113888891307548,0.00733038317412138,0.0161879286170006,-0.00610865233466029
5,1.01388893532575,-0.169444445078067,0.113888891307548,0.00305432616733015,0.00366519158706069,-0.0131336031481624
5,1.0125000434425,-0.16527778158427,0.118055554801345,0.00946841109544039,0.000916297896765172,-0.0146607663482428
5,1.01111115155925,-0.176388892338373,0.111111119697004,0.00977384392172098,0.013744467869401,-0.0186313893646002
5,1.0125000434425,-0.180555567988136,0.10972222781375,0.03176499158144,0.015577063895762,-0.0140499006956816
5,1.0125000434425,-0.180555567988136,0.105555564319952,0.0482583530247212,0.00244346098043024,-0.013744467869401
5,1.0125000434425,-0.180555567988136,0.1194444466846,0.070249505341053,-0.01588249579072,-0.00946841109544039
5,1.00833336779274,-0.17361112072783,0.12777778582816,0.081855945289135,-0.0268780700862408,0.00641408516094089
5,1.01388893532575,-0.169444445078067,0.125000002061652,0.0824668109416962,-0.019547687843442,0.0143553335219622
5,1.01388893532575,-0.17361112072783,0.118055554801345,0.0681114718317986,-0.00824668072164059,0.0113010071218014
5,1.0125000434425,-0.170833336961321,0.111111119697004,0.0638354197144508,-0.00824668072164059,0.00244346098043024
5,1.00972225967599,-0.163888889701015,0.113888891307548,0.0574213340878487,-0.0198531206697226,0.015577063895762
5,1.00833336779274,-0.161111118090472,0.1194444466846,0.0537561401724815,-0.0198531206697226,0.0103847095742822
5,1.0125000434425,-0.163888889701015,0.112499999424294,0.0479529201984406,-0.00397062394768,0.00733038317412138
5,1.01111115155925,-0.16527778158427,0.122222230451108,0.0436768643558025,-0.0305432621389627,0.0131336031481624
5,1.01388893532575,-0.170833336961321,0.123611110178398,0.0491746515035629,-0.0226020142436027,0.0131336031481624
5,1.0125000434425,-0.17361112072783,0.120833338567854,0.0571159012615681,-0.0277943685650826,-0.00244346098043024
5,1.00833336779274,-0.166666673467524,0.122222230451108,0.0632245540618896,-0.0290160998702049,-0.00671951752156019
5,1.00694447590948,-0.166666673467524,0.120833338567854,0.0516181141138077,-0.0265726372599602,-0.00733038317412138
5,1.00555558402623,-0.161111118090472,0.123611110178398,0.0384845100343227,-0.0503963828086853,-0.00244346098043024
5,1.01527782720901,-0.163888889701015,0.116666675074056,0.0409279726445675,-0.0268780700862408,0.00580321997404099
5,1.01944450285877,-0.161111118090472,0.123611110178398,0.0229074470698834,-0.0201585534960032,0.00427605677396059
5,1.02222228662528,-0.156944454596674,0.115277783190802,0.00916297826915979,-0.000916297896765172,0.00397062394768
5,1.02083339474202,-0.154166670830166,0.10972222781375,-0.0189368221908808,0.0109955742955208,0.0106901414692402
5,1.01944450285877,-0.150000007336368,0.10972222781375,-0.0400116741657257,0.0314595587551594,0.00488692196086049
5,1.01527782720901,-0.158333334323963,0.1194444466846,-0.0623082555830479,0.037568211555481,-0.00549778714776039
5,1.01388893532575,-0.162500009973726,0.1194444466846,-0.0699440687894821,0.0415388382971287,-0.00671951752156019
5,1.01666671909226,-0.169444445078067,0.10972222781375,-0.0650571510195732,0.0458148941397667,-0.0045814891345799
5,1.01527782720901,-0.163888889701015,0.1194444466846,-0.0616973899304867,0.0470366254448891,-0.00152716308366507
5,1.0125000434425,-0.169444445078067,0.116666675074056,-0.0421497002243996,0.0577267669141293,-0.011606439948082
5,1.00694447590948,-0.176388892338373,0.134722233088466,-0.0164933614432812,0.0534507073462009,-0.00183259579353034
5,1.00555558402623,-0.168055565350778,0.12916666555545,-0.00519235478714108,0.0210748501121998,0.000305432622553781
5,1.00833336779274,-0.162500009973726,0.122222230451108,0.0146607663482428,0.00946841109544039,0.0140499006956816
5,1.01388893532575,-0.166666673467524,0.113888891307548,0.0161879286170006,0.00733038317412138,0.0241291765123606
5,1.01944450285877,-0.169444445078067,0.113888891307548,0.0183259565383196,0.0271835029125214,0.00610865233466029
5,1.01527782720901,-0.163888889701015,0.111111119697004,0.0167987942695618,0.0280998013913631,0.00763581553474069
5,1.01527782720901,-0.163888889701015,0.115277783190802,0.0134390350431204,0.0335975885391235,0.0167987942695618
5,1.01527782720901,-0.161111118090472,0.133333341205212,0.00916297826915979,0.0360410511493683,0.0189368221908808
5,1.01666671909226,-0.162500009973726,0.122222230451108,-0.00488692196086049,0.0415388382971287,0.00519235478714108
5,1.0125000434425,-0.163888889701015,0.125000002061652,-0.01191187184304,0.0510072484612465,0.0045814891345799
5,1.01111115155925,-0.162500009973726,0.12916666555545,-0.00946841109544039,0.0510072484612465,0.0021380283869803
5,1.00972225967599,-0.161111118090472,0.130555557438704,-0.00519235478714108,0.0442877300083637,0.00183259579353034
5,1.00972225967599,-0.166666673467524,0.12916666555545,-0.00305432616733015,0.0280998013913631,-0.0033597587607801
5,1.01527782720901,-0.166666673467524,0.134722233088466,0.00946841109544039,0.0247400421649218,0.00122173049021512
5,1.01527782720901,-0.17361112072783,0.12916666555545,0.0149661982432008,0.0326812900602817,0.00244346098043024
5,1.00972225967599,-0.17361112072783,0.12777778582816,0.0186313893646002,0.0226020142436027,-0.00397062394768
5,1.00833336779274,-0.168055565350778,0.131944449321958,0.0265726372599602,0.0140499006956816,-0.00763581553474069
5,1.00555558402623,-0.169444445078067,0.12777778582816,0.0256563406437635,0.0103847095742822,-0.00580321997404099
5,1.00972225967599,-0.166666673467524,0.12777778582816,0.0280998013913631,0.0113010071218014,-0.00549778714776039
5,1.00972225967599,-0.16527778158427,0.133333341205212,0.021685715764761,0.0149661982432008,-0.00244346098043024
5,1.0125000434425,-0.166666673467524,0.13750000469901,0.0027488935738802,0.0311541277915239,-0.019547687843442
5,1.0125000434425,-0.166666673467524,0.134722233088466,0.00488692196086049,0.021685715764761,-0.0287106670439243
5,1.01944450285877,-0.15555556271342,0.131944449321958,-0.00366519158706069,0.0232128798961639,-0.0207694191485643
5,1.01805561097552,-0.14722222356986,0.143055560076062,-0.00824668072164059,0.0210748501121998,-0.0134390350431204
5,1.00972225967599,-0.14583334384257,0.140277788465518,-0.0152716310694814,0.0213802829384804,0.00977384392172098
5,1.00555558402623,-0.15555556271342,0.143055560076062,-0.0381790772080422,0.00580321997404099,0.0152716310694814
5,1.00694447590948,-0.161111118090472,0.143055560076062,-0.0439822971820831,-0.00397062394768,0.00519235478714108
5,1.00694447590948,-0.159722226207217,0.133333341205212,-0.0412334054708481,-0.0164933614432812,-0.0100792767480016
5,1.01666671909226,-0.163888889701015,0.140277788465518,-0.03176499158144,0.0027488935738802,-0.0161879286170006
5,1.01944450285877,-0.169444445078067,0.130555557438704,-0.0354301854968071,0.0103847095742822,-0.0113010071218014
5,1.01388893532575,-0.168055565350778,0.134722233088466,-0.03176499158144,0.0125227374956012,0.0131336031481624
5,1.01388893532575,-0.168055565350778,0.134722233088466,-0.0219911485910416,0.0268780700862408,0.00519235478714108
5,1.00833336779274,-0.176388892338373,0.131944449321958,-0.00671951752156019,0.0213802829384804,0.00519235478714108
5,1.0125000434425,-0.177777784221628,0.12916666555545,-0.00305432616733015,0.00824668072164059,0.00824668072164059
5,1.0125000434425,-0.177777784221628,0.12916666555545,0.0177150927484035,0.000305432622553781,0.00580321997404099
5,1.00972225967599,-0.184722231481934,0.134722233088466,0.0345138870179653,0.00305432616733015,-0.000916297896765172
5,1.0125000434425,-0.181944447715425,0.143055560076062,0.0497855171561241,0.00305432616733015,-0.01588249579072
5,1.0125000434425,-0.177777784221628,0.140277788465518,0.0485637858510017,-0.0021380283869803,-0.0161879286170006
5,1.00555558402623,-0.163888889701015,0.130555557438704,0.0348193198442459,0.00702495034784079,-0.00671951752156019
5,1.00694447590948,-0.162500009973726,0.133333341205212,0.0229074470698834,0.000305432622553781,-0.00305432616733015
5,1.0125000434425,-0.161111118090472,0.140277788465518,0.0171042270958424,-0.00580321997404099,-0.00366519158706069
5,1.01944450285877,-0.169444445078067,0.1194444466846,0.00488692196086049,0.00519235478714108,0.00305432616733015
5,1.01527782720901,-0.17361112072783,0.1194444466846,0.000305432622553781,0.0122173046693206,-0.00885754637420177
5,1.01527782720901,-0.175000000455119,0.125000002061652,-0.00152716308366507,0.00397062394768,-0.0103847095742822
5,1.00833336779274,-0.170833336961321,0.126388893944906,0.000610865245107561,0.00885754637420177,-0.0143553335219622
5,1.00833336779274,-0.172222228844576,0.130555557438704,-0.00549778714776039,0.00641408516094089,-0.00549778714776039
5,1.00833336779274,-0.175000000455119,0.125000002061652,0.000916297896765172,0.00702495034784079,0.000610865245107561
5,1.0125000434425,-0.176388892338373,0.12777778582816,0.0109955742955208,0.00763581553474069,0.00183259579353034
5,1.0125000434425,-0.172222228844576,0.133333341205212,0.0265726372599602,0.0021380283869803,0.000916297896765172
5,1.00694447590948,-0.163888889701015,0.134722233088466,0.03176499158144,-0.0201585534960032,0.0134390350431204
5,1.00277780025972,-0.158333334323963,0.144444451959316,0.0308486949652433,-0.0326812900602817,0.0280998013913631
5,1.00972225967599,-0.154166670830166,0.13750000469901,0.0271835029125214,-0.0354301854968071,0.0378736443817616
5,1.01527782720901,-0.154166670830166,0.130555557438704,0.00916297826915979,-0.00733038317412138,0.0299323964864016
5,1.0125000434425,-0.159722226207217,0.12777778582816,0.00366519158706069,0.0027488935738802,0.0180205255746841
5,1.0125000434425,-0.159722226207217,0.130555557438704,-0.011606439948082,0.00763581553474069,-0.00824668072164059
5,1.01388893532575,-0.163888889701015,0.133333341205212,-0.0342084541916847,0.0103847095742822,-0.0146607663482428
5,1.01388893532575,-0.161111118090472,0.12916666555545,-0.0549778714776039,0.0177150927484035,-0.0247400421649218
5,1.01527782720901,-0.154166670830166,0.12777778582816,-0.0742201283574104,0.0198531206697226,-0.0207694191485643
5,1.01388893532575,-0.156944454596674,0.130555557438704,-0.0726929605007172,0.0320704244077206,-0.0183259565383196
5,1.00972225967599,-0.161111118090472,0.134722233088466,-0.0769690200686455,0.0335975885391235,-0.0265726372599602
5,1.00138890837647,-0.162500009973726,0.13750000469901,-0.0671951770782471,0.0106901414692402,-0.0280998013913631
5,1.00277780025972,-0.163888889701015,0.14583334384257,-0.0592539273202419,-0.000610865245107561,-0.0106901414692402
5,1.00972225967599,-0.170833336961321,0.131944449321958,-0.0406225398182869,-0.00702495034784079,0.00641408516094089
5,1.0125000434425,-0.170833336961321,0.120833338567854,-0.0351247526705265,-0.00885754637420177,0.0134390350431204
5,1.01388893532575,-0.166666673467524,0.131944449321958,-0.0354301854968071,0.00366519158706069,0.000305432622553781
5,1.00972225967599,-0.166666673467524,0.130555557438704,-0.0299323964864016,-0.01588249579072,0.00733038317412138
5,1.00555558402623,-0.169444445078067,0.12916666555545,-0.000916297896765172,-0.02382374368608,0.00946841109544039
5,1.00972225967599,-0.169444445078067,0.133333341205212,-0.000305432622553781,-0.01588249579072,0.0164933614432812
5,1.00972225967599,-0.162500009973726,0.125000002061652,-0.0045814891345799,0.00916297826915979,0.01191187184304
5,1.00972225967599,-0.162500009973726,0.134722233088466,-0.0103847095742822,0.0045814891345799,0.00946841109544039
5,1.01111115155925,-0.16527778158427,0.12916666555545,-0.00397062394768,-0.0198531206697226,-0.000305432622553781
5,1.01111115155925,-0.166666673467524,0.122222230451108,-0.00580321997404099,-0.00610865233466029,-0.00671951752156019
5,1.00972225967599,-0.166666673467524,0.120833338567854,-0.00702495034784079,-0.011606439948082,0.0027488935738802
5,1.0125000434425,-0.172222228844576,0.126388893944906,-0.00183259579353034,0.0027488935738802,-0.00855211354792118
5,1.00972225967599,-0.166666673467524,0.126388893944906,0.00702495034784079,0.00366519158706069,-0.017409659922123
5,1.00555558402623,-0.166666673467524,0.12916666555545,0.00885754637420177,-0.00671951752156019,-0.0033597587607801
5,1.00555558402623,-0.166666673467524,0.134722233088466,0.00305432616733015,-0.019547687843442,0.00244346098043024
5,1.01388893532575,-0.180555567988136,0.133333341205212,0.0186313893646002,-0.00427605677396059,-0.00641408516094089
5,1.01527782720901,-0.181944447715425,0.133333341205212,0.0323758572340012,0.00733038317412138,-0.00794124789535999
5,1.00972225967599,-0.176388892338373,0.126388893944906,0.0467311926186085,0.00488692196086049,-0.0183259565383196
5,1.00972225967599,-0.169444445078067,0.122222230451108,0.0400116741657257,-0.00549778714776039,-0.00488692196086049
5,1.00972225967599,-0.169444445078067,0.125000002061652,0.0507018156349659,-0.00641408516094089,0.019547687843442
5,1.00555558402623,-0.168055565350778,0.122222230451108,0.0497855171561241,0.00855211354792118,0.0207694191485643
5,1.00972225967599,-0.159722226207217,0.126388893944906,0.0415388382971287,-0.00763581553474069,0.0100792767480016
5,1.00972225967599,-0.156944454596674,0.12777778582816,0.0406225398182869,-0.0265726372599602,0.0189368221908808
5,1.00833336779274,-0.15555556271342,0.130555557438704,0.0345138870179653,-0.0268780700862408,0.0342084541916847
5,1.00694447590948,-0.154166670830166,0.126388893944906,0.0280998013913631,-0.0326812900602817,0.0400116741657257
5,1.00694447590948,-0.15555556271342,0.12916666555545,0.00397062394768,-0.0219911485910416,0.0418442711234093
5,1.0125000434425,-0.158333334323963,0.133333341205212,-0.00794124789535999,-0.00916297826915979,0.00152716308366507
5,1.01111115155925,-0.163888889701015,0.140277788465518,-0.00855211354792118,0.0106901414692402,-0.0244346093386412
5,1.01388893532575,-0.166666673467524,0.13750000469901,-0.0177150927484035,-0.00580321997404099,-0.0262672062963247
5,1.01666671909226,-0.163888889701015,0.12777778582816,-0.0210748501121998,0.00244346098043024,-0.00519235478714108
5,1.01111115155925,-0.163888889701015,0.131944449321958,-0.015577063895762,-0.000916297896765172,-0.000305432622553781
5,1.00416669214298,-0.166666673467524,0.125000002061652,-0.0177150927484035,-0.00946841109544039,0.01191187184304
5,1.00555558402623,-0.166666673467524,0.122222230451108,-0.00855211354792118,-0.0128281703218818,0.00427605677396059
5,1.00138890837647,-0.170833336961321,0.136111112815755,-0.000305432622553781,-0.0143553335219622,-0.011606439948082
5,1.00555558402623,-0.16527778158427,0.134722233088466,0.0149661982432008,-0.0287106670439243,-0.00427605677396059
5,1.01111115155925,-0.163888889701015,0.122222230451108,0.0262672062963247,-0.037568211555481,0.0204639863222837
5,1.0125000434425,-0.162500009973726,0.113888891307548,0.0290160998702049,-0.0406225398182869,0.0164933614432812
5,1.01944450285877,-0.166666673467524,0.122222230451108,0.0222965814173222,-0.0247400421649218,0.0259617734700441
5,1.01666671909226,-0.159722226207217,0.118055554801345,0.0103847095742822,-0.0146607663482428,0.0207694191485643
5,1.0125000434425,-0.162500009973726,0.120833338567854,-0.00610865233466029,-0.0146607663482428,0.00641408516094089
5,1.0125000434425,-0.162500009973726,0.120833338567854,-0.015577063895762,-0.0226020142436027,-0.000610865245107561
5,1.0125000434425,-0.168055565350778,0.12777778582816,-0.0213802829384804,-0.0265726372599602,-0.0103847095742822
5,1.0125000434425,-0.170833336961321,0.118055554801345,-0.0152716310694814,-0.0335975885391235,-0.0140499006956816
5,1.0125000434425,-0.170833336961321,0.118055554801345,-0.00366519158706069,-0.0323758572340012,-0.0345138870179653
5,1.01666671909226,-0.175000000455119,0.118055554801345,-0.00244346098043024,-0.0204639863222837,-0.0302378293126821
5,1.01527782720901,-0.177777784221628,0.120833338567854,0.0146607663482428,-0.021685715764761,-0.0219911485910416
5,1.01527782720901,-0.177777784221628,0.120833338567854,0.019547687843442,-0.029626963660121,-0.0167987942695618
5,1.00833336779274,-0.17361112072783,0.120833338567854,0.0271835029125214,-0.0345138870179653,-0.00610865233466029
5,1.00972225967599,-0.172222228844576,0.118055554801345,0.0287106670439243,-0.0320704244077206,-0.0021380283869803
5,1.00972225967599,-0.172222228844576,0.118055554801345,0.0342084541916847,-0.0302378293126821,0.000305432622553781
5,1.01527782720901,-0.172222228844576,0.118055554801345,0.0339030213654041,-0.0198531206697226,-0.000305432622553781
5,1.01527782720901,-0.17361112072783,0.112499999424294,0.0241291765123606,-0.00855211354792118,-0.000610865245107561
5,1.01527782720901,-0.166666673467524,0.111111119697004,0.017409659922123,-0.0226020142436027,0.00488692196086049
5,1.01666671909226,-0.158333334323963,0.115277783190802,-0.0131336031481624,-0.013744467869401,0.00122173049021512
5,1.01805561097552,-0.159722226207217,0.122222230451108,-0.00763581553474069,-0.0106901414692402,0.00794124789535999
5,1.01527782720901,-0.161111118090472,0.115277783190802,-0.0109955742955208,-0.00610865233466029,-0.000610865245107561
5,1.0125000434425,-0.16527778158427,0.120833338567854,-0.015577063895762,-0.00794124789535999,-0.00671951752156019
5,1.01111115155925,-0.169444445078067,0.115277783190802,-0.0103847095742822,-0.0100792767480016,-0.00885754637420177
5,1.01388893532575,-0.176388892338373,0.118055554801345,-0.00916297826915979,-0.00183259579353034,-0.0100792767480016
5,1.0125000434425,-0.17361112072783,0.115277783190802,-0.00549778714776039,0.00977384392172098,-0.00580321997404099
5,1.01111115155925,-0.17361112072783,0.105555564319952,-0.00183259579353034,0.00305432616733015,-0.011606439948082
5,1.01111115155925,-0.170833336961321,0.10972222781375,-0.0027488935738802,0.00305432616733015,-0.00488692196086049
5,1.00972225967599,-0.16527778158427,0.108333335930496,-0.00183259579353034,0.000610865245107561,-0.00702495034784079
5,1.01388893532575,-0.162500009973726,0.125000002061652,0.00855211354792118,-0.00397062394768,-0.00488692196086049
5,1.01527782720901,-0.168055565350778,0.115277783190802,0.0021380283869803,0.015577063895762,-0.00427605677396059
5,1.01527782720901,-0.169444445078067,0.108333335930496,0.0033597587607801,0.0106901414692402,-0.00610865233466029
5,1.0125000434425,-0.170833336961321,0.1194444466846,0.015577063895762,0.0109955742955208,-0.0180205255746841
5,1.01388893532575,-0.166666673467524,0.115277783190802,0.0219911485910416,0.017409659922123,0.000916297896765172
5,1.01388893532575,-0.170833336961321,0.115277783190802,0.0305432621389627,0.0186313893646002,0.000916297896765172
5,1.0125000434425,-0.16527778158427,0.125000002061652,0.0335975885391235,0.0128281703218818,0.00152716308366507
5,1.00833336779274,-0.163888889701015,0.134722233088466,0.0470366254448891,0.017409659922123,0.00763581553474069
5,1.0125000434425,-0.163888889701015,0.125000002061652,0.0302378293126821,0.01191187184304,0.000305432622553781
5,1.0125000434425,-0.166666673467524,0.118055554801345,0.0314595587551594,0.00641408516094089,0.000305432622553781
5,1.01527782720901,-0.16527778158427,0.116666675074056,0.0213802829384804,0.013744467869401,-0.000305432622553781
5,1.01944450285877,-0.161111118090472,0.122222230451108,0.0253509078174829,0.0210748501121998,0.00671951752156019
5,1.01666671909226,-0.161111118090472,0.12916666555545,0.013744467869401,0.0256563406437635,0.00427605677396059
5,1.01805561097552,-0.161111118090472,0.123611110178398,0.00305432616733015,0.0268780700862408,0.00824668072164059
5,1.00972225967599,-0.161111118090472,0.120833338567854,-0.00183259579353034,0.029626963660121,0.00794124789535999
5,1.0125000434425,-0.168055565350778,0.12777778582816,0.00855211354792118,0.0180205255746841,0.00549778714776039
5,1.0125000434425,-0.16527778158427,0.126388893944906,0.0125227374956012,0.0140499006956816,0.00427605677396059
5,1.00972225967599,-0.16527778158427,0.12777778582816,0.0284052342176437,-0.00183259579353034,0.00519235478714108
5,1.00972225967599,-0.16527778158427,0.12777778582816,0.0323758572340012,0.0027488935738802,0.00977384392172098
5,1.01111115155925,-0.161111118090472,0.12777778582816,0.0253509078174829,0.00855211354792118,0.00855211354792118
5,1.01111115155925,-0.161111118090472,0.12777778582816,0.0128281703218818,0.00397062394768,0.000305432622553781
5,1.00972225967599,-0.162500009973726,0.125000002061652,0.011606439948082,0.0125227374956012,0.000916297896765172
5,1.00972225967599,-0.163888889701015,0.12777778582816,0.000610865245107561,0.0109955742955208,0.01191187184304
5,1.01388893532575,-0.16527778158427,0.131944449321958,0.00641408516094089,0.0161879286170006,-0.00152716308366507
5,1.0125000434425,-0.170833336961321,0.12777778582816,-0.00305432616733015,0.013744467869401,-0.000916297896765172
5,1.00972225967599,-0.16527778158427,0.130555557438704,-0.000305432622553781,0.0186313893646002,-0.00946841109544039
5,1.00972225967599,-0.163888889701015,0.12777778582816,0.0033597587607801,0.00580321997404099,0.000305432622553781
5,1.0125000434425,-0.16527778158427,0.118055554801345,-0.00183259579353034,0.01191187184304,-0.00305432616733015
5,1.00972225967599,-0.163888889701015,0.123611110178398,-0.00152716308366507,0.0192422550171614,-0.0027488935738802
5,1.00972225967599,-0.166666673467524,0.12916666555545,-0.00641408516094089,0.0219911485910416,-0.00183259579353034
5,1.00972225967599,-0.16527778158427,0.12777778582816,-0.0140499006956816,0.0171042270958424,0.0021380283869803
5,1.0125000434425,-0.169444445078067,0.126388893944906,-0.00183259579353034,0.0143553335219622,-0.000610865245107561
5,1.00833336779274,-0.166666673467524,0.123611110178398,0.00794124789535999,0.0143553335219622,-0.00152716308366507
5,1.0125000434425,-0.170833336961321,0.12777778582816,0.00824668072164059,0.0177150927484035,0.00427605677396059
5,1.00972225967599,-0.175000000455119,0.130555557438704,0.00763581553474069,0.0125227374956012,-0.00824668072164059
5,1.0125000434425,-0.170833336961321,0.133333341205212,0.0125227374956012,0.00610865233466029,-0.000916297896765172
5,1.01527782720901,-0.17361112072783,0.130555557438704,0.00977384392172098,0.0027488935738802,-0.000610865245107561
5,1.01111115155925,-0.168055565350778,0.130555557438704,0.0100792767480016,0.00427605677396059,-0.0033597587607801
5,1.00972225967599,-0.168055565350778,0.123611110178398,0.00183259579353034,0.0131336031481624,-0.00305432616733015
5,1.00555558402623,-0.16527778158427,0.130555557438704,0.00122173049021512,0.00733038317412138,0.00855211354792118
5,1.00833336779274,-0.166666673467524,0.12916666555545,-0.00122173049021512,-0.0027488935738802,0.00183259579353034
5,1.00694447590948,-0.166666673467524,0.130555557438704,0.00366519158706069,-0.00610865233466029,-0.000610865245107561
5,1.00833336779274,-0.169444445078067,0.12916666555545,0.0045814891345799,-0.000305432622553781,-0.000916297896765172
5,1.01388893532575,-0.163888889701015,0.125000002061652,0.00885754637420177,0.00855211354792118,0.0113010071218014
5,1.01527782720901,-0.163888889701015,0.12916666555545,0.00366519158706069,0.00824668072164059,0.00580321997404099
5,1.0125000434425,-0.170833336961321,0.120833338567854,0.000305432622553781,0.0140499006956816,-0.00183259579353034
5,1.01111115155925,-0.172222228844576,0.125000002061652,0.00610865233466029,0.0045814891345799,0.00671951752156019
5,1.0125000434425,-0.170833336961321,0.12916666555545,0.00427605677396059,0.0027488935738802,0.0128281703218818
5,1.01388893532575,-0.168055565350778,0.141666668192807,0.0045814891345799,0.0045814891345799,0.00946841109544039
5,1.01111115155925,-0.166666673467524,0.138888896582264,0.00946841109544039,0.00610865233466029,-0.000305432622553781
5,1.01388893532575,-0.16527778158427,0.125000002061652,-0.000610865245107561,0.0021380283869803,0.0027488935738802
5,1.01111115155925,-0.163888889701015,0.130555557438704,-0.00427605677396059,0.0033597587607801,0.00702495034784079
5,1.01388893532575,-0.166666673467524,0.144444451959316,-0.00183259579353034,-0.0021380283869803,0.00855211354792118
5,1.00972225967599,-0.163888889701015,0.140277788465518,0.0100792767480016,-0.00733038317412138,0.0134390350431204
5,1.00833336779274,-0.166666673467524,0.130555557438704,0.00824668072164059,-0.00549778714776039,0.00152716308366507
5,1.00833336779274,-0.166666673467524,0.144444451959316,0.00610865233466029,-0.00427605677396059,0.00702495034784079
5,1.00833336779274,-0.16527778158427,0.13750000469901,0.00366519158706069,-0.00183259579353034,0.0100792767480016
5,1.00833336779274,-0.16527778158427,0.13750000469901,0.00641408516094089,0.00122173049021512,0.00488692196086049
5,1.01111115155925,-0.172222228844576,0.130555557438704,0.0113010071218014,0.00122173049021512,0.0113010071218014
5,1.01111115155925,-0.166666673467524,0.130555557438704,0.00549778714776039,0.00152716308366507,0.0100792767480016
5,1.01111115155925,-0.166666673467524,0.130555557438704,-0.00122173049021512,0.000916297896765172,-0.00549778714776039
5,1.01388893532575,-0.158333334323963,0.136111112815755,-0.00916297826915979,-0.00427605677396059,-0.0100792767480016
5,1.01388893532575,-0.162500009973726,0.131944449321958,-0.00305432616733015,-0.000305432622553781,0.00305432616733015
5,1.01527782720901,-0.162500009973726,0.131944449321958,0.00244346098043024,0.00397062394768,-0.00244346098043024
5,1.01388893532575,-0.16527778158427,0.134722233088466,0.00733038317412138,0.00305432616733015,-0.000610865245107561
5,1.01111115155925,-0.16527778158427,0.12777778582816,-0.00519235478714108,-0.00641408516094089,-0.00763581553474069
5,1.01111115155925,-0.163888889701015,0.130555557438704,-0.00488692196086049,-0.0103847095742822,-0.00152716308366507
5,1.00833336779274,-0.156944454596674,0.118055554801345,-0.00427605677396059,-0.00885754637420177,-0.00671951752156019
5,1.0125000434425,-0.161111118090472,0.1194444466846,-0.00763581553474069,-0.00519235478714108,-0.0033597587607801
5,1.0125000434425,-0.166666673467524,0.120833338567854,-0.0106901414692402,0.00366519158706069,-0.00794124789535999
5,1.01388893532575,-0.17361112072783,0.120833338567854,0.00183259579353034,-0.00885754637420177,-0.00916297826915979
5,1.0125000434425,-0.175000000455119,0.131944449321958,0.0027488935738802,-0.0253509078174829,-0.00244346098043024
5,1.00972225967599,-0.170833336961321,0.125000002061652,0.00244346098043024,-0.017409659922123,0.00397062394768
5,1.01111115155925,-0.17361112072783,0.125000002061652,0.00580321997404099,-0.011606439948082,-0.00427605677396059
5,1.00972225967599,-0.181944447715425,0.141666668192807,0.013744467869401,-0.0122173046693206,-0.013744467869401
5,1.0125000434425,-0.175000000455119,0.125000002061652,0.0226020142436027,-0.00427605677396059,0.0045814891345799
5,1.01527782720901,-0.17361112072783,0.123611110178398,0.0265726372599602,-0.00397062394768,0.00152716308366507
5,1.01388893532575,-0.170833336961321,0.126388893944906,0.0259617734700441,-0.00305432616733015,-0.00671951752156019
5,1.01388893532575,-0.16527778158427,0.12777778582816,0.0314595587551594,-0.00855211354792118,0.000916297896765172
5,1.0125000434425,-0.163888889701015,0.123611110178398,0.021685715764761,-0.021685715764761,-0.00580321997404099
5,1.01527782720901,-0.168055565350778,0.118055554801345,0.0250454749912024,-0.00488692196086049,-0.00244346098043024
5,1.01944450285877,-0.170833336961321,0.123611110178398,0.0207694191485643,-0.00855211354792118,-0.00733038317412138
5,1.01527782720901,-0.166666673467524,0.122222230451108,0.0259617734700441,-0.0109955742955208,-0.00183259579353034
5,1.01527782720901,-0.168055565350778,0.116666675074056,0.0186313893646002,-0.00885754637420177,-0.000305432622553781
5,1.01527782720901,-0.168055565350778,0.120833338567854,0.0109955742955208,0.00183259579353034,-0.00824668072164059
5,1.01666671909226,-0.166666673467524,0.126388893944906,0.01588249579072,-0.00763581553474069,0.0021380283869803
5,1.01666671909226,-0.16527778158427,0.12777778582816,0.00885754637420177,-0.0109955742955208,-0.000916297896765172
5,1.01388893532575,-0.168055565350778,0.125000002061652,0.00519235478714108,-0.01191187184304,-0.0033597587607801
5,1.01388893532575,-0.16527778158427,0.130555557438704,0.00244346098043024,-0.00427605677396059,0.000610865245107561
5,1.01527782720901,-0.170833336961321,0.123611110178398,-0.00519235478714108,-0.000610865245107561,0.00305432616733015
5,1.01527782720901,-0.168055565350778,0.116666675074056,-0.0033597587607801,-0.01191187184304,0.0033597587607801
5,1.01805561097552,-0.166666673467524,0.126388893944906,-0.00855211354792118,-0.00641408516094089,-0.00366519158706069
5,1.01944450285877,-0.166666673467524,0.133333341205212,-0.00763581553474069,-0.0122173046693206,-0.00855211354792118
5,1.01111115155925,-0.166666673467524,0.130555557438704,-0.00152716308366507,-0.00916297826915979,0.00488692196086049
5,1.01527782720901,-0.163888889701015,0.134722233088466,0.000610865245107561,-0.00702495034784079,0.000916297896765172
5,1.01527782720901,-0.163888889701015,0.126388893944906,0.000610865245107561,-0.00549778714776039,-0.00305432616733015
5,1.00972225967599,-0.170833336961321,0.123611110178398,0.00152716308366507,0.00946841109544039,0.0021380283869803
5,1.01388893532575,-0.170833336961321,0.120833338567854,0.00519235478714108,0.00794124789535999,-0.000916297896765172
5,1.01527782720901,-0.17361112072783,0.122222230451108,0.00549778714776039,0.0027488935738802,-0.0027488935738802
5,1.00555558402623,-0.166666673467524,0.126388893944906,0.00855211354792118,-0.00152716308366507,0.00549778714776039
5,1.00972225967599,-0.16527778158427,0.130555557438704,0.0128281703218818,-0.0131336031481624,0.00305432616733015
5,1.0125000434425,-0.169444445078067,0.131944449321958,0.0247400421649218,-0.0106901414692402,0.00702495034784079
5,1.01388893532575,-0.166666673467524,0.118055554801345,0.0256563406437635,-0.00580321997404099,0.0106901414692402
5,1.01388893532575,-0.166666673467524,0.12916666555545,0.00794124789535999,-0.00519235478714108,0.00580321997404099
5,1.01111115155925,-0.156944454596674,0.111111119697004,0.00152716308366507,-0.00610865233466029,0.00122173049021512
5,1.00972225967599,-0.162500009973726,0.123611110178398,-0.000305432622553781,0.0045814891345799,-0.000305432622553781
5,1.01388893532575,-0.169444445078067,0.1194444466846,0.00305432616733015,-0.00610865233466029,0.00397062394768
5,1.01527782720901,-0.168055565350778,0.125000002061652,0.00977384392172098,0.00946841109544039,-0.00397062394768
5,1.01111115155925,-0.166666673467524,0.116666675074056,0.00305432616733015,0.0113010071218014,-0.00366519158706069
5,1.00972225967599,-0.163888889701015,0.120833338567854,-0.00305432616733015,0.0152716310694814,-0.0021380283869803
5,1.00972225967599,-0.163888889701015,0.120833338567854,-0.00824668072164059,0.0103847095742822,-0.00549778714776039
5,1.00972225967599,-0.166666673467524,0.130555557438704,0.0027488935738802,0.00855211354792118,-0.00397062394768
5,1.00972225967599,-0.166666673467524,0.130555557438704,0.0152716310694814,0.00946841109544039,0.00427605677396059
5,1.00972225967599,-0.166666673467524,0.130555557438704,0.00977384392172098,0.00702495034784079,-0.0027488935738802
5,1.00972225967599,-0.16527778158427,0.123611110178398,0.000305432622553781,0.01191187184304,0.00580321997404099
5,1.0125000434425,-0.169444445078067,0.12777778582816,-0.00855211354792118,0.0219911485910416,0.0033597587607801
5,1.0125000434425,-0.169444445078067,0.12777778582816,-0.00122173049021512,0.0201585534960032,0.00702495034784079
5,1.01111115155925,-0.169444445078067,0.130555557438704,0.00763581553474069,0.0171042270958424,0.00580321997404099
5,1.0125000434425,-0.169444445078067,0.126388893944906,0.00916297826915979,0.0146607663482428,0.00519235478714108
5,1.0125000434425,-0.169444445078067,0.126388893944906,0.00855211354792118,0.0103847095742822,0.00763581553474069
5,1.0125000434425,-0.161111118090472,0.12916666555545,-0.000916297896765172,0.00885754637420177,0.00641408516094089
5,1.01111115155925,-0.163888889701015,0.131944449321958,-0.00641408516094089,-0.0027488935738802,0.0125227374956012
5,1.0125000434425,-0.170833336961321,0.130555557438704,0.000610865245107561,-0.000610865245107561,-0.00519235478714108
5,1.0125000434425,-0.170833336961321,0.12777778582816,0.0027488935738802,0.00702495034784079,-0.000305432622553781
5,1.01388893532575,-0.166666673467524,0.134722233088466,0.0033597587607801,0.0106901414692402,0.00580321997404099
5,1.01388893532575,-0.166666673467524,0.133333341205212,0.00397062394768,0.00763581553474069,-0.00244346098043024
5,1.01111115155925,-0.163888889701015,0.12777778582816,-0.000916297896765172,0.00733038317412138,-0.00610865233466029
5,1.0125000434425,-0.163888889701015,0.12777778582816,0.000916297896765172,0.0109955742955208,0.00397062394768
5,1.01111115155925,-0.166666673467524,0.120833338567854,0.000610865245107561,0.00824668072164059,0.00885754637420177
5,1.0125000434425,-0.172222228844576,0.118055554801345,-0.000916297896765172,0.0232128798961639,0.00671951752156019
5,1.00833336779274,-0.166666673467524,0.131944449321958,0.00946841109544039,0.0122173046693206,-0.0027488935738802
5,1.0125000434425,-0.170833336961321,0.130555557438704,0.01191187184304,-0.00549778714776039,0.000305432622553781
5,1.00555558402623,-0.166666673467524,0.133333341205212,0.00855211354792118,-0.0033597587607801,-0.00397062394768
5,1.0125000434425,-0.170833336961321,0.133333341205212,0.00397062394768,0.000305432622553781,-0.00397062394768
5,1.0125000434425,-0.166666673467524,0.130555557438704,0.00763581553474069,0.0033597587607801,0.00733038317412138
5,1.0125000434425,-0.166666673467524,0.130555557438704,0.00763581553474069,0.0033597587607801,0.00733038317412138
5,1.01111115155925,-0.172222228844576,0.134722233088466,-0.0103847095742822,0.00488692196086049,-0.00794124789535999
5,1.0125000434425,-0.170833336961321,0.133333341205212,0.00152716308366507,-0.00122173049021512,-0.00794124789535999
5,1.01388893532575,-0.168055565350778,0.131944449321958,0.00366519158706069,0.00733038317412138,-0.00610865233466029
5,1.01111115155925,-0.16527778158427,0.12777778582816,0.00122173049021512,0.00855211354792118,0.00427605677396059
5,1.01111115155925,-0.168055565350778,0.123611110178398,-0.000305432622553781,0.0146607663482428,-0.000610865245107561
5,1.01527782720901,-0.168055565350778,0.134722233088466,-0.00122173049021512,0.0171042270958424,-0.00671951752156019
5,1.00694447590948,-0.170833336961321,0.130555557438704,-0.00244346098043024,0.00977384392172098,-0.00549778714776039
5,1.00277780025972,-0.170833336961321,0.140277788465518,0.0122173046693206,0.00641408516094089,-0.00549778714776039
5,1.00833336779274,-0.169444445078067,0.141666668192807,0.0131336031481624,0.00397062394768,0.00397062394768
5,1.00972225967599,-0.166666673467524,0.131944449321958,0.0100792767480016,0.0021380283869803,-0.00244346098043024
5,1.00972225967599,-0.169444445078067,0.134722233088466,0.00885754637420177,0.0021380283869803,-0.00152716308366507
5,1.00972225967599,-0.163888889701015,0.12916666555545,0.0125227374956012,0.00794124789535999,0.00855211354792118
5,1.00694447590948,-0.166666673467524,0.126388893944906,0.0171042270958424,0.00366519158706069,0.00152716308366507
5,1.00972225967599,-0.166666673467524,0.125000002061652,0.0152716310694814,-0.00183259579353034,0.000610865245107561
5,1.00833336779274,-0.166666673467524,0.134722233088466,0.0183259565383196,-0.0033597587607801,-0.00152716308366507
5,1.0125000434425,-0.163888889701015,0.12777778582816,0.015577063895762,-0.0134390350431204,0.00152716308366507
5,1.01388893532575,-0.170833336961321,0.12777778582816,0.0106901414692402,-0.00702495034784079,0.00702495034784079
5,1.01388893532575,-0.170833336961321,0.12777778582816,0.0161879286170006,0.00305432616733015,-0.0021380283869803
5,1.00833336779274,-0.161111118090472,0.1194444466846,0.00946841109544039,-0.00122173049021512,-0.00580321997404099
5,1.00833336779274,-0.156944454596674,0.130555557438704,0.013744467869401,0.00152716308366507,-0.00519235478714108
5,1.00833336779274,-0.156944454596674,0.130555557438704,-0.00152716308366507,0.00152716308366507,-0.00488692196086049
5,1.00972225967599,-0.162500009973726,0.130555557438704,0.0106901414692402,-0.00152716308366507,-0.00183259579353034
5,1.01111115155925,-0.169444445078067,0.126388893944906,0.015577063895762,-0.00702495034784079,0.000916297896765172
5,1.01111115155925,-0.169444445078067,0.126388893944906,0.00946841109544039,-0.00397062394768,0.0027488935738802
5,1.0125000434425,-0.16527778158427,0.118055554801345,0.00794124789535999,-0.00794124789535999,-0.000610865245107561
5,1.01388893532575,-0.168055565350778,0.13750000469901,0.0033597587607801,0.000916297896765172,0.0021380283869803
5,1.01388893532575,-0.168055565350778,0.13750000469901,0.0033597587607801,0.0033597587607801,0.00733038317412138
5,1.0125000434425,-0.169444445078067,0.130555557438704,-0.000916297896765172,0.00427605677396059,0.000610865245107561
5,1.0125000434425,-0.166666673467524,0.131944449321958,0.000305432622553781,0.0027488935738802,-0.00733038317412138
5,1.0125000434425,-0.170833336961321,0.12777778582816,0.0045814891345799,-0.00549778714776039,0.00244346098043024
5,1.0125000434425,-0.170833336961321,0.12777778582816,0.00641408516094089,-0.000305432622553781,0.0045814891345799
5,1.00555558402623,-0.16527778158427,0.134722233088466,0.00549778714776039,-0.011606439948082,0.0106901414692402
5,1.00833336779274,-0.163888889701015,0.136111112815755,-0.00488692196086049,-0.000916297896765172,0.00885754637420177
5,1.00833336779274,-0.163888889701015,0.136111112815755,-0.000916297896765172,-0.00397062394768,0.00702495034784079
5,1.0125000434425,-0.163888889701015,0.136111112815755,0.00549778714776039,-0.00488692196086049,0.00671951752156019
5,1.0125000434425,-0.166666673467524,0.130555557438704,0.0106901414692402,-0.00671951752156019,0.0027488935738802
5,1.01111115155925,-0.168055565350778,0.130555557438704,0.00702495034784079,-0.00122173049021512,-0.0021380283869803
5,1.00694447590948,-0.168055565350778,0.126388893944906,0.01191187184304,-0.0027488935738802,-0.0021380283869803
5,1.00833336779274,-0.163888889701015,0.130555557438704,0.00977384392172098,0.00427605677396059,-0.0103847095742822
5,1.01388893532575,-0.161111118090472,0.125000002061652,0.011606439948082,0.00702495034784079,-0.00580321997404099
5,1.01805561097552,-0.168055565350778,0.133333341205212,0.0027488935738802,0.00671951752156019,-0.00183259579353034
5,1.01388893532575,-0.163888889701015,0.12777778582816,0.015577063895762,0.00488692196086049,0.00152716308366507
5,1.0125000434425,-0.163888889701015,0.134722233088466,0.013744467869401,-0.00610865233466029,0.0021380283869803
5,1.00972225967599,-0.166666673467524,0.130555557438704,0.0100792767480016,-0.0109955742955208,0.00519235478714108
5,1.00833336779274,-0.163888889701015,0.134722233088466,0.00488692196086049,-0.00427605677396059,0.00488692196086049
5,1.0125000434425,-0.172222228844576,0.133333341205212,0.00519235478714108,-0.000610865245107561,-0.0027488935738802
5,1.00972225967599,-0.166666673467524,0.133333341205212,0.00610865233466029,-0.00610865233466029,-0.00488692196086049
5,1.0125000434425,-0.163888889701015,0.12777778582816,0.0113010071218014,0.000305432622553781,0.00763581553474069
5,1.0125000434425,-0.16527778158427,0.123611110178398,0.0109955742955208,-0.0027488935738802,-0.00122173049021512
5,1.0125000434425,-0.168055565350778,0.118055554801345,0.0140499006956816,-0.0103847095742822,-0.00122173049021512
5,1.01111115155925,-0.16527778158427,0.122222230451108,0.00763581553474069,-0.00366519158706069,0.00549778714776039
5,1.01388893532575,-0.169444445078067,0.116666675074056,0.0125227374956012,-0.00122173049021512,0.000916297896765172
5,1.0125000434425,-0.163888889701015,0.12777778582816,0.013744467869401,-0.0027488935738802,-0.00305432616733015
5,1.0125000434425,-0.166666673467524,0.140277788465518,0.00946841109544039,-0.00671951752156019,-0.00488692196086049
5,1.00972225967599,-0.163888889701015,0.1194444466846,0.01588249579072,-0.0045814891345799,-0.000916297896765172
5,1.01111115155925,-0.170833336961321,0.120833338567854,0.0100792767480016,-0.00427605677396059,0.00152716308366507
5,1.01111115155925,-0.163888889701015,0.126388893944906,0.00549778714776039,-0.00641408516094089,0.0027488935738802
5,1.0125000434425,-0.159722226207217,0.133333341205212,0.0125227374956012,-0.00794124789535999,0.00916297826915979
5,1.00972225967599,-0.162500009973726,0.125000002061652,0.00366519158706069,-0.00702495034784079,0.00885754637420177
5,1.0125000434425,-0.159722226207217,0.12777778582816,0.000610865245107561,-0.015577063895762,-0.00183259579353034
5,1.0125000434425,-0.163888889701015,0.12916666555545,0.000916297896765172,-0.01191187184304,0.00427605677396059
5,1.0125000434425,-0.16527778158427,0.130555557438704,0.00305432616733015,-0.01191187184304,-0.00702495034784079
5,1.0125000434425,-0.169444445078067,0.131944449321958,0.00183259579353034,-0.00733038317412138,-0.00488692196086049
5,1.01388893532575,-0.170833336961321,0.131944449321958,0.00183259579353034,-0.0113010071218014,-0.00549778714776039
5,1.01666671909226,-0.168055565350778,0.125000002061652,0.00122173049021512,-0.0131336031481624,-0.00305432616733015
5,1.00694447590948,-0.169444445078067,0.12777778582816,0.000305432622553781,-0.013744467869401,0.00977384392172098
5,1.00555558402623,-0.169444445078067,0.130555557438704,-0.00366519158706069,-0.0113010071218014,0.00519235478714108
5,1.00972225967599,-0.172222228844576,0.140277788465518,0.0033597587607801,-0.00702495034784079,-0.000610865245107561
5,1.0125000434425,-0.166666673467524,0.122222230451108,0.0027488935738802,-0.00763581553474069,-0.0027488935738802
5,1.0125000434425,-0.175000000455119,0.125000002061652,0.0021380283869803,-0.00855211354792118,0.00916297826915979
5,1.0125000434425,-0.169444445078067,0.12777778582816,0.00549778714776039,-0.00183259579353034,0.00122173049021512
5,1.00833336779274,-0.166666673467524,0.120833338567854,0.00488692196086049,-0.00488692196086049,-0.0033597587607801
5,1.00833336779274,-0.163888889701015,0.130555557438704,0.00946841109544039,-0.000610865245107561,-0.00549778714776039
5,1.01527782720901,-0.166666673467524,0.125000002061652,0.013744467869401,-0.0103847095742822,-0.0180205255746841
5,1.01111115155925,-0.166666673467524,0.125000002061652,0.0128281703218818,-0.00397062394768,-0.00946841109544039
5,1.00972225967599,-0.168055565350778,0.125000002061652,0.015577063895762,-0.00488692196086049,0.00122173049021512
5,1.00972225967599,-0.16527778158427,0.12777778582816,0.00824668072164059,-0.00794124789535999,0.000305432622553781
5,1.01388893532575,-0.16527778158427,0.131944449321958,0.00763581553474069,-0.00977384392172098,-0.00122173049021512
5,1.01111115155925,-0.162500009973726,0.120833338567854,0.00916297826915979,-0.000305432622553781,-0.00763581553474069
5,1.01527782720901,-0.169444445078067,0.118055554801345,0.0106901414692402,-0.00183259579353034,0.00122173049021512
5,1.0125000434425,-0.168055565350778,0.130555557438704,0.0161879286170006,-0.00152716308366507,0.013744467869401
5,1.00972225967599,-0.17361112072783,0.12777778582816,0.0222965814173222,0.00122173049021512,0.00855211354792118
5,1.00972225967599,-0.179166676104882,0.116666675074056,0.0345138870179653,-0.0134390350431204,0.0103847095742822
5,1.00972225967599,-0.17361112072783,0.12916666555545,0.0320704244077206,-0.0152716310694814,-0.00122173049021512
5,1.01527782720901,-0.163888889701015,0.125000002061652,0.0256563406437635,-0.00885754637420177,-0.000916297896765172
5,1.0125000434425,-0.158333334323963,0.12777778582816,0.0253509078174829,-0.00244346098043024,0.00366519158706069
5,1.00972225967599,-0.162500009973726,0.12777778582816,0.0180205255746841,0.000916297896765172,0.00671951752156019
5,1.0125000434425,-0.168055565350778,0.118055554801345,0.00610865233466029,-0.0027488935738802,0.0021380283869803
5,1.01944450285877,-0.163888889701015,0.123611110178398,0.00733038317412138,0.00152716308366507,-0.000610865245107561
5,1.01388893532575,-0.163888889701015,0.1194444466846,0.00763581553474069,0.0027488935738802,0.00244346098043024
5,1.0125000434425,-0.161111118090472,0.1194444466846,0.000305432622553781,-0.00152716308366507,-0.00885754637420177
5,1.01388893532575,-0.161111118090472,0.125000002061652,-0.00916297826915979,0.00641408516094089,-0.00641408516094089
5,1.01527782720901,-0.159722226207217,0.118055554801345,-0.0131336031481624,0.00549778714776039,-0.000610865245107561
5,1.01111115155925,-0.163888889701015,0.122222230451108,-0.0171042270958424,0.0149661982432008,-0.000305432622553781
