Activity,acc_x,acc_y,acc_z,gyro_x,gyro_y,gyro_z
0,0.116666675074056,0.375000006184955,0.927777833059431,-0.0519235469400883,-0.0183259565383196,-0.0247400421649218
0,0.104166672436698,0.384722225055805,0.934722292475701,0.00702495034784079,0.0488692186772823,0.0339030213654041
0,0.116666675074056,0.375000006184955,0.940277860008718,0.0736092627048492,-0.0610865242779255,-0.0183259565383196
0,0.116666675074056,0.375000006184955,0.940277860008718,0.0519235469400883,-0.0861319974064827,-0.0305432621389627
0,0.126388893944906,0.354166676560001,0.940277860008718,0.0577267669141293,-0.0965167060494423,0.01588249579072
0,0.126388893944906,0.354166676560001,0.940277860008718,0.0665843114256859,-0.0925460830330849,0.0253509078174829
0,0.112499999424294,0.366666679197359,0.911111130460381,0.116675265133381,-0.0360410511493683,0.0287106670439243
0,0.125000002061652,0.358333352209763,0.888888957576031,0.16401731967926,0.0873537287116051,0.0384845100343227
0,0.113888891307548,0.363888895430851,0.901388887277602,0.0809396430850029,0.0956004112958908,0.0998764708638191
0,0.112499999424294,0.354166676560001,0.92083337364316,-0.00610865233466029,-0.0577267669141293,0.128892570734024
0,0.12777778582816,0.329166671285285,0.925000049292922,-0.106290549039841,-0.0974330082535744,0.0033597587607801
0,0.12777778582816,0.325000019947452,0.929166724942685,-0.0693332031369209,-0.101403631269932,-0.00977384392172098
0,0.126388893944906,0.336111130701556,0.931944508709193,0.0763581544160843,0.00366519158706069,-0.0299323964864016
0,0.126388893944906,0.336111130701556,0.931944508709193,0.111482910811901,0.0427605658769607,-0.0448985956609249
0,0.126388893944906,0.336111130701556,0.931944508709193,0.256257981061935,0.192422553896904,-0.0580321997404099
0,0.0972222251763917,0.387500008822313,0.926388941176177,0.126449108123779,0.0864374339580536,-0.0763581544160843
0,0.0972222251763917,0.387500008822313,0.926388941176177,0.105068825185299,0.10048733651638,-0.0708603709936142
0,0.0916666697993398,0.400000011459671,0.922222265526414,0.140193566679955,0.0928515195846558,0.000610865245107561
0,0.0916666697993398,0.387500008822313,0.890277849459286,0.0485637858510017,0.0357356183230877,-0.0387899428606033
0,0.0916666697993398,0.387500008822313,0.890277849459286,-0.0436768643558025,-0.0021380283869803,-0.0745255574584007
0,0.116666675074056,0.380555573717971,0.895833319744586,-0.0421497002243996,0.116675265133381,-0.0659734457731247
0,0.0944444474878658,0.404166687109433,0.886111173809523,-0.0354301854968071,0.153021737933159,0.0149661982432008
0,0.0680555564078778,0.426388884305712,0.902777779160856,0.0390953756868839,0.162490159273148,0.0433714315295219
0,0.0722222259796579,0.423611149163062,0.92083337364316,0.0729983970522881,0.163101017475128,0.00885754637420177
0,0.0722222259796579,0.423611149163062,0.92083337364316,0.138360977172852,0.163101017475128,-0.0452040284872055
0,0.0402777795226179,0.447222262554524,0.888888957576031,0.0412334054708481,0.0824668109416962,-0.00641408516094089
0,0.0402777795226179,0.447222262554524,0.888888957576031,-0.0122173046693206,0.0580321997404099,-0.000305432622553781
0,0.0208333341834404,0.462500024646461,0.879166714393253,-0.0543670058250427,0.21685716509819,0.137750118970871
0,0.026388891079988,0.452777781463682,0.89722221162784,-0.0152716310694814,0.290771842002869,0.187841057777405
0,0.0375000018340919,0.424999992422458,0.930555616825939,-0.0464257597923279,0.221133217215538,0.162490159273148
0,0.0458333348996699,0.409722230330521,0.938888968125464,0.00488692196086049,0.0778853222727776,0.0726929605007172
0,0.029166668768514,0.420833365396554,0.913888914226889,0.0910189226269722,0.111482910811901,0.0558941699564457
0,0.0236111118719664,0.440277803138253,0.880555606276507,0.137750118970871,0.197614908218384,0.120340451598167
0,0.0458333348996699,0.412500014097029,0.873611146860236,0.118813291192055,0.289244681596756,0.152410879731178
0,0.0388888906783549,0.401388903342925,0.873611146860236,-0.0494800843298435,0.297185927629471,0.0998764708638191
0,0.0125000003581147,0.416666689746791,0.894444525109048,-0.255036234855652,0.182037845253944,0.0739146918058395
0,0.00833333382532574,0.420833365396554,0.901388887277602,-0.228158175945282,0.177761793136597,0.0867428630590439
0,0.026388891079988,0.398611119576417,0.930555616825939,0.112093769013882,0.2165517359972,-0.0952949747443199
0,0.0152777788063885,0.411111122213775,0.94305554652751,0.390342891216278,0.16890424489975,-0.0656680166721344
0,0.0194444453391775,0.411111122213775,0.89722221162784,0.415082931518555,0.21135938167572,-0.0513126812875271
0,0.00555555575692586,0.413888905980283,0.852777768611424,0.453567445278168,0.394924372434616,0.0678060427308083
0,0.0125000003581147,0.416666689746791,0.865277795560711,0.324980318546295,0.450207680463791,0.272445887327194
0,0.0125000003581147,0.423611149163062,0.881944498159761,0.229074463248253,0.260839462280273,0.23304508626461
0,-0.0125000003581147,0.459722240879953,0.87500003874349,0.172263994812965,0.115453533828259,0.38576140999794
0,-0.0569444456537738,0.54027777561326,0.872222254976982,-0.0824668109416962,0.138666406273842,0.169820532202721
0,-0.0416666683668809,0.511111143312639,0.890277849459286,-0.125227376818657,0.0946841165423393,0.315206468105316
0,-0.0152777788063885,0.497222224480098,0.916666697993398,0.0360410511493683,0.131641462445259,0.401949346065521
0,-0.029166668768514,0.466666700296224,0.92083337364316,0.226325571537018,0.127670839428902,0.983798503875732
0,-0.029166668768514,0.466666700296224,0.92083337364316,0.327729195356369,0.0342084541916847,0.996321201324463
0,-0.0194444453391775,0.522222229754814,0.894444525109048,0.219606056809425,-0.0131336031481624,0.906829476356506
0,-0.0194444453391775,0.558333370095563,0.85138887672817,0.0714712366461754,-0.0833831056952477,1.0812314748764
0,0.0194444453391775,0.556944478212309,0.812500049868629,0.117591559886932,-0.0235183127224445,1.08917272090912
0,0.029166668768514,0.525000013521323,0.780555585177642,-0.064446285367012,0.16920967400074,1.18019163608551
0,0.0416666683668809,0.577777807837263,0.788888936477167,-0.517708301544189,0.111482910811901,1.21042943000794
0,0.0652777787193518,0.655555558804062,0.843055622676362,-0.784656405448914,0.185703039169311,1.07359564304352
0,0.0388888906783549,0.598611137462217,0.834722271376837,-0.797789990901947,0.212275668978691,0.926682591438293
0,0.0777777813567098,0.531944472937593,0.848611190209378,-0.594371855258942,0.162490159273148,0.806342124938965
0,0.0416666683668809,0.53750004047061,0.869444471210474,-0.144469633698463,-0.149661988019943,0.879035115242004
0,0.0416666683668809,0.53750004047061,0.869444471210474,-0.0259617734700441,-0.615446746349335,1.11024761199951
0,0.0138888899621255,0.598611137462217,0.872222254976982,-0.129197999835014,-0.930347740650177,1.34604156017303
0,0.18333333959868,0.513888927079148,0.797222239152834,-0.153021737933159,-0.835663676261902,1.26632368564606
0,0.18333333959868,0.513888927079148,0.797222239152834,-0.170736834406853,-0.331394404172897,1.16064393520355
0,0.151388899219622,0.558333370095563,0.788888936477167,-0.0827722400426865,-0.613308727741241,1.26754534244537
0,0.136111112815755,0.611111115787646,0.87500003874349,0.0907134860754013,-0.868039488792419,1.44225287437439
0,0.170833336961321,0.551388910679293,0.901388887277602,0.189673662185669,-1.17194497585297,1.69820535182953
0,0.216666671860991,0.572222240304247,0.820833352544296,0.00488692196086049,-1.35367739200592,1.65910995006561
0,0.263888898643915,0.568055564654484,0.734722250277972,-0.150578290224075,-1.3478741645813,1.56045532226563
0,0.312500017310094,0.525000013521323,0.700000001820477,-0.191506251692772,-1.03144598007202,1.43736588954925
0,0.384722225055805,0.479166678621653,0.881944498159761,-0.0772744566202164,-0.665537655353546,1.50578284263611
0,0.384722225055805,0.456944457113445,0.919444481759906,0.0736092627048492,-0.716239511966705,1.75654304027557
0,0.361111135976272,0.469444484062732,0.818055568777787,-0.0968221426010132,-1.18171882629395,1.82557082176208
0,0.493055597454194,0.506944467662877,0.830555595727074,-0.198836639523506,-1.24311077594757,1.49997961521149
0,0.466666700296224,0.486111138037923,0.883333390043015,0.015577063895762,-1.21042943000794,1.56656396389008
0,0.434722235605237,0.437500019371745,0.947222222177272,0.24312436580658,-1.04213607311249,1.62917757034302
0,0.551388910679293,0.319444452414435,0.85138887672817,-0.0100792767480016,-0.937372744083405,1.67621421813965
0,0.697222266677827,0.200000005729836,0.781944477060896,-0.114537231624126,-0.855516791343689,1.50211763381958
0,0.865277795560711,0.14583334384257,0.877777822509998,-0.0635299831628799,-0.228463605046272,0.887892663478851
0,0.826388920077312,0.13750000469901,1.02500007039179,0.62308257818222,0.416610091924667,0.630107522010803
0,0.622222250853679,0.0819444448505077,1.20277784245745,1.07939887046814,0.290771842002869,0.813977956771851
0,0.519444445988306,0.0666666706026059,1.06805562152495,1.09131073951721,-0.117286130785942,1.22447943687439
0,0.512500035195893,0.0708333340964038,0.983333411141879,0.945008516311646,-0.255036234855652,1.3335188627243
0,0.554166694445801,0.0375000018340919,0.791666671619817,0.743117570877075,-0.444709897041321,1.23608577251434
0,0.604166704995233,0.0375000018340919,0.645833364245141,0.537866830825806,-0.307265222072601,1.01770150661469
0,0.587500002396184,-0.00972222266958873,0.630555602153203,0.605367481708527,0.0616973899304867,0.676533281803131
0,0.562499997121468,-0.03194444645704,0.733333358394718,0.723569869995117,-0.0403171069920063,0.750142514705658
0,0.483333354271415,0.0194444453391775,0.763888931202451,0.436157792806625,-0.655763864517212,1.01953411102295
0,0.512500035195893,0.0472222237439329,0.805555590452358,0.257785141468048,-1.17133414745331,1.11879968643188
0,0.666666693870094,0.0250000007162294,0.812500049868629,0.292909890413284,-1.2400563955307,1.15270268917084
0,0.702777785586986,-0.033333335301303,0.733333358394718,0.272445887327194,-1.28067898750305,1.41506934165955
0,0.743055601577497,0.00972222266958873,0.644444472361887,0.131946891546249,-1.02350473403931,1.29808866977692
0,0.745833336720147,0.0347222241455659,0.568055564654484,-0.0708603709936142,-0.545502662658691,0.997848391532898
0,0.763888931202451,0.026388891079988,0.558333370095563,0.19058994948864,-0.559858024120331,0.74647730588913
0,0.683333347845286,0.0541666679652478,0.670833369519857,0.907745778560638,-0.684169054031372,0.733343720436096
0,0.637500012945616,0.0361111129898289,0.598611137462217,1.21042943000794,-0.251981914043427,0.72906768321991
0,0.729166682744956,0.0680555564078778,0.426388884305712,0.775493443012238,-0.251065611839294,0.952644348144531
0,0.791666671619817,0.0902777839940679,0.426388884305712,0.129503428936005,-0.462424993515015,0.723875343799591
0,0.861111119910949,0.118055554801345,0.545833343146276,-0.554971098899841,-0.405003666877747,0.535423398017883
0,0.834722271376837,0.123611110178398,0.620833358970425,-0.461814135313034,-0.288328409194946,0.504880130290985
0,0.794444455386325,0.105555564319952,0.679166672195524,-0.0229074470698834,-0.259923160076141,0.643546521663666
0,0.726388898978447,0.0597222233422998,0.531944472937593,0.493884563446045,-0.53969943523407,0.74464476108551
0,0.716666704419527,0.0583333375370279,0.508333359546131,0.699746131896973,-0.734870910644531,0.883005738258362
0,0.726388898978447,0.112499999424294,0.476388894855144,0.490524798631668,-0.916297852993011,0.955087780952454
0,0.818055568777787,0.131944449321958,0.430555559955475,0.0623082555830479,-0.822530031204224,0.826195240020752
0,0.941666654644256,0.0361111129898289,0.387500008822313,-0.269391566514969,-0.506407260894775,0.476169466972351
0,0.941666654644256,0.0361111129898289,0.387500008822313,-0.308181524276733,-0.665537655353546,0.456927210092545
0,0.991666665193688,-0.0569444456537738,0.447222262554524,-0.346360594034195,-0.460897833108902,0.374154955148697
0,0.912500022343635,-0.0416666683668809,0.522222229754814,-0.432798027992248,0.0980438739061356,0.34941491484642
0,0.879166714393253,-0.0194444453391775,0.590277786162692,-0.104763388633728,0.116980694234371,0.35491269826889
0,0.959722249126559,-0.0722222259796579,0.719444488186035,0.665537655353546,-0.383623361587524,0.457843512296677
0,0.963888924776322,-0.0986111170596459,0.743055601577497,1.15148103237152,-0.919046759605408,1.04183065891266
0,1.13750002119222,-0.0500000014324589,0.709722245003256,1.52594137191773,-0.254730820655823,0.921795666217804
0,1.18750003174166,0.00972222266958873,0.691666699144811,1.63559174537659,0.230601623654366,0.64079761505127
0,0.990277773310434,0.0819444448505077,0.623611142736933,1.3213015794754,0.0277943685650826,0.71318519115448
0,0.954166681593543,0.125000002061652,0.548611126912784,0.571464419364929,-0.15332718193531,0.682336449623108
0,0.893055633225794,0.108333335930496,0.590277786162692,-0.326812893152237,-0.144469633698463,0.80481493473053
0,0.797222239152834,0.0583333375370279,0.745833336720147,-0.662483334541321,-0.305432617664337,1.04793930053711
0,0.772222233878117,0.0416666683668809,0.859722228027695,-0.658512711524963,-0.211053937673569,1.20065569877624
0,0.762500039319197,0.0416666683668809,0.87500003874349,-0.497244298458099,-0.223271250724793,1.27090513706207
0,0.726388898978447,-0.0805555590452358,0.840277838909853,0.166766211390495,-0.319482535123825,1.36742186546326
0,0.693055591028065,-0.169444445078067,0.755555579902926,0.992656052112579,-0.603534877300262,1.28953647613525
0,0.675000045169619,-0.231944458264858,0.538888932353864,1.41842913627624,-0.581238269805908,1.10169541835785
0,0.700000001820477,-0.24583335278547,0.318055560531181,1.1578950881958,-0.29657506942749,0.97371917963028
0,0.713888920653019,-0.256944463539574,0.197222234119292,0.744033873081207,-0.120645888149738,0.870482981204987
0,0.709722245003256,-0.266666682410424,0.180555567988136,0.2379320114851,-0.197920337319374,0.916297852993011
0,0.677777780312269,-0.286111120152123,0.248611112240049,-0.106595985591412,-0.457232624292374,1.15911674499512
0,0.683333347845286,-0.24583335278547,0.305555557893823,0.0140499006956816,-0.259312301874161,0.932180345058441
0,0.768055606852213,-0.193055558469529,0.42916666807222,0.216246291995048,-0.131946891546249,0.515570282936096
0,0.762500039319197,-0.156944454596674,0.456944457113445,0.21685716509819,0.0219911485910416,0.373544096946716
0,0.670833369519857,-0.154166670830166,0.418055581630046,0.0998764708638191,0.138971850275993,0.43860125541687
0,0.679166672195524,-0.247222220356795,0.42916666807222,0.124311074614525,-0.23823744058609,0.690888583660126
0,0.731944466511464,-0.223611131277262,0.454166673346937,0.0995710343122482,-0.376598417758942,0.625526010990143
0,0.89166674134254,-0.205555561106887,0.47500000297189,-0.0122173046693206,-0.237626582384109,0.221133217215538
0,0.99583334084345,-0.205555561106887,0.462500024646461,-0.48685958981514,0.0769690200686455,-0.376293003559113
0,0.87500003874349,-0.258333331110899,0.556944478212309,-0.775798857212067,-0.011606439948082,-0.341779112815857
0,0.788888936477167,-0.277777793164528,0.693055591028065,-0.691193997859955,-0.249538451433182,-0.102930791676045
0,0.825000028194058,-0.272222225631511,0.790277828360421,-0.0946841165423393,-0.276111096143722,0.209526777267456
0,0.929166724942685,-0.345833349572405,0.781944477060896,0.476780325174332,0.0806342139840126,0.109650313854218
0,0.923611157409668,-0.319444452414435,0.670833369519857,0.561996042728424,0.241902634501457,-0.122478485107422
0,0.837500055143345,-0.327777779402031,0.611111115787646,0.0592539273202419,0.38117989897728,0.0473420582711697
0,0.86805557932722,-0.295833339022973,0.738888925927735,-0.191506251692772,0.188146501779556,-0.0320704244077206
0,0.972222276075846,-0.354166676560001,0.825000028194058,-0.0412334054708481,0.288328409194946,-0.364381104707718
0,1.05833337834217,-0.359722244093018,0.729166682744956,0.0507018156349659,0.471893399953842,-0.912632703781128
0,0.808333374218867,-0.33750002258481,0.708333353120002,-0.0992656052112579,0.59162300825119,-1.05771315097809
0,0.644444472361887,-0.272222225631511,0.715277812536273,-0.188146501779556,0.60261857509613,-0.711963415145874
0,0.644444472361887,-0.272222225631511,0.715277812536273,-0.125532805919647,0.289550125598908,-0.384539663791656
0,0.683333347845286,-0.24583335278547,0.672222261403111,0.00794124789535999,0.125227376818657,-0.191506251692772
0,0.683333347845286,-0.24583335278547,0.672222261403111,0.213497400283814,0.31154128909111,-0.358883321285248
0,0.758333363669434,-0.177777784221628,0.526388905404577,0.289855569601059,0.458759784698486,-0.515875697135925
0,0.758333363669434,-0.177777784221628,0.526388905404577,0.281914323568344,0.458454370498657,-0.54428094625473
0,0.690277807261557,-0.131944449321958,0.569444456537738,0.605062007904053,0.00946841109544039,-0.34880405664444
0,0.791666671619817,-0.111111119697004,0.533333364820847,0.757472932338715,-0.270918726921081,-0.542142927646637
0,0.609722223904392,-0.102777780553444,0.473611111088636,0.370184332132339,-0.410501450300217,-0.460897833108902
0,0.594444461812454,-0.03194444645704,0.384722225055805,-0.01191187184304,0.0549778714776039,-0.363464832305908
0,0.71111113688651,-0.0625000010308258,0.523611121638068,0.0531452745199203,0.400422155857086,-0.540004849433899
0,0.855555552377932,-0.143055560076062,0.663888910103586,0.91507613658905,1.33199167251587,-0.204945296049118
0,0.855555552377932,-0.143055560076062,0.663888910103586,0.904691457748413,2.11512088775635,-0.445320755243301
0,0.654166666920807,-0.101388894748172,0.516666662221798,0.157297804951668,0.726013362407684,-0.386372268199921
0,0.562499997121468,-0.104166672436698,0.601388921228725,0.138055548071861,-0.937983572483063,-0.164933621883392
0,0.666666693870094,-0.130555557438704,0.697222266677827,0.34880405664444,-1.05465888977051,-0.136833816766739
0,0.75694447178618,-0.13750000469901,0.729166682744956,0.547640681266785,-0.44959682226181,-0.058643065392971
0,0.769444450111609,-0.0777777813567098,0.673611153286365,0.309403240680695,-0.304821759462357,0.0971275717020035
0,0.823611136310804,-0.00555555575692586,0.58611111051293,0.122173048555851,-0.440128415822983,-0.0931569486856461
0,0.825000028194058,-0.0625000010308258,0.625000034620187,0.256868839263916,-0.515570282936096,0.0711658000946045
0,0.872222254976982,-0.0819444448505077,0.676388937052873,0.278249114751816,-0.389426589012146,-0.00305432616733015
0,0.936111184358955,-0.0361111129898289,0.740277817810989,-0.0207694191485643,0.16371189057827,0.178678080439568
0,0.956944465360051,-0.0750000036681839,0.779166693294388,0.0271835029125214,0.66737025976181,0.35979962348938
0,0.854166660494678,-0.0152777788063885,0.788888936477167,0.491746515035629,1.20554256439209,0.233961388468742
0,0.705555569353494,0.0208333341834404,0.762500039319197,0.490219354629517,0.903164267539978,0.151800006628036
0,0.705555569353494,0.0208333341834404,0.762500039319197,0.144469633698463,0.286190360784531,0.397978693246841
0,0.795833347269579,-0.00416666691266287,0.759722255552688,0.0507018156349659,0.165544480085373,0.50335294008255
0,0.786111152710659,-0.00694444498106275,0.781944477060896,0.0253509078174829,0.270918726921081,0.333532422780991
0,0.786111152710659,-0.00694444498106275,0.781944477060896,0.0177150927484035,0.313068449497223,0.331088960170746
0,0.70416667747024,-0.00555555575692586,0.791666671619817,-0.04764748737216,0.0247400421649218,0.48197266459465
0,0.736111142161226,0.0152777788063885,0.797222239152834,-0.175318330526352,-0.583987176418304,0.660345315933228
0,0.736111142161226,0.0152777788063885,0.797222239152834,-0.0455094613134861,-0.702495038509369,0.745866477489471
0,0.795833347269579,-0.0819444448505077,0.837500055143345,0.463341295719147,-0.846964657306671,0.387593984603882
0,0.752777796136418,0.03194444645704,0.766666714968959,0.772439122200012,-0.680198431015015,0.271224170923233
0,0.752777796136418,0.03194444645704,0.766666714968959,0.75594574213028,-0.405003666877747,0.159741267561913
0,0.733333358394718,0.0430555572111439,0.666666693870094,0.651487767696381,-0.377514719963074,0.0610865242779255
0,0.719444488186035,0.0666666706026059,0.677777780312269,0.631634652614594,-0.306043475866318,0.213497400283814
0,0.719444488186035,0.0666666706026059,0.677777780312269,0.592233836650848,-0.203723564743996,0.316428184509277
0,0.77638890952788,0.0166666676506515,0.588888894279438,0.439517557621002,-0.0125227374956012,0.281303435564041
0,0.768055606852213,0.00833333382532574,0.568055564654484,0.319787949323654,-0.104457959532738,0.0668897479772568
0,0.781944477060896,0.00833333382532574,0.561111153862072,0.411723166704178,-0.295658767223358,-0.0717766657471657
0,0.800000022919342,-0.0458333348996699,0.618055575203916,0.510072469711304,-0.231212496757507,-0.0488692186772823
0,0.811111157985375,-0.0222222230277034,0.587500002396184,0.457232624292374,0.164628177881241,-0.199752941727638
0,0.813888941751883,-0.00694444498106275,0.565277780887976,0.178067222237587,0.458759784698486,-0.300240278244019
0,0.75000001236991,0.0638888929140799,0.555555586329055,-0.213191971182823,0.356134444475174,-0.0534507073462009
0,0.709722245003256,0.0388888906783549,0.595833353695709,-0.556803643703461,-0.0027488935738802,0.134695783257484
0,0.762500039319197,0.055555559848502,0.625000034620187,-0.633467257022858,0.0592539273202419,-0.0427605658769607
0,0.806944482335612,0.0541666679652478,0.613888899554154,-0.631940066814423,0.204334422945976,-0.201890960335732
0,0.729166682744956,0.0611111152255539,0.590277786162692,-0.628885746002197,0.0684169083833694,-0.121256753802299
0,0.733333358394718,0.0694444482911319,0.598611137462217,-0.622471690177917,-0.0925460830330849,-0.0913243517279625
0,0.781944477060896,0.03194444645704,0.587500002396184,-0.436768651008606,-0.0552833043038845,-0.249233022332191
0,0.825000028194058,0.029166668768514,0.6125000076709,-0.253203630447388,0.151800006628036,-0.358577907085419
0,0.793055563503071,-0.0250000007162294,0.669444477636603,0.257174253463745,0.141720741987228,-0.60261857509613
0,0.795833347269579,-0.029166668768514,0.61944446708717,0.657596409320831,0.241291776299477,-0.900109946727753
0,0.781944477060896,0.0250000007162294,0.54027777561326,0.541226625442505,0.64049220085144,-0.756556630134583
0,0.768055606852213,0.0375000018340919,0.587500002396184,0.438906669616699,0.47647488117218,-0.427911102771759
0,0.73055557462821,0.00555555575692586,0.679166672195524,0.690583169460297,0.441960990428925,-0.194866016507149
0,0.634722229179108,0.00277777787846293,0.656944450687316,0.698524415493011,0.0253509078174829,0.149967417120934
0,0.538888932353864,-0.0388888906783549,0.568055564654484,0.623998820781708,-0.717766642570496,1.3567316532135
0,0.534722256704101,-0.0194444453391775,0.554166694445801,0.565050363540649,-0.450818538665771,1.75165605545044
0,0.93750007624221,-0.0986111170596459,0.556944478212309,0.558330833911896,-0.489913940429688,1.15575706958771
0,1.02361117850853,-0.112499999424294,0.430555559955475,-0.128281697630882,0.218078896403313,0.678060412406921
0,0.916666697993398,-0.0194444453391775,0.443055586904762,-0.784961819648743,0.733649134635925,0.38026362657547
0,0.858333336144441,-0.108333335930496,0.561111153862072,-0.831693053245544,0.485637873411179,0.330783516168594
0,0.872222254976982,-0.15555556271342,0.584722267253534,-0.8662069439888,0.341473668813705,0.1750128865242
0,0.863888903677457,-0.14583334384257,0.522222229754814,-1.13987457752228,0.287106662988663,-0.0271835029125214
0,0.82916670384382,-0.12777778582816,0.516666662221798,-1.56167697906494,0.293215304613113,-0.107206851243973
0,0.82916670384382,-0.12777778582816,0.516666662221798,-0.829554975032806,-0.229685336351395,0.262061178684235
0,0.679166672195524,-0.0805555590452358,0.909722238577127,0.255647093057633,-0.422413319349289,0.620639085769653
0,0.752777796136418,-0.148611115453114,0.723611115211939,1.03847086429596,-0.299018532037735,0.620333671569824
0,0.784722260827405,-0.0888888921108138,0.645833364245141,1.48318076133728,-0.129808858036995,0.2379320114851
0,0.755555579902926,-0.0250000007162294,0.808333374218867,2.15482711791992,-0.0323758572340012,0.495717138051987
0,0.700000001820477,-0.0361111129898289,0.666666693870094,1.87596714496613,-0.404392778873444,0.869566679000854
0,0.991666665193688,0.0458333348996699,0.611111115787646,1.61848747730255,-0.139888137578964,0.107512280344963
0,1.02083339474202,-0.0111111115138517,0.666666693870094,1.60413217544556,-0.0103847095742822,0.112399205565453
0,0.809722266102121,-0.0986111170596459,0.670833369519857,1.94866013526917,-0.219606056809425,0.736703515052795
0,0.716666704419527,-0.052777782159976,0.719444488186035,2.34877681732178,-0.620639085769653,0.729373097419739
0,0.765277823085705,-0.111111119697004,0.655555558804062,2.49171924591064,-0.442571878433227,0.832609355449677
0,0.87500003874349,-0.13750000469901,0.687500023495048,2.78371286392212,-0.862236320972443,0.847575545310974
0,0.908333346693873,-0.152777778946911,0.651388931778157,2.79837369918823,-1.2867876291275,0.503658413887024
0,0.970833384192592,-0.176388892338373,0.356944460326509,2.1102340221405,-1.2156218290329,0.526565849781036
0,0.863888903677457,-0.0486111125881959,0.237500001485945,0.629191219806671,-0.433408886194229,0.696386396884918
0,0.893055633225794,0.0208333341834404,0.238888893369199,-0.31703907251358,-0.481667250394821,0.900415360927582
0,0.938888968125464,0.0222222230277034,0.368055571080613,-0.733954608440399,-0.865290641784668,1.18507862091064
0,0.945833330294018,0.026388891079988,0.418055581630046,-0.570548117160797,-1.17622101306915,1.2122620344162
0,0.979166735492117,-0.0388888906783549,0.426388884305712,-0.117286130785942,-1.76845490932465,1.04519045352936
0,0.913888914226889,-0.0944444474878658,0.426388884305712,0.449902266263962,-1.17377758026123,0.0882700309157372
0,0.926388941176177,-0.0875000002275597,0.416666689746791,0.697913527488708,-1.04549586772919,-0.393702656030655
0,0.818055568777787,0.0513888902767219,0.384722225055805,0.54916787147522,-0.939205288887024,-0.180510684847832
0,0.78333336894415,0.143055560076062,0.437500019371745,0.670119166374207,-1.03419482707977,-0.013744467869401
0,0.855555552377932,0.102777780553444,0.52083333787156,0.983187615871429,-0.671646356582642,0.0705549344420433
0,0.859722228027695,0.0861111144222878,0.42916666807222,0.992350578308105,-0.469449937343597,-0.0647517144680023
0,0.769444450111609,0.0375000018340919,0.295833339022973,0.715628623962402,-1.24830317497253,-0.361021369695664
0,0.765277823085705,0.120833338567854,0.275000009398019,0.157603234052658,-1.46057879924774,-0.355523586273193
0,0.784722260827405,0.13750000469901,0.548611126912784,0.50793445110321,-1.3723087310791,-0.0616973899304867
0,0.884722281926269,0.0486111125881959,0.662500018220332,0.983187615871429,-0.764803290367126,0.202807262539864
0,0.866666687443965,0.0861111144222878,0.47500000297189,0.84574294090271,-0.841772317886353,0.295353353023529
0,0.913888914226889,0.116666675074056,0.211111128639904,0.133779495954514,-1.54182386398315,0.348193198442459
0,0.940277860008718,0.0680555564078778,0.279166685047782,-0.0186313893646002,-1.85916841030121,0.532979905605316
0,1.0361111082101,-0.03194444645704,0.372222246730376,-0.0522289797663689,-1.60352122783661,0.610865235328674
0,1.06388894587519,-0.03194444645704,0.341666673922643,-0.320704251527786,-0.808785557746887,0.934318363666534
0,1.0333333244436,-0.00277777787846293,0.265277790527169,-0.24312436580658,-0.981049597263336,1.13468217849731
0,1.11111117265811,-0.0250000007162294,0.298611122789481,0.015577063895762,-1.35215020179748,1.21195662021637
0,1.20972230187372,-0.133333341205212,0.327777779402031,0.390342891216278,-1.45324838161469,1.29717230796814
0,1.12499999424293,-0.152777778946911,0.256944463539574,1.1511754989624,-0.864068865776062,1.49112200736999
0,0.955555573476797,-0.0861111144222878,0.0152777788063885,1.00792765617371,-1.21073496341705,1.31274938583374
0,0.931944508709193,-0.0486111125881959,-0.180555567988136,0.82039201259613,-1.60107779502869,1.34909594058991
0,1.07500008094122,-0.0819444448505077,-0.197222234119292,0.676533281803131,-1.83229029178619,0.419664412736893
0,1.08194444310977,-0.0666666706026059,-0.181944447715425,0.60750550031662,-1.10963666439056,0.169820532202721
0,1.11944452395763,-0.0138888899621255,-0.168055565350778,-0.0259617734700441,-1.42575943470001,-0.117896988987923
0,1.09444447005906,-0.052777782159976,-0.0902777839940679,-0.397673279047012,-1.00578963756561,-0.210443079471588
0,0.976388951725609,-0.0625000010308258,-0.0597222233422998,-0.538477718830109,-0.0784961804747581,0.157603234052658
0,0.930555616825939,-0.0583333375370279,-0.0388888906783549,-0.498466044664383,0.370489776134491,0.361021369695664
0,0.881944498159761,-0.108333335930496,0.0208333341834404,-0.373238652944565,0.695164620876312,0.650571465492249
0,1.02361117850853,-0.113888891307548,0.0388888906783549,0.0369573459029198,1.05985116958618,0.915687024593353
0,1.14027780495873,-0.197222234119292,0.0638888929140799,0.29046642780304,0.84574294090271,0.500909507274628
0,1.07500008094122,-0.161111118090472,0.00833333382532574,0.352774679660797,0.546418964862823,0.235183119773865
0,1.04861113515939,-0.187500003092477,-0.033333335301303,0.225103840231896,0.114537231624126,-0.160352125763893
0,1.07222229717471,-0.2194444556275,-0.0361111129898289,0.176540061831474,0.098960168659687,-0.330783516168594
0,1.26527778270845,-0.356944460326509,-0.033333335301303,0.137139245867729,0.341168224811554,-0.495717138051987
0,1.17361111290911,-0.319444452414435,0.0222222230277034,0.222660377621651,-0.0684169083833694,-0.251981914043427
0,1.18055557232538,-0.256944463539574,0.0347222241455659,0.419053554534912,-0.281303435564041,-0.0885754600167274
0,1.147222264375,-0.250000004123303,-0.0347222241455659,0.316428184509277,-0.810312747955322,-0.627664029598236
0,0.98888888142718,-0.184722231481934,-0.0666666706026059,0.286801218986511,-1.41842913627624,-0.929126024246216
0,0.854166660494678,-0.226388890731841,0.0194444453391775,-0.0400116741657257,-1.24036192893982,-1.10933125019074
0,0.862500011794203,-0.211111128639904,0.0194444453391775,-0.406530827283859,-0.540310323238373,-1.27059972286224
0,0.958333357243305,-0.187500003092477,-0.0416666683668809,-0.341779112815857,-0.515264809131622,-1.29198002815247
0,1.00555558402623,-0.14722222356986,-0.0861111144222878,-0.217773467302322,-0.757167458534241,-1.41201496124268
0,1.08472222687628,-0.00972222266958873,-0.0847222225390337,-0.0937678143382072,-1.06076753139496,-1.46577119827271
0,1.07777786470773,0.030555557612777,-0.120833338567854,-0.198225766420364,-1.28709304332733,-1.07878804206848
0,1.07777786470773,0.030555557612777,-0.120833338567854,-0.164322748780251,-1.17988622188568,-0.649044334888458
0,1.02916674604155,0.0250000007162294,-0.212499996211229,-0.233961388468742,-1.04152524471283,-0.536034226417542
0,0.991666665193688,0.00138888893923146,-0.229166674498349,-0.0778853222727776,-0.322231411933899,-0.443793594837189
0,0.991666665193688,0.00138888893923146,-0.229166674498349,0.0977384373545647,-0.310930401086807,-0.265115529298782
0,1.10694449700835,0.00972222266958873,-0.238888893369199,0.078801617026329,-0.19578230381012,0.00427605677396059
0,1.04722224327614,-0.00416666691266287,-0.227777782615095,-0.00244346098043024,-0.268169850111008,-0.0256563406437635
0,1.04722224327614,-0.00416666691266287,-0.227777782615095,-0.0262672062963247,-0.285274058580399,-0.0583376325666905
0,0.975000059842355,0.00416666691266287,-0.226388890731841,-0.0128281703218818,-0.213191971182823,-0.029626963660121
0,0.92083337364316,0.0222222230277034,-0.327777779402031,0.0280998013913631,-0.220827788114548,-0.0339030213654041
0,0.92083337364316,0.0222222230277034,-0.327777779402031,-0.112093769013882,0.0360410511493683,-0.111482910811901
0,0.933333400592447,-0.0194444453391775,-0.294444447139719,-0.013744467869401,-0.105374254286289,-0.147829383611679
0,1.0694445134082,-0.0125000003581147,-0.233333350148112,0.0870482996106148,-0.177456349134445,-0.156992360949516
0,1.0305556379248,0.0208333341834404,-0.206944452990142,0.150883719325066,-0.143858760595322,-0.00519235478714108
0,1.06666672964169,0.0416666683668809,-0.212499996211229,0.182037845253944,-0.0778853222727776,-0.0766635909676552
0,0.993055557076942,0.0416666683668809,-0.130555557438704,0.215330004692078,-0.383928805589676,-0.0152716310694814
0,0.963888924776322,0.0402777795226179,-0.120833338567854,0.196698606014252,-1.17499935626984,-0.0607810914516449
0,0.940277860008718,0.0180555564949145,-0.197222234119292,0.145080491900444,-1.71286618709564,-0.0378736443817616
0,0.990277773310434,0.03194444645704,-0.287500012035377,0.119424156844616,-1.65055787563324,0.160657554864883
0,1.03888889197661,0.0430555572111439,-0.359722244093018,0.0681114718317986,-0.819781184196472,0.100181899964809
0,1.00694447590948,0.03194444645704,-0.390277792588821,0.0684169083833694,-0.124005645513535,0.0684169083833694
0,0.980555627375371,-0.00694444498106275,-0.400000011459671,0.0968221426010132,0.246789559721947,0.00244346098043024
0,0.975000059842355,-0.0125000003581147,-0.411111122213775,-0.00885754637420177,0.466090172529221,-0.0372627787292004
0,0.984722303025134,-0.00833333382532574,-0.331944455051793,0.0146607663482428,0.313679307699203,-0.121256753802299
0,1.10138892947533,0.0208333341834404,-0.298611122789481,-0.223576679825783,0.147829383611679,0.0445931628346443
0,1.05555559457566,0.0583333375370279,-0.223611131277262,0.00824668072164059,0.156381502747536,-0.0534507073462009
0,1.02222228662528,0.0458333348996699,-0.266666682410424,0.064446285367012,0.0690277740359306,-0.0842994004487991
0,1.00972225967599,0.0152777788063885,-0.313888909193348,0.0858265683054924,0.0629191175103188,-0.0763581544160843
0,1.01388893532575,0.0166666676506515,-0.327777779402031,-0.013744467869401,-0.0207694191485643,-0.0610865242779255
0,0.843055622676362,-0.0402777795226179,0.0402777795226179,-0.703411340713501,-2.45323491096497,0.164322748780251
0,0.94305554652751,-0.0375000018340919,-0.120833338567854,-0.189062789082527,-1.50517201423645,0.0662788823246956
0,0.948611114060526,0.027777779924251,-0.373611114301701,-0.0287106670439243,-1.03083515167236,0.0525344125926495
0,0.837500055143345,0.0513888902767219,-0.47500000297189,-0.147218525409698,-1.77425813674927,0.076052725315094
0,0.955555573476797,0.029166668768514,-0.544444451263022,0.0757472887635231,-0.189368233084679,-0.0259617734700441
0,0.947222222177272,0.0180555564949145,-0.573611132187501,0.0583376325666905,0.455400049686432,-0.0201585534960032
0,0.929166724942685,0.029166668768514,-0.522222229754814,-0.0113010071218014,0.657596409320831,0.0161879286170006
0,0.962500032893068,0.027777779924251,-0.470833327322128,-0.0384845100343227,0.892779529094696,-0.0329867228865623
0,0.958333357243305,0.0152777788063885,-0.456944457113445,0.0305432621389627,0.988379955291748,-0.0265726372599602
0,0.922222265526414,-0.0250000007162294,-0.331944455051793,-0.0271835029125214,0.691804885864258,-0.0583376325666905
0,0.952777789710289,0.0125000003581147,-0.395833335809908,0.0717766657471657,0.356745302677154,-0.05283984541893
0,0.959722249126559,0.055555559848502,-0.341666673922643,-0.0516181141138077,-0.207694187760353,0.0708603709936142
0,1.0361111082101,0.0361111129898289,-0.423611149163062,-0.01191187184304,-0.540615737438202,0.308486938476563
0,0.370833354847121,0.0763888894734557,-0.456944457113445,0.167071640491486,-0.414166629314423,2.29654788970947
0,1.13750002119222,0.0944444474878658,-0.555555586329055,-0.318260788917542,0.449291378259659,1.43980944156647
0,1.36527780380732,-0.0944444474878658,-0.395833335809908,-0.259923160076141,1.55831718444824,0.576656818389893
0,0.98888888142718,-0.0916666697993398,-0.118055554801345,-0.328034639358521,0.872010111808777,0.573602437973022
0,0.934722292475701,0.0458333348996699,-0.275000009398019,-0.360715925693512,1.05740773677826,0.470060795545578
0,0.82916670384382,-0.0166666676506515,-0.333333346935047,-0.240986332297325,1.34970676898956,0.78251838684082
0,0.986111194908388,-0.104166672436698,-0.204166669223633,-0.0280998013913631,0.631634652614594,0.502131223678589
0,1.0513889189259,-0.0847222225390337,-0.315277801076602,-0.0106901414692402,1.0345002412796,0.541837453842163
0,1.11527784830787,-0.100000002864918,-0.29166668768514,0.0421497002243996,1.05404794216156,0.220216915011406
0,1.06250005399193,-0.108333335930496,-0.294444447139719,-0.0403171069920063,1.30480813980102,0.149661988019943
0,1.08055555122652,-0.113888891307548,-0.277777793164528,-0.126143679022789,1.67987942695618,0.0287106670439243
0,1.0125000434425,-0.125000002061652,-0.181944447715425,0.0171042270958424,1.20279371738434,0.0192422550171614
0,1.01388893532575,-0.12777778582816,-0.14583334384257,-0.0109955742955208,0.971275746822357,-0.0122173046693206
0,1.02500007039179,-0.131944449321958,-0.120833338567854,-0.0128281703218818,0.645990014076233,-0.153938040137291
0,1.0125000434425,-0.125000002061652,-0.052777782159976,0.150883719325066,0.323758572340012,-0.141415297985077
0,1.03750000009336,-0.0944444474878658,-0.140277788465518,0.0742201283574104,0.438906669616699,-0.0977384373545647
0,1.04861113515939,-0.0944444474878658,-0.140277788465518,0.0965167060494423,0.408057987689972,-0.0839939713478088
0,1.04583335139288,-0.104166672436698,-0.122222230451108,0.0671951770782471,0.45509460568428,-0.0833831056952477
0,1.05000002704265,-0.0777777813567098,-0.156944454596674,-0.0302378293126821,0.56169056892395,-0.0641408488154411
0,0.997222232726705,-0.0805555590452358,-0.055555559848502,-0.202196389436722,0.587346911430359,0.00427605677396059
0,1.03472221632685,-0.0847222225390337,-0.116666675074056,-0.341168224811554,0.884227454662323,-0.011606439948082
0,0.990277773310434,-0.0916666697993398,-0.0152777788063885,-0.0183259565383196,0.468533635139465,-0.0109955742955208
0,0.983333411141879,-0.100000002864918,-0.00555555575692586,0.11087204515934,0.234877690672875,-0.0445931628346443
0,1.00972225967599,-0.0944444474878658,-0.0541666679652478,0.0598647929728031,0.145996794104576,0.00183259579353034
0,1.02361117850853,-0.0916666697993398,-0.0680555564078778,-0.0815505087375641,0.00519235478714108,0.0265726372599602
0,1.01527782720901,-0.0833333367337618,-0.0486111125881959,-0.0891863256692886,-0.109039448201656,0.0143553335219622
0,1.01944450285877,-0.0888888921108138,-0.0625000010308258,-0.0772744566202164,-0.130114302039146,0.0100792767480016
0,1.01944450285877,-0.0750000036681839,-0.0777777813567098,-0.0452040284872055,-0.021685715764761,0.037568211555481
0,1.0125000434425,-0.0777777813567098,-0.0722222259796579,-0.00519235478714108,0.150883719325066,0.0149661982432008
0,1.01666671909226,-0.0763888894734557,-0.0583333375370279,0.0314595587551594,0.209526777267456,0.0305432621389627
0,0.970833384192592,-0.0736111117849297,-0.0513888902767219,0.0491746515035629,0.182037845253944,0.00824668072164059
0,1.02916674604155,-0.0902777839940679,-0.0541666679652478,0.0100792767480016,0.186619326472282,-0.0913243517279625
0,1.0333333244436,-0.0944444474878658,-0.0361111129898289,-0.01191187184304,-0.01588249579072,-0.149661988019943
0,1.01944450285877,-0.0569444456537738,-0.10972222781375,-0.183565005660057,0.0021380283869803,-0.196087747812271
0,0.940277860008718,-0.126388893944906,-0.0152777788063885,-0.178372651338577,-0.131641462445259,-0.576962232589722
0,0.933333400592447,-0.116666675074056,-0.0152777788063885,-0.134390354156494,-0.198225766420364,-1.10841500759125
0,1.08194444310977,-0.0722222259796579,-0.0388888906783549,-0.109344877302647,-0.100792765617371,-1.09467053413391
0,1.06250005399193,-0.0166666676506515,-0.0625000010308258,-0.113010071218014,0.0320704244077206,-0.578183948993683
0,1.05416670269241,-0.03194444645704,-0.0513888902767219,-0.0821613743901253,-0.0290160998702049,-0.514653980731964
0,1.00833336779274,-0.0138888899621255,-0.00555555575692586,-0.0632245540618896,-0.218995183706284,-0.563828647136688
0,1.06250005399193,0.0208333341834404,-0.0652777787193518,-0.0314595587551594,-0.171958565711975,-0.31154128909111
0,1.04861113515939,0.0111111115138517,-0.0875000002275597,-0.0665843114256859,0.00152716308366507,-0.239153742790222
0,1.04166667574312,0.0236111118719664,-0.0888888921108138,-0.0842994004487991,0.251065611839294,-0.0241291765123606
0,1.0361111082101,0.0208333341834404,-0.0750000036681839,-0.0711658000946045,0.345444291830063,0.0128281703218818
0,1.04166667574312,0.00833333382532574,-0.052777782159976,-0.0222965814173222,0.356745302677154,0.0235183127224445
0,1.0125000434425,0.0152777788063885,-0.0472222237439329,-0.0891863256692886,0.297796815633774,-0.0678060427308083
0,1.03750000009336,0.00138888893923146,-0.0347222241455659,-0.0830776765942574,0.310930401086807,-0.0940732508897781
0,1.01805561097552,0.00138888893923146,-0.0388888906783549,-0.0763581544160843,0.376293003559113,-0.109344877302647
0,1.04166667574312,0.00972222266958873,-0.0222222230277034,-0.0601702257990837,0.463035851716995,-0.0491746515035629
0,1.02777785415829,0.0222222230277034,-0.0194444453391775,-0.0733038261532784,0.389121174812317,-0.0552833043038845
0,1.02777785415829,0.0222222230277034,-0.0194444453391775,-0.135306656360626,0.425162196159363,0.00305432616733015
0,1.05000002704265,0.0194444453391775,-0.00277777787846293,-0.114231802523136,0.30146199464798,0.04764748737216
0,1.01111115155925,0.00972222266958873,0.0375000018340919,-0.027488935738802,0.0271835029125214,0.0693332031369209
0,1.00000001649321,-0.00138888893923146,0.0472222237439329,0.0021380283869803,-0.229074463248253,-0.00855211354792118
0,1.01111115155925,0.00555555575692586,0.0222222230277034,-0.0439822971820831,-0.250454753637314,-0.0213802829384804
0,1.0305556379248,0.0111111115138517,-0.00833333382532574,-0.0671951770782471,-0.121256753802299,-0.00183259579353034
0,1.04027778385987,0.0111111115138517,-0.0152777788063885,0.0027488935738802,-0.0311541277915239,0.0836885422468185
0,1.04444445950963,0.00694444498106275,-0.029166668768514,0.0045814891345799,0.0974330082535744,0.158824965357781
0,1.03194452980806,0.00694444498106275,-0.029166668768514,0.0189368221908808,0.143858760595322,0.178678080439568
0,1.01111115155925,-0.00555555575692586,-0.0166666676506515,-0.0100792767480016,0.0797179117798805,0.195171445608139
0,0.95000000594378,0.0152777788063885,0.00277777787846293,0.0152716310694814,0.0045814891345799,0.36529740691185
0,0.933333400592447,0.00694444498106275,0.029166668768514,0.0839939713478088,-0.107817716896534,0.456316351890564
0,0.976388951725609,0.00694444498106275,0.029166668768514,0.087659165263176,-0.182343274354935,0.71471232175827
0,0.772222233878117,0.00416666691266287,0.00694444498106275,0.0693332031369209,-0.305127203464508,1.41323673725128
0,0.825000028194058,-0.033333335301303,-0.0125000003581147,-0.00824668072164059,-0.200974673032761,1.28403878211975
0,1.07916665934326,-0.0847222225390337,-0.0375000018340919,-0.0171042270958424,0.0601702257990837,0.737008929252625
0,1.30000007978981,-0.134722233088466,-0.0500000014324589,0.01588249579072,0.323147714138031,-0.0189368221908808
0,1.14027780495873,-0.111111119697004,-0.0347222241455659,-0.101098194718361,0.246789559721947,0.00855211354792118
0,1.0125000434425,-0.104166672436698,-0.00555555575692586,-0.146302223205566,0.135612085461616,-0.0522289797663689
0,1.14583337249175,-0.120833338567854,0.00138888893923146,-0.0992656052112579,0.17989981174469,-0.22174409031868
0,1.05555559457566,-0.0805555590452358,-0.00555555575692586,-0.136528387665749,0.145385921001434,-0.04764748737216
0,0.987499989543926,-0.0777777813567098,0.0250000007162294,-0.100792765617371,0.000610865245107561,0.0250454749912024
0,1.00833336779274,-0.0722222259796579,0.0152777788063885,-0.037568211555481,-0.0620028227567673,0.0497855171561241
0,1.07500008094122,-0.0805555590452358,0.00694444498106275,-0.0479529201984406,0.0384845100343227,0.0363464802503586
0,1.05000002704265,-0.0819444448505077,-0.029166668768514,-0.119729585945606,0.169820532202721,0.0675006061792374
0,0.994444448960196,-0.0930555616825939,0.0361111129898289,0.0045814891345799,-0.124311074614525,0.0696386396884918
0,1.02638896227504,-0.0805555590452358,0.0152777788063885,-0.0128281703218818,-0.0537561401724815,0.0742201283574104
0,1.0361111082101,-0.0861111144222878,0.0152777788063885,-0.0244346093386412,-0.0479529201984406,0.0604756586253643
0,1.01527782720901,-0.0861111144222878,0.0208333341834404,0.0262672062963247,-0.215635433793068,0.0552833043038845
0,1.01111115155925,-0.0958333393711199,0.0180555564949145,0.00977384392172098,-0.30146199464798,0.0610865242779255
0,1.04027778385987,-0.0958333393711199,-0.0152777788063885,-0.00427605677396059,-0.192422553896904,0.0839939713478088
0,1.04027778385987,-0.0958333393711199,-0.0152777788063885,-0.00580321997404099,-0.0800233483314514,0.0595593601465225
0,1.01388893532575,-0.102777780553444,-0.00138888893923146,0.00885754637420177,-0.151494577527046,0.0772744566202164
0,1.03888889197661,-0.0944444474878658,-0.0250000007162294,-0.00580321997404099,-0.224798411130905,0.0442877300083637
0,1.04027778385987,-0.0930555616825939,-0.030555557612777,0.03176499158144,-0.235793977975845,0.0439822971820831
0,1.05555559457566,-0.0777777813567098,-0.030555557612777,0.0381790772080422,-0.242513507604599,0.0931569486856461
0,1.02916674604155,-0.0916666697993398,-0.0361111129898289,0.0415388382971287,-0.22204951941967,0.0769690200686455
0,1.0361111082101,-0.105555564319952,-0.029166668768514,0.0100792767480016,-0.277943700551987,0.0186313893646002
0,1.0361111082101,-0.105555564319952,-0.029166668768514,0.019547687843442,-0.255036234855652,-0.0983493030071259
0,1.03888889197661,-0.143055560076062,-0.0125000003581147,0.08460483700037,-0.457843512296677,-0.162795588374138
0,1.05555559457566,-0.14722222356986,-0.0166666676506515,0.0852157026529312,-0.311235845088959,-0.19058994948864
0,1.08750001064279,-0.140277788465518,-0.0416666683668809,0.12705996632576,-0.078801617026329,-0.175318330526352
0,1.05833337834217,-0.12777778582816,-0.0722222259796579,0.156381502747536,0.0308486949652433,-0.121867619454861
0,1.02638896227504,-0.122222230451108,-0.0541666679652478,0.271835029125214,0.131336033344269,-0.114231802523136
0,1.00277780025972,-0.118055554801345,-0.0888888921108138,0.496022582054138,0.992045164108276,-0.0540615729987621
0,1.20555562622396,-0.166666673467524,-0.373611114301701,0.0177150927484035,0.95630955696106,-0.0207694191485643
0,0.993055557076942,-0.0916666697993398,0.0958333393711199,0.210443079471588,0.584292590618134,-0.0332921557128429
0,1.03194452980806,-0.0819444448505077,-0.0708333340964038,0.120340451598167,0.742201268672943,0.0152716310694814
0,0.954166681593543,-0.0875000002275597,0.104166672436698,0.167377084493637,-0.141720741987228,-0.00305432616733015
0,0.98888888142718,-0.0847222225390337,0.033333335301303,0.145996794104576,0.120645888149738,0.00855211354792118
0,1.02361117850853,-0.0750000036681839,0.0250000007162294,0.138360977172852,0.0342084541916847,0.00152716308366507
0,1.02916674604155,-0.0652777787193518,0.0194444453391775,0.117591559886932,0.0555887371301651,0.0131336031481624
0,1.0305556379248,-0.0652777787193518,0.0250000007162294,0.0733038261532784,0.0867428630590439,0.0171042270958424
0,1.03472221632685,-0.0680555564078778,0.0152777788063885,0.0516181141138077,0.0986547395586967,0.0152716310694814
0,1.02916674604155,-0.0722222259796579,0.0222222230277034,0.0387899428606033,0.0763581544160843,0.0113010071218014
0,1.02361117850853,-0.0819444448505077,0.026388891079988,0.0287106670439243,0.0305432621389627,0.0143553335219622
0,1.02916674604155,-0.0819444448505077,0.0222222230277034,0.0366519130766392,0.0784961804747581,-0.00183259579353034
0,1.02361117850853,-0.0777777813567098,0.0208333341834404,0.0287106670439243,0.0800233483314514,-0.0198531206697226
0,1.02222228662528,-0.0875000002275597,0.0208333341834404,0.0192422550171614,0.0867428630590439,-0.00702495034784079
0,1.02500007039179,-0.0819444448505077,0.03194444645704,0.0171042270958424,0.0565050356090069,0.000305432622553781
0,1.02777785415829,-0.0875000002275597,0.03194444645704,0.00885754637420177,0.0467311926186085,0.0021380283869803
0,1.04305556762637,-0.0916666697993398,0.0402777795226179,0.0210748501121998,0.0387899428606033,-0.00549778714776039
0,1.05416670269241,-0.0847222225390337,0.0347222241455659,0.0256563406437635,0.0925460830330849,0.00946841109544039
0,1.01111115155925,-0.0750000036681839,0.00833333382532574,0.0769690200686455,0.197004035115242,-0.0100792767480016
0,1.00000001649321,-0.0583333375370279,0.0500000014324589,0.0965167060494423,-0.0470366254448891,0.0113010071218014
0,1.02083339474202,-0.0625000010308258,0.0486111125881959,-0.0280998013913631,0.0870482996106148,0.0335975885391235
0,1.04583335139288,-0.0430555572111439,0.030555557612777,-0.0277943685650826,0.098960168659687,0.0210748501121998
0,1.03888889197661,-0.0361111129898289,0.0416666683668809,-0.0937678143382072,0.23273965716362,0.0332921557128429
0,1.03472221632685,-0.0569444456537738,0.0388888906783549,-0.112399205565453,0.103541657328606,0.0650571510195732
0,1.02916674604155,-0.0819444448505077,0.0375000018340919,-0.153632611036301,0.187841057777405,0.0555887371301651
0,1.02222228662528,-0.0930555616825939,0.0458333348996699,-0.141720741987228,0.16401731967926,0.0146607663482428
0,0.98888888142718,-0.105555564319952,0.0680555564078778,-0.108123145997524,0.0473420582711697,0.0021380283869803
0,0.99583334084345,-0.111111119697004,0.052777782159976,-0.0882700309157372,-0.0247400421649218,0.00183259579353034
0,1.01944450285877,-0.120833338567854,0.0361111129898289,-0.0803287774324417,-0.0577267669141293,0.00152716308366507
0,1.01944450285877,-0.120833338567854,0.0361111129898289,-0.0488692186772823,0.0800233483314514,0.00580321997404099
0,1.01944450285877,-0.136111112815755,0.0444444460554069,-0.0305432621389627,0.0610865242779255,-0.00885754637420177
0,1.02361117850853,-0.120833338567854,0.0486111125881959,0.01191187184304,0.0403171069920063,-0.00122173049021512
0,1.02361117850853,-0.120833338567854,0.0486111125881959,0.0339030213654041,0.0708603709936142,-0.00671951752156019
0,1.0361111082101,-0.125000002061652,0.0388888906783549,0.0439822971820831,0.0568104684352875,-0.0183259565383196
0,1.02083339474202,-0.134722233088466,0.0736111117849297,0.0534507073462009,0.0604756586253643,-0.0537561401724815
0,1.02083339474202,-0.134722233088466,0.0736111117849297,0.138055548071861,-0.135612085461616,0.076052725315094
0,0.970833384192592,-0.123611110178398,0.0763888894734557,0.152716308832169,-0.226020142436027,0.0229074470698834
0,1.02500007039179,-0.116666675074056,0.0625000010308258,0.137750118970871,0.0653625801205635,0.0458148941397667
0,1.02500007039179,-0.116666675074056,0.0625000010308258,0.149356558918953,-0.0360410511493683,0.0183259565383196
0,1.00972225967599,-0.111111119697004,0.0694444482911319,0.150578290224075,-0.0519235469400883,0.00946841109544039
0,1.03888889197661,-0.102777780553444,0.055555559848502,0.128587126731873,-0.0235183127224445,0.0171042270958424
0,1.03888889197661,-0.102777780553444,0.055555559848502,0.11636982858181,0.0751364231109619,0.0027488935738802
0,1.06666672964169,-0.123611110178398,0.0486111125881959,0.114842668175697,0.188757359981537,-0.0445931628346443
0,1.02361117850853,-0.0888888921108138,0.0597222233422998,0.105374254286289,-0.0146607663482428,-0.0452040284872055
0,0.993055557076942,-0.0819444448505077,0.0972222251763917,0.144775062799454,-0.029626963660121,0.0161879286170006
0,0.99583334084345,-0.0513888902767219,0.0958333393711199,0.120951317250729,-0.0714712366461754,0.0620028227567673
0,1.02222228662528,-0.0500000014324589,0.0680555564078778,0.0583376325666905,-0.0409279726445675,0.0381790772080422
0,1.04722224327614,-0.0652777787193518,0.0611111152255539,0.0146607663482428,-0.0207694191485643,0.0204639863222837
0,1.03888889197661,-0.0777777813567098,0.0750000036681839,-0.0235183127224445,0.00244346098043024,0.0226020142436027
0,1.01527782720901,-0.0388888906783549,0.0805555590452358,0.0189368221908808,0.0919352173805237,0.02382374368608
0,1.00277780025972,-0.0902777839940679,0.0861111144222878,0.0219911485910416,-0.0901026204228401,0.0510072484612465
0,1.00694447590948,-0.0986111170596459,0.0777777813567098,0.0342084541916847,-0.0433714315295219,0.04764748737216
0,1.01388893532575,-0.104166672436698,0.0902777839940679,0.0348193198442459,-0.0965167060494423,0.0293215326964855
0,1.02638896227504,-0.113888891307548,0.0694444482911319,0.0424551330506802,-0.0152716310694814,0.0436768643558025
0,1.0305556379248,-0.0958333393711199,0.0652777787193518,0.027488935738802,-0.0470366254448891,0.0406225398182869
0,1.04722224327614,-0.106944444047242,0.0611111152255539,0.0277943685650826,-0.0131336031481624,-0.0113010071218014
0,1.03194452980806,-0.102777780553444,0.0486111125881959,-0.0186313893646002,-0.0397062413394451,0.0293215326964855
0,1.02638896227504,-0.0916666697993398,0.0416666683668809,0.0027488935738802,0.0412334054708481,0.0146607663482428
0,1.00972225967599,-0.0958333393711199,0.0722222259796579,-0.000305432622553781,-0.0675006061792374,-0.00305432616733015
0,1.01527782720901,-0.0805555590452358,0.0652777787193518,-0.0122173046693206,-0.0751364231109619,-0.00641408516094089
0,1.01805561097552,-0.0777777813567098,0.0388888906783549,-0.0345138870179653,-0.03176499158144,-0.00916297826915979
0,1.02638896227504,-0.0722222259796579,0.029166668768514,-0.0592539273202419,0.0100792767480016,-0.00824668072164059
0,1.03194452980806,-0.0680555564078778,0.030555557612777,-0.10598511993885,0.0403171069920063,0.000610865245107561
0,1.03888889197661,-0.0777777813567098,0.0250000007162294,-0.117591559886932,0.0494800843298435,0.000916297896765172
0,1.01944450285877,-0.0944444474878658,0.033333335301303,-0.165239050984383,0.0222965814173222,0.0366519130766392
0,1.00972225967599,-0.113888891307548,0.0458333348996699,-0.146302223205566,0.017409659922123,0.0149661982432008
0,1.0125000434425,-0.120833338567854,0.0444444460554069,-0.13225232064724,-0.00580321997404099,0.000610865245107561
0,1.0361111082101,-0.136111112815755,0.055555559848502,-0.0430659987032413,-0.0198531206697226,-0.0381790772080422
0,1.03472221632685,-0.1194444466846,0.0736111117849297,-0.0229074470698834,-0.0959058403968811,-0.0140499006956816
0,1.03888889197661,-0.100000002864918,0.0361111129898289,-0.0400116741657257,-0.0497855171561241,0.00610865233466029
0,1.02916674604155,-0.0805555590452358,0.055555559848502,-0.05283984541893,-0.0406225398182869,0.0348193198442459
0,1.02500007039179,-0.0750000036681839,0.0388888906783549,-0.0839939713478088,-0.0940732508897781,0.0415388382971287
0,1.02638896227504,-0.0708333340964038,0.0625000010308258,-0.207694187760353,-0.0372627787292004,0.0696386396884918
0,1.02638896227504,-0.0708333340964038,0.0625000010308258,-0.257785141468048,-0.0607810914516449,0.0879645943641663
0,1.0333333244436,-0.0847222225390337,0.0388888906783549,-0.265115529298782,0.021685715764761,0.0943786799907684
0,1.0333333244436,-0.0847222225390337,0.0388888906783549,-0.280998021364212,0.0546724386513233,0.0678060427308083
0,1.03888889197661,-0.108333335930496,0.0458333348996699,-0.226631000638008,-0.0427605658769607,0.05283984541893
0,1.00000001649321,-0.111111119697004,0.0375000018340919,-0.0479529201984406,-0.1750128865242,0.0693332031369209
0,1.01527782720901,-0.125000002061652,0.0652777787193518,-0.00305432616733015,-0.158214092254639,0.0836885422468185
0,1.0361111082101,-0.116666675074056,0.0402777795226179,-0.0271835029125214,-0.0635299831628799,0.0885754600167274
0,1.0333333244436,-0.104166672436698,0.055555559848502,-0.112704634666443,-0.0769690200686455,0.102014496922493
0,1.0125000434425,-0.101388894748172,0.0652777787193518,-0.145691365003586,-0.191811680793762,0.128281697630882
0,1.02500007039179,-0.138888896582264,0.0541666679652478,-0.194866016507149,-0.196087747812271,0.106290549039841
0,1.02222228662528,-0.148611115453114,0.027777779924251,-0.196087747812271,-0.131336033344269,0.0784961804747581
0,1.02500007039179,-0.148611115453114,0.0250000007162294,-0.237015709280968,-0.0806342139840126,-0.00152716308366507
0,1.02083339474202,-0.13750000469901,0.027777779924251,-0.215024560689926,-0.0897971913218498,0.0277943685650826
0,1.02777785415829,-0.12916666555545,-0.00555555575692586,-0.255341678857803,-0.0965167060494423,0.0348193198442459
0,1.0361111082101,-0.12916666555545,0.0125000003581147,-0.22174409031868,-0.113620936870575,0.0271835029125214
0,1.04027778385987,-0.120833338567854,0.0166666676506515,-0.219300627708435,-0.0632245540618896,0.0668897479772568
0,1.01805561097552,-0.105555564319952,0.0250000007162294,-0.206777885556221,-0.0867428630590439,0.0601702257990837
0,1.00972225967599,-0.0986111170596459,0.0208333341834404,-0.361326783895493,0.0998764708638191,0.076052725315094
0,1.02361117850853,-0.0944444474878658,0.029166668768514,-0.37568211555481,0.208305045962334,0.0650571510195732
0,1.05972227022542,-0.0916666697993398,0.0111111115138517,-0.416610091924667,0.474336862564087,0.0287106670439243
0,1.04861113515939,-0.122222230451108,0.0250000007162294,-0.423024177551269,0.584292590618134,0.0885754600167274
0,1.07222229717471,-0.108333335930496,-0.00277777787846293,-0.359494209289551,0.288939267396927,0.0739146918058395
0,0.990277773310434,-0.14583334384257,0.0625000010308258,-0.265420943498612,0.0329867228865623,0.0870482996106148
0,0.94305554652751,-0.113888891307548,0.113888891307548,-0.403476506471634,-0.452040284872055,0.0210748501121998
0,1.02638896227504,-0.144444451959316,0.0250000007162294,-0.457232624292374,-0.105374254286289,0.0772744566202164
0,1.01805561097552,-0.166666673467524,0.026388891079988,-0.326202034950256,-0.140804439783096,0.0675006061792374
0,1.00972225967599,-0.166666673467524,0.0513888902767219,-0.287106662988663,-0.450513124465942,0.0516181141138077
0,1.09722225382557,-0.222222239394008,-0.126388893944906,0.123089343309402,0.708909094333649,0.0491746515035629
0,1.10555560512509,-0.233333350148112,-0.161111118090472,0.156381502747536,-0.17440202832222,0.00152716308366507
0,0.913888914226889,-0.212499996211229,0.180555567988136,-0.0122173046693206,-0.0552833043038845,-0.0696386396884918
0,1.07777786470773,-0.158333334323963,-0.0222222230277034,-0.0696386396884918,0.151494577527046,-0.0901026204228401
0,0.983333411141879,-0.113888891307548,0.0916666697993398,0.058643065392971,0.00580321997404099,-0.0146607663482428
0,1.01805561097552,-0.134722233088466,0.0513888902767219,-0.0219911485910416,0.000610865245107561,-0.0287106670439243
0,1.02500007039179,-0.118055554801345,0.027777779924251,-0.102014496922493,0.0360410511493683,-0.0351247526705265
0,1.02361117850853,-0.0986111170596459,0.0152777788063885,-0.116980694234371,0.0925460830330849,0.0109955742955208
0,1.0125000434425,-0.0930555616825939,0.0416666683668809,-0.129808858036995,0.0045814891345799,0.0226020142436027
0,1.02222228662528,-0.0916666697993398,0.0250000007162294,-0.170125976204872,0.0390953756868839,0.0268780700862408
0,1.01527782720901,-0.100000002864918,0.030555557612777,-0.17409659922123,-0.00152716308366507,0.0491746515035629
0,1.01666671909226,-0.115277783190802,0.027777779924251,-0.179288953542709,0.0394008085131645,0.0259617734700441
0,1.00972225967599,-0.12777778582816,0.027777779924251,-0.16951510310173,0.0207694191485643,0.0277943685650826
0,1.00694447590948,-0.140277788465518,0.0458333348996699,-0.156992360949516,0.0100792767480016,0.00885754637420177
0,1.00000001649321,-0.140277788465518,0.0388888906783549,-0.148745685815811,-0.0305432621389627,0.00152716308366507
0,1.00972225967599,-0.144444451959316,0.0361111129898289,-0.151494577527046,-0.0531452745199203,-0.00122173049021512
0,1.01944450285877,-0.156944454596674,0.0347222241455659,-0.134695783257484,-0.0442877300083637,0.01191187184304
0,1.02777785415829,-0.170833336961321,0.033333335301303,-0.0931569486856461,-0.03176499158144,0.013744467869401
0,1.02916674604155,-0.181944447715425,0.0430555572111439,-0.0445931628346443,-0.0387899428606033,-0.0167987942695618
0,1.0361111082101,-0.168055565350778,0.0750000036681839,0.0488692186772823,0.0259617734700441,-0.0397062413394451
0,1.03194452980806,-0.156944454596674,0.0458333348996699,-0.0323758572340012,-0.00916297826915979,-0.0778853222727776
0,1.05555559457566,-0.151388899219622,0.0250000007162294,-0.0280998013913631,0.0668897479772568,-0.107512280344963
0,1.0361111082101,-0.141666668192807,0.0194444453391775,-0.107206851243973,0.19578230381012,-0.0907134860754013
0,1.01388893532575,-0.134722233088466,0.0388888906783549,-0.070249505341053,0.0852157026529312,-0.150883719325066
0,0.990277773310434,-0.120833338567854,0.0486111125881959,-0.0390953756868839,-0.121867619454861,-0.0861319974064827
0,0.931944508709193,-0.102777780553444,0.156944454596674,-0.253814518451691,-1.18691122531891,-0.0855211317539215
0,1.14444448060849,-0.166666673467524,-0.162500009973726,-0.078801617026329,-0.123700208961964,-0.124921940267086
0,1.19722227492443,-0.18333333959868,-0.161111118090472,-0.101709060370922,0.862236320972443,-0.0577267669141293
0,0.926388941176177,-0.190277786858986,0.12916666555545,-0.0302378293126821,0.193033412098885,-0.0488692186772823
0,0.961111141009813,-0.205555561106887,0.0250000007162294,0.0992656052112579,-0.00488692196086049,-0.0635299831628799
0,1.01666671909226,-0.170833336961321,-0.0166666676506515,0.131336033344269,-0.0152716310694814,-0.0693332031369209
0,1.09722225382557,-0.108333335930496,-0.108333335930496,-0.00488692196086049,0.921795666217804,-0.0696386396884918
0,1.06527783775844,-0.0638888929140799,0.0250000007162294,-0.0226020142436027,0.854295074939728,-0.0348193198442459
0,0.925000049292922,-0.0750000036681839,0.0944444474878658,0.017409659922123,-0.00641408516094089,0.03176499158144
0,0.959722249126559,-0.0958333393711199,0.0708333340964038,0.0745255574584007,-0.286801218986511,0.03176499158144
0,0.993055557076942,-0.108333335930496,0.0513888902767219,-0.0259617734700441,-0.459065228700638,0.0461203269660473
0,0.940277860008718,-0.14722222356986,0.0763888894734557,0.0436768643558025,-0.773660838603973,0.108734011650086
0,0.94305554652751,-0.154166670830166,0.105555564319952,0.214719131588936,-1.4834862947464,0.0687223374843597
0,1.06805562152495,-0.197222234119292,-0.03194444645704,0.15332718193531,-0.900109946727753,0.0262672062963247
0,1.16805564262381,-0.181944447715425,-0.123611110178398,0.244651526212692,-0.40225476026535,0.0558941699564457
0,1.06527783775844,-0.188888894975731,-0.0750000036681839,0.220522359013557,-0.246484130620956,0.0262672062963247
0,1.07500008094122,-0.17361112072783,-0.0972222251763917,0.163406446576118,-0.0488692186772823,0.00183259579353034
0,1.00000001649321,-0.154166670830166,-0.0388888906783549,0.209526777267456,-0.189062789082527,0.0125227374956012
0,1.00555558402623,-0.108333335930496,-0.0736111117849297,0.1795943826437,-0.139888137578964,-0.0131336031481624
0,1.02361117850853,-0.0652777787193518,-0.0583333375370279,0.123700208961964,-0.0348193198442459,-0.021685715764761
0,1.02083339474202,-0.029166668768514,-0.0625000010308258,0.0543670058250427,-0.0595593601465225,-0.0131336031481624
0,1.01388893532575,-0.0236111118719664,-0.0361111129898289,-0.0421497002243996,-0.213497400283814,0.00610865233466029
0,1.05000002704265,-0.029166668768514,-0.0916666697993398,-0.144469633698463,-0.138360977172852,0.0403171069920063
0,1.06250005399193,-0.0430555572111439,-0.0652777787193518,-0.193949714303017,-0.0574213340878487,0.0684169083833694
0,1.08472222687628,-0.0847222225390337,-0.0763888894734557,-0.221133217215538,0.0714712366461754,0.0907134860754013
0,1.04444445950963,-0.143055560076062,-0.0458333348996699,-0.235183119773865,0.409890592098236,0.151494577527046
0,1.0361111082101,-0.156944454596674,-0.0500000014324589,-0.158824965357781,0.108428582549095,0.121256753802299
0,1.0361111082101,-0.156944454596674,-0.0500000014324589,-0.121867619454861,0.154548913240433,0.0708603709936142
0,1.03888889197661,-0.170833336961321,-0.0472222237439329,-0.0815505087375641,0.164628177881241,0.0186313893646002
0,1.00972225967599,-0.156944454596674,-0.033333335301303,-0.0250454749912024,0.181732416152954,-0.0452040284872055
0,1.00972225967599,-0.156944454596674,-0.033333335301303,0.0445931628346443,0.117591559886932,-0.0555887371301651
0,1.02916674604155,-0.148611115453114,-0.0388888906783549,0.0629191175103188,0.598647952079773,-0.0171042270958424
0,0.96666670854283,-0.134722233088466,-0.0625000010308258,0.21685716509819,-0.241902634501457,-0.0455094613134861
0,1.03750000009336,-0.125000002061652,-0.0944444474878658,-0.0207694191485643,0.26908615231514,-0.0629191175103188
0,1.00416669214298,-0.10972222781375,-0.0111111115138517,0.0513126812875271,0.0613919571042061,-0.0268780700862408
0,0.998611124609959,-0.120833338567854,-0.0222222230277034,0.0665843114256859,-0.0186313893646002,-0.0452040284872055
0,1.01527782720901,-0.122222230451108,-0.0513888902767219,0.0571159012615681,-0.0186313893646002,-0.0656680166721344
0,1.04166667574312,-0.115277783190802,-0.0666666706026059,0.0113010071218014,-0.00702495034784079,-0.0568104684352875
0,1.0361111082101,-0.12777778582816,-0.0486111125881959,-0.00397062394768,0.00885754637420177,-0.00122173049021512
0,1.0361111082101,-0.166666673467524,-0.0416666683668809,0.00549778714776039,-0.0235183127224445,0.0268780700862408
0,1.04305556762637,-0.194444450352783,-0.0500000014324589,0.0244346093386412,-0.0027488935738802,0.000610865245107561
0,1.05555559457566,-0.195833342236038,-0.0486111125881959,0.00763581553474069,0.0888808965682983,-0.0247400421649218
0,1.01666671909226,-0.17361112072783,-0.0236111118719664,-0.0287106670439243,0.108734011650086,-0.0369573459029198
0,0.981944519258625,-0.161111118090472,-0.0111111115138517,0.00122173049021512,0.0791070461273193,-0.0164933614432812
0,0.977777843608863,-0.152777778946911,-0.0236111118719664,0.0479529201984406,0.0794124826788902,-0.0100792767480016
0,1.10138892947533,-0.156944454596674,-0.0763888894734557,0.0161879286170006,0.0534507073462009,-0.0140499006956816
0,1.0513889189259,-0.141666668192807,-0.0583333375370279,0.103236228227615,0.189979091286659,0.0381790772080422
0,0.940277860008718,-0.143055560076062,-0.118055554801345,0.103541657328606,0.0901026204228401,-0.0253509078174829
0,0.980555627375371,-0.126388893944906,-0.0638888929140799,0.16951510310173,-0.256257981061935,-0.0369573459029198
0,1.02222228662528,-0.134722233088466,-0.03194444645704,0.173791155219078,-0.118507854640484,-0.015577063895762
0,1.07222229717471,-0.120833338567854,-0.0458333348996699,0.120951317250729,0.04764748737216,0.0192422550171614
0,1.09861114570882,-0.125000002061652,-0.0750000036681839,0.165239050984383,0.0965167060494423,0.0433714315295219
0,1.06527783775844,-0.125000002061652,-0.0680555564078778,0.266337245702743,-0.0842994004487991,0.0595593601465225
0,1.0361111082101,-0.134722233088466,-0.055555559848502,0.335670441389084,-0.439517557621002,0.090408056974411
0,1.00555558402623,-0.154166670830166,0.00833333382532574,0.452956587076187,-0.748309910297394,0.142942473292351
0,1.04027778385987,-0.14722222356986,-0.0125000003581147,0.369268029928207,-0.39675697684288,0.139582708477974
0,1.03194452980806,-0.13750000469901,-0.0125000003581147,0.160962998867035,-0.0794124826788902,0.122478485107422
0,0.99583334084345,-0.112499999424294,0.0416666683668809,-0.0873537287116051,0.376598417758942,0.133779495954514
0,0.98888888142718,-0.118055554801345,0.0541666679652478,-0.218384325504303,0.501520395278931,0.130114302039146
0,1.01666671909226,-0.134722233088466,0.0486111125881959,-0.288939267396927,0.43860125541687,0.0971275717020035
0,1.01527782720901,-0.180555567988136,0.00416666691266287,-0.256563395261765,0.251371055841446,0.0974330082535744
0,1.11666674019113,-0.20972223675665,-0.0513888902767219,-0.218995183706284,0.770301103591919,0.0849102661013603
0,1.05555559457566,-0.224999998848587,-0.00694444498106275,0.0177150927484035,0.552833020687103,0.114231802523136
0,0.993055557076942,-0.224999998848587,0.0236111118719664,0.107512280344963,0.35491269826889,0.109650313854218
0,1.0125000434425,-0.212499996211229,0.033333335301303,0.192117124795914,0.282219737768173,0.0574213340878487
0,1.00277780025972,-0.190277786858986,0.055555559848502,0.237626582384109,0.22724187374115,0.02382374368608
0,1.01666671909226,-0.162500009973726,0.0125000003581147,0.207694187760353,0.131641462445259,0.0198531206697226
0,1.00833336779274,-0.184722231481934,0.0944444474878658,0.290771842002869,-0.166460782289505,0.103541657328606
0,1.00833336779274,-0.184722231481934,0.0944444474878658,0.275194793939591,-0.155465200543404,0.0943786799907684
0,0.956944465360051,-0.134722233088466,0.150000007336368,0.221133217215538,-0.108428582549095,0.0574213340878487
0,0.944444438410764,-0.123611110178398,0.133333341205212,0.215024560689926,-0.0800233483314514,0.0965167060494423
0,0.962500032893068,-0.115277783190802,0.144444451959316,0.171653136610985,0.11636982858181,0.101709060370922
0,1.00277780025972,-0.115277783190802,0.14583334384257,0.138055548071861,0.251676470041275,0.101709060370922
0,1.09444447005906,-0.12777778582816,0.108333335930496,0.113620936870575,0.338113903999329,0.0766635909676552
0,1.18333335609189,-0.150000007336368,0.03194444645704,0.135917514562607,0.617584764957428,0.0998764708638191
0,1.11111117265811,-0.16527778158427,0.0916666697993398,0.130114302039146,0.645990014076233,0.0931569486856461
0,1.11111117265811,-0.16527778158427,0.0916666697993398,0.150883719325066,0.289244681596756,0.0699440687894821
0,0.99583334084345,-0.138888896582264,0.120833338567854,0.15851953625679,0.330172657966614,0.0427605658769607
0,0.986111194908388,-0.123611110178398,0.144444451959316,0.142026171088219,0.436463207006455,0.0271835029125214
0,0.986111194908388,-0.123611110178398,0.144444451959316,0.19058994948864,0.183870434761047,0.0433714315295219
0,0.923611157409668,-0.113888891307548,0.186111123365188,0.186008468270302,0.0971275717020035,0.0360410511493683
0,0.930555616825939,-0.0847222225390337,0.186111123365188,0.0946841165423393,0.0244346093386412,-0.00733038317412138
0,0.930555616825939,-0.0847222225390337,0.186111123365188,0.102319926023483,-0.0204639863222837,0.0146607663482428
0,1.00277780025972,-0.10972222781375,0.156944454596674,-0.01191187184304,0.153632611036301,0.0400116741657257
0,0.977777843608863,-0.162500009973726,0.156944454596674,-0.0103847095742822,-0.00519235478714108,0.0632245540618896
0,0.977777843608863,-0.162500009973726,0.156944454596674,-0.0577267669141293,0.0207694191485643,0.0125227374956012
0,1.04027778385987,-0.105555564319952,0.118055554801345,-0.125838235020638,0.123089343309402,0.0531452745199203
0,0.98888888142718,-0.133333341205212,0.181944447715425,-0.115453533828259,0.0943786799907684,0.0937678143382072
0,0.951388897827035,-0.17361112072783,0.198611113846581,-0.0635299831628799,-0.170431405305862,0.116980694234371
0,0.951388897827035,-0.17361112072783,0.198611113846581,0.000305432622553781,-0.325896620750427,0.102625362575054
0,0.962500032893068,-0.18333333959868,0.206944452990142,0.0919352173805237,-0.224187538027763,0.0891863256692886
0,1.02638896227504,-0.187500003092477,0.14722222356986,0.0363464802503586,0.0164933614432812,0.0699440687894821
0,0.940277860008718,-0.163888889701015,0.230555566381603,-0.120645888149738,-0.315817326307297,0.0595593601465225
0,0.922222265526414,-0.156944454596674,0.16527778158427,-0.139888137578964,-0.154854342341423,0.0302378293126821
0,0.95000000594378,-0.195833342236038,0.161111118090472,0.0519235469400883,-0.205861583352089,0.0607810914516449
0,1.12499999424293,-0.24583335278547,0.0930555616825939,0.0726929605007172,-0.0406225398182869,0.0791070461273193
0,1.23611115040783,-0.250000004123303,0.0569444456537738,0.140804439783096,0.133168622851372,0.122783914208412
0,1.18750003174166,-0.233333350148112,0.055555559848502,0.115453533828259,0.149661988019943,0.108123145997524
0,1.05277781080915,-0.190277786858986,0.0972222251763917,0.0537561401724815,0.0708603709936142,0.0620028227567673
0,0.933333400592447,-0.148611115453114,0.130555557438704,-0.0387899428606033,-0.0348193198442459,0.0149661982432008
0,0.887500065692777,-0.125000002061652,0.133333341205212,-0.0983493030071259,-0.070249505341053,0.0113010071218014
0,0.89722221162784,-0.116666675074056,0.138888896582264,-0.102930791676045,-0.0937678143382072,-0.0122173046693206
0,0.940277860008718,-0.130555557438704,0.134722233088466,-0.0839939713478088,-0.106595985591412,-0.0690277740359306
0,0.991666665193688,-0.148611115453114,0.12777778582816,-0.0204639863222837,-0.107512280344963,-0.151494577527046
0,1.02638896227504,-0.14583334384257,0.108333335930496,-0.00244346098043024,-0.10048733651638,-0.197614908218384
0,1.06250005399193,-0.115277783190802,0.0833333367337618,-0.0458148941397667,-0.0870482996106148,-0.218689754605293
0,1.07500008094122,-0.0847222225390337,0.0680555564078778,-0.157297804951668,-0.05283984541893,-0.166460782289505
0,1.06527783775844,-0.0500000014324589,0.0722222259796579,-0.278554558753967,0.0103847095742822,-0.0922406539320946
0,1.0361111082101,-0.055555559848502,0.0819444448505077,-0.385150551795959,0.0244346093386412,-0.0033597587607801
0,1.00555558402623,-0.0888888921108138,0.0944444474878658,-0.419053554534912,0.0149661982432008,0.0519235469400883
0,0.979166735492117,-0.144444451959316,0.105555564319952,-0.389426589012146,-0.0345138870179653,0.0537561401724815
0,0.977777843608863,-0.200000005729836,0.102777780553444,-0.299629390239716,-0.0626136884093285,0.00366519158706069
0,0.98888888142718,-0.250000004123303,0.0902777839940679,-0.202807262539864,-0.070249505341053,-0.0534507073462009
0,1.00972225967599,-0.279166685047782,0.0819444448505077,-0.0543670058250427,-0.0791070461273193,-0.156992360949516
0,1.0125000434425,-0.288888903918631,0.0763888894734557,0.0326812900602817,-0.0806342139840126,-0.202807262539864
0,1.01805561097552,-0.268055574293678,0.0611111152255539,0.0824668109416962,-0.0968221426010132,-0.211053937673569
0,1.02500007039179,-0.248611112240049,0.0472222237439329,0.101403631269932,-0.0959058403968811,-0.171042263507843
0,1.02777785415829,-0.234722242031366,0.0416666683668809,0.0943786799907684,-0.0922406539320946,-0.128281697630882
0,1.02083339474202,-0.227777782615095,0.0444444460554069,0.0925460830330849,-0.0742201283574104,-0.0983493030071259
0,1.02916674604155,-0.243055569018962,0.0625000010308258,0.0836885422468185,0.00549778714776039,-0.0971275717020035
0,1.01527782720901,-0.247222220356795,0.0416666683668809,0.0739146918058395,0.00549778714776039,-0.126449108123779
0,0.99583334084345,-0.252777787889811,0.0347222241455659,0.0745255574584007,-0.0143553335219622,-0.147523954510689
0,1.00000001649321,-0.272222225631511,0.0500000014324589,0.171653136610985,-0.0565050356090069,-0.165239050984383
0,0.991666665193688,-0.33750002258481,0.026388891079988,0.35979962348938,-0.0705549344420433,-0.251371055841446
0,1.00972225967599,-0.166666673467524,0.0875000002275597,0.17440202832222,-0.699746131896973,0.147523954510689
0,1.20555562622396,0.0944444474878658,0.0500000014324589,-0.394008070230484,0.759610950946808,-0.058643065392971
0,0.92083337364316,0.308333341660331,-0.0361111129898289,-0.584292590618134,0.511294186115265,-0.102930791676045
0,1.04166667574312,0.123611110178398,0.105555564319952,-0.980744123458862,0.397062420845032,-0.0665843114256859
0,0.941666654644256,-0.161111118090472,0.154166670830166,-0.530536472797394,0.0146607663482428,-0.101403631269932
0,1.00555558402623,-0.309722233543585,0.125000002061652,-0.15851953625679,-0.181121543049812,-0.0708603709936142
0,1.04722224327614,-0.320833344297689,0.0694444482911319,0.105068825185299,-0.0739146918058395,-0.127670839428902
0,1.02500007039179,-0.29166668768514,0.0416666683668809,0.211664810776711,-0.0757472887635231,-0.15332718193531
0,1.00555558402623,-0.250000004123303,0.0486111125881959,0.1795943826437,-0.144164204597473,-0.116675265133381
0,1.01388893532575,-0.206944452990142,0.055555559848502,0.143247902393341,-0.19058994948864,-0.0470366254448891
0,1.02777785415829,-0.17361112072783,0.0208333341834404,0.10567969083786,-0.130114302039146,0.00794124789535999
0,1.02916674604155,-0.116666675074056,0.0208333341834404,0.0500909499824047,-0.070249505341053,0.0122173046693206
0,1.03194452980806,-0.0777777813567098,-0.00138888893923146,0.00733038317412138,-0.000305432622553781,-0.01191187184304
0,1.02500007039179,-0.0652777787193518,0.0180555564949145,-0.0143553335219622,0.076052725315094,-0.0284052342176437
0,1.02500007039179,-0.0694444482911319,0.03194444645704,-0.0164933614432812,0.132863193750381,-0.0461203269660473
0,1.02500007039179,-0.0694444482911319,0.03194444645704,-0.0247400421649218,0.134390354156494,-0.0485637858510017
0,1.00555558402623,-0.0972222251763917,0.0666666706026059,-0.0262672062963247,0.0714712366461754,-0.0403171069920063
0,1.02500007039179,-0.106944444047242,0.0569444456537738,-0.0464257597923279,-0.00580321997404099,0.021685715764761
0,1.02500007039179,-0.106944444047242,0.0569444456537738,-0.0849102661013603,-0.0167987942695618,0.0956004112958908
0,1.02916674604155,-0.10972222781375,0.0347222241455659,-0.12705996632576,-0.027488935738802,0.183870434761047
0,1.02361117850853,-0.0902777839940679,0.0388888906783549,-0.183259576559067,-0.10048733651638,0.25961771607399
0,1.04305556762637,-0.166666673467524,0.026388891079988,-0.153938040137291,-0.15332718193531,0.303600013256073
0,1.04583335139288,-0.180555567988136,0.0194444453391775,-0.137750118970871,-0.145385921001434,0.299018532037735
0,1.03888889197661,-0.204166669223633,0.00694444498106275,-0.1750128865242,-0.0339030213654041,0.208305045962334
0,1.03888889197661,-0.204166669223633,0.00694444498106275,-0.146302223205566,-0.0516181141138077,0.119424156844616
0,1.03472221632685,-0.250000004123303,0.0361111129898289,-0.0919352173805237,-0.01191187184304,0.0696386396884918
0,1.04027778385987,-0.252777787889811,0.0375000018340919,-0.0027488935738802,0.0241291765123606,0.0433714315295219
0,1.04027778385987,-0.252777787889811,0.0375000018340919,0.0830776765942574,0.0455094613134861,-0.0149661982432008
0,1.00000001649321,-0.236111109602691,0.0680555564078778,0.15851953625679,0.00641408516094089,-0.0467311926186085
0,0.990277773310434,-0.223611131277262,0.0680555564078778,0.182954147458077,-0.0146607663482428,-0.0647517144680023
0,0.983333411141879,-0.193055558469529,0.0583333375370279,0.205861583352089,-0.00733038317412138,-0.0784961804747581
0,0.99583334084345,-0.172222228844576,0.055555559848502,0.211664810776711,0.0345138870179653,-0.0665843114256859
0,1.02083339474202,-0.161111118090472,0.0458333348996699,0.222660377621651,0.105068825185299,-0.0959058403968811
0,1.02361117850853,-0.162500009973726,0.0472222237439329,0.214719131588936,0.10048733651638,-0.090408056974411
0,1.02222228662528,-0.156944454596674,0.0652777787193518,0.19058994948864,0.0613919571042061,-0.090408056974411
0,1.02638896227504,-0.159722226207217,0.0805555590452358,0.136528387665749,0.0271835029125214,-0.0635299831628799
0,1.03194452980806,-0.14583334384257,0.055555559848502,0.0974330082535744,0.0390953756868839,-0.0314595587551594
0,1.0361111082101,-0.133333341205212,0.0472222237439329,0.0687223374843597,0.0497855171561241,-0.00702495034784079
0,1.03194452980806,-0.12916666555545,0.0694444482911319,0.0497855171561241,0.0641408488154411,0.0290160998702049
5,1.02916674604155,-0.13750000469901,0.0680555564078778,0.0369573459029198,0.0372627787292004,0.0409279726445675
5,1.02777785415829,-0.14583334384257,0.0819444448505077,0.03176499158144,0.0277943685650826,0.0390953756868839
5,1.01944450285877,-0.151388899219622,0.0736111117849297,0.0262672062963247,0.0335975885391235,0.0369573459029198
5,1.0125000434425,-0.144444451959316,0.0805555590452358,0.0226020142436027,0.0235183127224445,0.0519235469400883
5,1.00416669214298,-0.151388899219622,0.0638888929140799,0.0280998013913631,0.00824668072164059,0.0574213340878487
5,1.00833336779274,-0.158333334323963,0.0708333340964038,0.0430659987032413,0.00519235478714108,0.0485637858510017
5,1.01527782720901,-0.166666673467524,0.0736111117849297,0.0473420582711697,-0.00671951752156019,0.0445931628346443
5,1.01527782720901,-0.16527778158427,0.0722222259796579,0.064446285367012,-0.00702495034784079,0.0430659987032413
5,1.01944450285877,-0.166666673467524,0.0861111144222878,0.0623082555830479,-0.00733038317412138,0.0510072484612465
5,1.01944450285877,-0.158333334323963,0.0652777787193518,0.0589484944939613,-0.0229074470698834,0.0656680166721344
5,1.02083339474202,-0.159722226207217,0.0680555564078778,0.0284052342176437,-0.0250454749912024,0.0842994004487991
5,1.02083339474202,-0.159722226207217,0.0680555564078778,0.0284052342176437,-0.0250454749912024,0.0842994004487991
5,1.02777785415829,-0.166666673467524,0.0777777813567098,0.0363464802503586,-0.0180205255746841,0.0803287774324417
5,1.02777785415829,-0.166666673467524,0.0777777813567098,0.0268780700862408,-0.00152716308366507,0.0571159012615681
5,1.01944450285877,-0.163888889701015,0.0694444482911319,0.03176499158144,0.0226020142436027,0.0537561401724815
5,1.00833336779274,-0.166666673467524,0.0875000002275597,0.0412334054708481,0.0140499006956816,0.0244346093386412
5,1.00416669214298,-0.170833336961321,0.0750000036681839,0.0430659987032413,0.0171042270958424,0.00152716308366507
5,1.00416669214298,-0.170833336961321,0.0750000036681839,0.0418442711234093,-0.00366519158706069,0.0033597587607801
5,1.00972225967599,-0.166666673467524,0.0819444448505077,0.0366519130766392,-0.00641408516094089,0.00122173049021512
5,1.00972225967599,-0.166666673467524,0.0819444448505077,0.0394008085131645,0.00183259579353034,-0.00183259579353034
5,1.01944450285877,-0.170833336961321,0.0861111144222878,0.037568211555481,0.0149661982432008,-0.00702495034784079
5,1.0125000434425,-0.17361112072783,0.0750000036681839,0.0305432621389627,0.0207694191485643,0.00244346098043024
5,1.0125000434425,-0.168055565350778,0.0736111117849297,0.0348193198442459,0.0131336031481624,0.000305432622553781
5,1.01944450285877,-0.168055565350778,0.0736111117849297,0.0253509078174829,0.000305432622553781,0.017409659922123
5,1.01805561097552,-0.170833336961321,0.0708333340964038,0.0222965814173222,0.0045814891345799,0.00885754637420177
5,1.02222228662528,-0.170833336961321,0.0652777787193518,0.0222965814173222,0.0183259565383196,-0.0033597587607801
5,1.01527782720901,-0.175000000455119,0.0694444482911319,0.0167987942695618,0.00946841109544039,-0.0033597587607801
5,1.02083339474202,-0.169444445078067,0.0722222259796579,0.01191187184304,0.0033597587607801,-0.00610865233466029
5,1.01527782720901,-0.17361112072783,0.0777777813567098,0.0183259565383196,0.0100792767480016,-0.0149661982432008
5,1.01527782720901,-0.177777784221628,0.0777777813567098,0.0219911485910416,0.00122173049021512,-0.0183259565383196
5,1.01388893532575,-0.180555567988136,0.0722222259796579,0.0256563406437635,-0.0106901414692402,-0.01588249579072
5,1.01666671909226,-0.181944447715425,0.0722222259796579,0.029626963660121,-0.0189368221908808,-0.00519235478714108
5,1.01527782720901,-0.166666673467524,0.0750000036681839,0.027488935738802,-0.02382374368608,-0.00488692196086049
5,1.01388893532575,-0.162500009973726,0.0736111117849297,0.0372627787292004,-0.0262672062963247,-0.0100792767480016
5,1.01666671909226,-0.166666673467524,0.0875000002275597,0.0430659987032413,-0.00702495034784079,-0.00122173049021512
5,1.02083339474202,-0.166666673467524,0.0805555590452358,0.0366519130766392,-0.00427605677396059,0.00122173049021512
5,1.01805561097552,-0.166666673467524,0.0819444448505077,0.0332921557128429,-0.00885754637420177,0.0100792767480016
5,1.01527782720901,-0.161111118090472,0.0722222259796579,0.0363464802503586,-0.00610865233466029,0.00702495034784079
5,1.01527782720901,-0.166666673467524,0.0722222259796579,0.0342084541916847,-0.01191187184304,0.00152716308366507
5,1.01944450285877,-0.166666673467524,0.0750000036681839,0.0284052342176437,-0.0125227374956012,0.00885754637420177
5,1.02222228662528,-0.168055565350778,0.0750000036681839,0.0354301854968071,-0.00702495034784079,0.00885754637420177
5,1.02083339474202,-0.172222228844576,0.0777777813567098,0.0452040284872055,-0.0033597587607801,0.0045814891345799
5,1.01944450285877,-0.17361112072783,0.0722222259796579,0.0522289797663689,-0.00641408516094089,0.00580321997404099
5,1.01388893532575,-0.17361112072783,0.0833333367337618,0.0561996027827263,-0.013744467869401,0.00641408516094089
5,1.01388893532575,-0.166666673467524,0.0819444448505077,0.0522289797663689,-0.017409659922123,0.0143553335219622
5,1.01527782720901,-0.162500009973726,0.0694444482911319,0.05283984541893,-0.0290160998702049,0.0171042270958424
5,1.01527782720901,-0.163888889701015,0.0833333367337618,0.0662788823246956,-0.019547687843442,0.0186313893646002
5,1.01666671909226,-0.16527778158427,0.0736111117849297,0.0812450796365738,-0.0122173046693206,0.00794124789535999
5,1.02083339474202,-0.168055565350778,0.0805555590452358,0.0781907513737679,0.000610865245107561,-0.000610865245107561
5,1.01666671909226,-0.166666673467524,0.0777777813567098,0.0839939713478088,0.00610865233466029,0.00885754637420177
5,1.01805561097552,-0.169444445078067,0.0763888894734557,0.0781907513737679,0.00488692196086049,0.0113010071218014
5,1.01666671909226,-0.166666673467524,0.0819444448505077,0.0821613743901253,-0.00397062394768,0.00488692196086049
5,1.02500007039179,-0.158333334323963,0.0763888894734557,0.0754418596625328,-0.0100792767480016,-0.000610865245107561
5,1.02083339474202,-0.158333334323963,0.0819444448505077,0.0717766657471657,-0.00610865233466029,0.01191187184304
5,1.01527782720901,-0.154166670830166,0.0652777787193518,0.0662788823246956,-0.000610865245107561,0.0152716310694814
5,1.0125000434425,-0.158333334323963,0.0847222225390337,0.0565050356090069,-0.00946841109544039,0.00610865233466029
5,1.0125000434425,-0.163888889701015,0.0722222259796579,0.0400116741657257,-0.00549778714776039,0.01191187184304
5,1.01527782720901,-0.158333334323963,0.0694444482911319,0.0311541277915239,-0.013744467869401,0.00671951752156019
5,1.01944450285877,-0.156944454596674,0.0722222259796579,0.0268780700862408,-0.0103847095742822,0.00519235478714108
5,1.01944450285877,-0.161111118090472,0.0708333340964038,0.0177150927484035,0.00152716308366507,0.0033597587607801
5,1.01527782720901,-0.159722226207217,0.0652777787193518,0.00824668072164059,-0.00427605677396059,0.00763581553474069
5,1.02083339474202,-0.156944454596674,0.0652777787193518,-0.0122173046693206,-0.00855211354792118,0.017409659922123
5,1.01944450285877,-0.161111118090472,0.0680555564078778,-0.0293215326964855,-0.00610865233466029,0.0125227374956012
5,1.02083339474202,-0.163888889701015,0.0750000036681839,-0.0342084541916847,-0.000305432622553781,0.00733038317412138
5,1.02777785415829,-0.163888889701015,0.0694444482911319,-0.0412334054708481,0.00946841109544039,0.0113010071218014
5,1.02777785415829,-0.169444445078067,0.0680555564078778,-0.0549778714776039,0.00946841109544039,0.0106901414692402
5,1.02500007039179,-0.16527778158427,0.0625000010308258,-0.0665843114256859,0.0113010071218014,0.00305432616733015
5,1.01527782720901,-0.163888889701015,0.0652777787193518,-0.0711658000946045,0.0128281703218818,-0.0045814891345799
5,1.01805561097552,-0.163888889701015,0.0680555564078778,-0.0745255574584007,0.00794124789535999,-0.00244346098043024
5,1.01944450285877,-0.168055565350778,0.0750000036681839,-0.0729983970522881,0.01588249579072,-0.00671951752156019
5,1.02222228662528,-0.166666673467524,0.0736111117849297,-0.0726929605007172,0.0229074470698834,0.000610865245107561
5,1.02083339474202,-0.180555567988136,0.0819444448505077,-0.0815505087375641,0.0262672062963247,-0.00641408516094089
5,1.0125000434425,-0.18333333959868,0.0791666671619817,-0.0668897479772568,0.0241291765123606,0.0125227374956012
5,1.0125000434425,-0.18333333959868,0.0722222259796579,-0.0699440687894821,0.0201585534960032,0.01191187184304
5,1.0125000434425,-0.18333333959868,0.0722222259796579,-0.0543670058250427,0.0100792767480016,0.0122173046693206
5,1.0125000434425,-0.181944447715425,0.0708333340964038,-0.0546724386513233,-0.00610865233466029,0.0134390350431204
5,1.01527782720901,-0.179166676104882,0.0750000036681839,-0.0458148941397667,-0.00977384392172098,0.0186313893646002
5,1.01527782720901,-0.179166676104882,0.0750000036681839,-0.0339030213654041,0.000610865245107561,0.0177150927484035
5,1.01944450285877,-0.180555567988136,0.0736111117849297,-0.0201585534960032,0.00519235478714108,0.0192422550171614
5,1.01666671909226,-0.179166676104882,0.0805555590452358,-0.0146607663482428,0.00702495034784079,0.0189368221908808
5,1.01666671909226,-0.179166676104882,0.0805555590452358,0.00305432616733015,0.000916297896765172,0.011606439948082
5,1.00972225967599,-0.181944447715425,0.0847222225390337,0.00916297826915979,0.00366519158706069,0.00946841109544039
5,1.0125000434425,-0.179166676104882,0.0833333367337618,0.015577063895762,-0.0021380283869803,0.0146607663482428
5,1.01527782720901,-0.18333333959868,0.0722222259796579,0.0210748501121998,-0.0122173046693206,0.00763581553474069
5,1.01666671909226,-0.17361112072783,0.0652777787193518,0.0244346093386412,-0.00152716308366507,0.00122173049021512
5,1.01805561097552,-0.177777784221628,0.0805555590452358,0.0290160998702049,0.00549778714776039,0.00152716308366507
5,1.02083339474202,-0.177777784221628,0.0763888894734557,0.029626963660121,0.00580321997404099,-0.00244346098043024
5,1.01805561097552,-0.176388892338373,0.0750000036681839,0.0397062413394451,-0.000610865245107561,-0.0027488935738802
5,1.01944450285877,-0.172222228844576,0.0819444448505077,0.0452040284872055,-0.00122173049021512,-0.00977384392172098
5,1.01666671909226,-0.170833336961321,0.0875000002275597,0.0339030213654041,-0.00244346098043024,-0.000305432622553781
5,1.01944450285877,-0.17361112072783,0.0763888894734557,0.0339030213654041,-0.0021380283869803,-0.00519235478714108
5,1.00972225967599,-0.161111118090472,0.0680555564078778,0.021685715764761,-0.00152716308366507,-0.00946841109544039
5,1.01111115155925,-0.17361112072783,0.0680555564078778,0.0186313893646002,-0.00977384392172098,-0.0109955742955208
5,1.01527782720901,-0.170833336961321,0.0583333375370279,0.0229074470698834,-0.0180205255746841,-0.00855211354792118
5,1.01527782720901,-0.170833336961321,0.0652777787193518,0.0381790772080422,-0.0125227374956012,-0.0198531206697226
5,1.01527782720901,-0.175000000455119,0.0736111117849297,0.0400116741657257,-0.0122173046693206,-0.0201585534960032
5,1.01388893532575,-0.172222228844576,0.0777777813567098,0.0180205255746841,-0.00549778714776039,-0.0247400421649218
5,1.01944450285877,-0.168055565350778,0.0722222259796579,0.0247400421649218,-0.00122173049021512,-0.0149661982432008
5,1.01527782720901,-0.16527778158427,0.0791666671619817,0.0177150927484035,0.000305432622553781,-0.0232128798961639
5,1.01666671909226,-0.163888889701015,0.0777777813567098,0.00946841109544039,-0.0027488935738802,-0.0177150927484035
5,1.01527782720901,-0.166666673467524,0.0819444448505077,-0.0033597587607801,-0.00702495034784079,-0.0167987942695618
5,1.01527782720901,-0.166666673467524,0.0819444448505077,-0.00305432616733015,0.000305432622553781,-0.0241291765123606
5,1.01666671909226,-0.170833336961321,0.0777777813567098,-0.00916297826915979,0.00488692196086049,-0.0265726372599602
5,1.01944450285877,-0.172222228844576,0.0708333340964038,-0.00610865233466029,-0.000305432622553781,-0.0363464802503586
5,1.01527782720901,-0.17361112072783,0.0750000036681839,-0.0167987942695618,0.0106901414692402,-0.037568211555481
5,1.01527782720901,-0.17361112072783,0.0736111117849297,-0.00702495034784079,0.0103847095742822,-0.0256563406437635
5,1.00972225967599,-0.169444445078067,0.0680555564078778,-0.0021380283869803,0.00366519158706069,-0.0339030213654041
5,1.01805561097552,-0.169444445078067,0.0722222259796579,-0.00549778714776039,-0.000305432622553781,-0.0222965814173222
5,1.01527782720901,-0.168055565350778,0.0652777787193518,-0.011606439948082,-0.000916297896765172,-0.0167987942695618
5,1.01388893532575,-0.169444445078067,0.0708333340964038,-0.0277943685650826,0.000916297896765172,-0.0134390350431204
5,1.01527782720901,-0.166666673467524,0.0722222259796579,-0.0256563406437635,-0.00610865233466029,-0.00641408516094089
5,1.01527782720901,-0.17361112072783,0.0638888929140799,-0.0250454749912024,-0.00152716308366507,-0.011606439948082
5,1.01666671909226,-0.166666673467524,0.0652777787193518,-0.0213802829384804,-0.0033597587607801,-0.00610865233466029
5,1.01666671909226,-0.161111118090472,0.0583333375370279,-0.0250454749912024,0.00488692196086049,-0.00671951752156019
5,1.01388893532575,-0.163888889701015,0.0722222259796579,-0.0287106670439243,0.00824668072164059,-0.0134390350431204
5,1.01944450285877,-0.168055565350778,0.0736111117849297,-0.0268780700862408,0.0045814891345799,-0.0021380283869803
5,1.01666671909226,-0.168055565350778,0.0777777813567098,-0.0268780700862408,0.0045814891345799,-0.00671951752156019
5,1.01805561097552,-0.16527778158427,0.0750000036681839,-0.0287106670439243,-0.00183259579353034,-0.0106901414692402
5,1.01666671909226,-0.169444445078067,0.0861111144222878,-0.0180205255746841,0.00244346098043024,-0.00946841109544039
5,1.0125000434425,-0.170833336961321,0.0722222259796579,-0.0213802829384804,0.0045814891345799,-0.0021380283869803
5,1.02222228662528,-0.169444445078067,0.0750000036681839,-0.0131336031481624,-0.00152716308366507,-0.00488692196086049
5,1.02222228662528,-0.170833336961321,0.0680555564078778,-0.0128281703218818,0.0045814891345799,-0.00366519158706069
5,1.02222228662528,-0.169444445078067,0.0666666706026059,-0.00580321997404099,0.00794124789535999,-0.0201585534960032
5,1.01944450285877,-0.163888889701015,0.0652777787193518,-0.0149661982432008,-0.000610865245107561,-0.0180205255746841
5,1.02222228662528,-0.156944454596674,0.0652777787193518,-0.0100792767480016,0.00641408516094089,-0.0229074470698834
5,1.02361117850853,-0.159722226207217,0.0680555564078778,-0.0192422550171614,0.0045814891345799,-0.0100792767480016
5,1.02222228662528,-0.163888889701015,0.0694444482911319,-0.0247400421649218,0.00733038317412138,-0.00427605677396059
5,1.01944450285877,-0.163888889701015,0.0652777787193518,-0.02382374368608,0.00977384392172098,-0.00122173049021512
5,1.01666671909226,-0.162500009973726,0.0680555564078778,-0.0125227374956012,0.00397062394768,-0.00244346098043024
5,1.0125000434425,-0.16527778158427,0.0680555564078778,-0.00641408516094089,-0.000305432622553781,-0.00946841109544039
5,1.0125000434425,-0.170833336961321,0.0750000036681839,-0.0033597587607801,-0.00855211354792118,-0.00885754637420177
5,1.01666671909226,-0.163888889701015,0.0611111152255539,0.00549778714776039,-0.00916297826915979,-0.00427605677396059
5,1.01944450285877,-0.163888889701015,0.0625000010308258,0.00397062394768,-0.00244346098043024,-0.000305432622553781
5,1.02361117850853,-0.163888889701015,0.0722222259796579,0.00549778714776039,0.00733038317412138,0.00580321997404099
5,1.01944450285877,-0.161111118090472,0.0722222259796579,0.00794124789535999,0.00549778714776039,-0.000610865245107561
5,1.01666671909226,-0.162500009973726,0.0722222259796579,0.0131336031481624,0.00580321997404099,0.000916297896765172
5,1.01944450285877,-0.166666673467524,0.0680555564078778,0.0122173046693206,-0.000916297896765172,-0.0134390350431204
5,1.01666671909226,-0.163888889701015,0.0666666706026059,0.0235183127224445,0.00122173049021512,0.000916297896765172
5,1.01805561097552,-0.162500009973726,0.0652777787193518,0.0293215326964855,-0.00427605677396059,-0.00427605677396059
5,1.01944450285877,-0.163888889701015,0.0583333375370279,0.0311541277915239,-0.0033597587607801,-0.00427605677396059
5,1.01944450285877,-0.161111118090472,0.0680555564078778,0.0403171069920063,0.000916297896765172,0.00397062394768
5,1.01527782720901,-0.161111118090472,0.0750000036681839,0.0479529201984406,0.00488692196086049,-0.00763581553474069
5,1.01666671909226,-0.156944454596674,0.0722222259796579,0.0436768643558025,-0.00488692196086049,-0.00855211354792118
5,1.01805561097552,-0.156944454596674,0.0777777813567098,0.0494800843298435,0.00305432616733015,-0.0149661982432008
5,1.01805561097552,-0.154166670830166,0.0722222259796579,0.0479529201984406,0.00183259579353034,-0.0219911485910416
5,1.01527782720901,-0.152777778946911,0.0680555564078778,0.0445931628346443,-0.00183259579353034,-0.0198531206697226
5,1.01805561097552,-0.154166670830166,0.0680555564078778,0.0387899428606033,0.00580321997404099,-0.0164933614432812
5,1.01805561097552,-0.154166670830166,0.0708333340964038,0.0360410511493683,0.00397062394768,-0.0164933614432812
5,1.01944450285877,-0.158333334323963,0.0694444482911319,0.0357356183230877,0.00855211354792118,-0.0183259565383196
5,1.01527782720901,-0.154166670830166,0.0736111117849297,0.0360410511493683,0.00763581553474069,-0.0210748501121998
5,1.01805561097552,-0.154166670830166,0.0708333340964038,0.0290160998702049,0.00885754637420177,-0.0326812900602817
5,1.01527782720901,-0.154166670830166,0.0722222259796579,0.0332921557128429,-0.0045814891345799,-0.0284052342176437
5,1.01666671909226,-0.156944454596674,0.0736111117849297,0.0332921557128429,-0.00977384392172098,-0.0259617734700441
5,1.01805561097552,-0.156944454596674,0.0652777787193518,0.0271835029125214,-0.0021380283869803,-0.0149661982432008
5,1.01944450285877,-0.152777778946911,0.0722222259796579,0.0183259565383196,0.00427605677396059,-0.00610865233466029
5,1.01944450285877,-0.152777778946911,0.0625000010308258,0.0033597587607801,0.000610865245107561,-0.000610865245107561
5,1.01805561097552,-0.151388899219622,0.0694444482911319,-0.00977384392172098,-0.000916297896765172,0.00580321997404099
5,1.01527782720901,-0.161111118090472,0.0722222259796579,-0.00885754637420177,0.000916297896765172,0.0021380283869803
5,1.0125000434425,-0.161111118090472,0.0680555564078778,-0.0146607663482428,-0.00183259579353034,0.0021380283869803
5,1.01944450285877,-0.156944454596674,0.0680555564078778,-0.00763581553474069,-0.00794124789535999,0.00580321997404099
5,1.01666671909226,-0.151388899219622,0.0680555564078778,-0.0164933614432812,0.00519235478714108,0.000916297896765172
5,1.01944450285877,-0.148611115453114,0.0722222259796579,-0.0167987942695618,0.00671951752156019,0.0152716310694814
5,1.02222228662528,-0.150000007336368,0.0763888894734557,-0.0201585534960032,0.000610865245107561,0.0100792767480016
5,1.02222228662528,-0.150000007336368,0.0777777813567098,-0.0308486949652433,0.00610865233466029,0.0167987942695618
5,1.02083339474202,-0.15555556271342,0.0847222225390337,-0.0244346093386412,0.00427605677396059,0.0103847095742822
5,1.02083339474202,-0.15555556271342,0.0847222225390337,-0.0219911485910416,0.00580321997404099,0.00549778714776039
5,1.01805561097552,-0.144444451959316,0.0694444482911319,-0.0271835029125214,-0.00519235478714108,0.01191187184304
5,1.01944450285877,-0.154166670830166,0.0694444482911319,-0.0381790772080422,0.000610865245107561,0.0106901414692402
5,1.01944450285877,-0.154166670830166,0.0694444482911319,-0.0247400421649218,0.00152716308366507,0.0027488935738802
5,1.01666671909226,-0.156944454596674,0.0694444482911319,-0.0204639863222837,0.00946841109544039,0.0033597587607801
5,1.02083339474202,-0.15555556271342,0.0652777787193518,-0.0213802829384804,0.00427605677396059,0.00519235478714108
5,1.02083339474202,-0.15555556271342,0.0652777787193518,-0.0128281703218818,0.00610865233466029,0.00519235478714108
5,1.00972225967599,-0.158333334323963,0.0680555564078778,-0.0100792767480016,0.00305432616733015,0.00488692196086049
5,1.0125000434425,-0.166666673467524,0.0680555564078778,-0.00305432616733015,-0.011606439948082,-0.0021380283869803
5,1.01527782720901,-0.162500009973726,0.0750000036681839,-0.000305432622553781,-0.00519235478714108,-0.0027488935738802
5,1.02361117850853,-0.156944454596674,0.0597222233422998,-0.00488692196086049,0.00855211354792118,0.00305432616733015
5,1.02361117850853,-0.152777778946911,0.0694444482911319,-0.00733038317412138,0.0189368221908808,-0.00702495034784079
5,1.01666671909226,-0.154166670830166,0.0777777813567098,-0.00641408516094089,0.000305432622553781,-0.0045814891345799
5,1.01527782720901,-0.156944454596674,0.0819444448505077,-0.0027488935738802,-0.00122173049021512,-0.00610865233466029
5,1.01527782720901,-0.154166670830166,0.0750000036681839,-0.0033597587607801,0.0027488935738802,0.00366519158706069
5,1.01805561097552,-0.159722226207217,0.0625000010308258,-0.00397062394768,-0.000305432622553781,0.00488692196086049
5,1.01666671909226,-0.156944454596674,0.0722222259796579,-0.00244346098043024,-0.00519235478714108,-0.0045814891345799
5,1.01527782720901,-0.159722226207217,0.0750000036681839,0.00397062394768,-0.00794124789535999,-0.00610865233466029
5,1.01944450285877,-0.163888889701015,0.0666666706026059,0.00152716308366507,0.00641408516094089,-0.00824668072164059
5,1.01944450285877,-0.159722226207217,0.0680555564078778,-0.00244346098043024,0.00977384392172098,-0.0109955742955208
5,1.01666671909226,-0.161111118090472,0.0666666706026059,0.00244346098043024,0.00824668072164059,-0.0106901414692402
5,1.01944450285877,-0.161111118090472,0.0694444482911319,0.01191187184304,0.000305432622553781,-0.00977384392172098
5,1.02083339474202,-0.156944454596674,0.0652777787193518,0.0134390350431204,-0.00733038317412138,-0.00549778714776039
5,1.01944450285877,-0.154166670830166,0.0708333340964038,0.0143553335219622,-0.00733038317412138,-0.0113010071218014
5,1.01944450285877,-0.151388899219622,0.0652777787193518,-0.00183259579353034,0.00244346098043024,0.00519235478714108
5,1.02222228662528,-0.152777778946911,0.0652777787193518,-0.00244346098043024,0.00366519158706069,0.00488692196086049
5,1.02222228662528,-0.158333334323963,0.0736111117849297,0.0045814891345799,-0.00397062394768,0.0021380283869803
5,1.01944450285877,-0.161111118090472,0.0777777813567098,0.00885754637420177,0.000610865245107561,0.000916297896765172
5,1.02222228662528,-0.156944454596674,0.0694444482911319,0.00305432616733015,-0.0033597587607801,0.00366519158706069
5,1.02083339474202,-0.150000007336368,0.0680555564078778,-0.00885754637420177,0.000610865245107561,0.00885754637420177
5,1.01527782720901,-0.15555556271342,0.0722222259796579,-0.00824668072164059,0.00305432616733015,0.00855211354792118
5,1.01527782720901,-0.156944454596674,0.0750000036681839,-0.00794124789535999,0.00183259579353034,0.0247400421649218
5,1.01388893532575,-0.16527778158427,0.0750000036681839,-0.000916297896765172,0.0033597587607801,0.0103847095742822
5,1.01527782720901,-0.163888889701015,0.0736111117849297,0.0103847095742822,-0.00305432616733015,0.00641408516094089
5,1.01944450285877,-0.163888889701015,0.0750000036681839,0.00549778714776039,0.00305432616733015,0.01588249579072
5,1.02222228662528,-0.159722226207217,0.0819444448505077,0.00580321997404099,0.0100792767480016,0.00794124789535999
5,1.02083339474202,-0.159722226207217,0.0625000010308258,-0.00549778714776039,-0.00183259579353034,-0.00122173049021512
5,1.02083339474202,-0.159722226207217,0.0652777787193518,0.00244346098043024,0.00641408516094089,0.00244346098043024
5,1.01666671909226,-0.158333334323963,0.0680555564078778,0.00152716308366507,-0.0033597587607801,0.0033597587607801
5,1.01944450285877,-0.161111118090472,0.0694444482911319,0.00641408516094089,0.0021380283869803,0.00610865233466029
5,1.02083339474202,-0.163888889701015,0.0750000036681839,-0.00366519158706069,0.00794124789535999,-0.0027488935738802
5,1.02361117850853,-0.15555556271342,0.0722222259796579,0.00702495034784079,-0.00397062394768,-0.00519235478714108
5,1.01666671909226,-0.163888889701015,0.0680555564078778,0.0045814891345799,-0.0033597587607801,-0.00488692196086049
5,1.0125000434425,-0.156944454596674,0.0750000036681839,-0.000305432622553781,-0.00488692196086049,0.0100792767480016
5,1.01527782720901,-0.159722226207217,0.0694444482911319,0.00305432616733015,0.00305432616733015,0.0103847095742822
5,1.01944450285877,-0.161111118090472,0.0625000010308258,-0.00610865233466029,0.0045814891345799,0.0045814891345799
5,1.02222228662528,-0.168055565350778,0.0680555564078778,-0.00549778714776039,0.00519235478714108,0.00397062394768
5,1.01944450285877,-0.163888889701015,0.0680555564078778,-0.00366519158706069,0.00488692196086049,-0.0027488935738802
5,1.02222228662528,-0.169444445078067,0.0694444482911319,-0.000305432622553781,0.00702495034784079,-0.0027488935738802
5,1.01944450285877,-0.166666673467524,0.0666666706026059,0.00916297826915979,0.00610865233466029,-0.00977384392172098
5,1.02083339474202,-0.16527778158427,0.0694444482911319,0.00366519158706069,0.00549778714776039,-0.0100792767480016
5,1.01805561097552,-0.16527778158427,0.0680555564078778,0.00488692196086049,-0.00305432616733015,-0.01191187184304
5,1.01944450285877,-0.163888889701015,0.0722222259796579,0.0140499006956816,0.0021380283869803,0.00244346098043024
5,1.02222228662528,-0.156944454596674,0.0625000010308258,0.00855211354792118,0.000305432622553781,0.00855211354792118
5,1.02083339474202,-0.158333334323963,0.0625000010308258,0.0109955742955208,0.000916297896765172,0.0021380283869803
5,1.01944450285877,-0.166666673467524,0.0791666671619817,0.0045814891345799,0.0021380283869803,-0.0122173046693206
5,1.01944450285877,-0.16527778158427,0.0791666671619817,0.00733038317412138,0.00244346098043024,-0.00183259579353034
5,1.01666671909226,-0.161111118090472,0.0750000036681839,0.00610865233466029,0.00366519158706069,-0.00427605677396059
5,1.01666671909226,-0.156944454596674,0.0736111117849297,-0.00702495034784079,0.0113010071218014,0.000305432622553781
5,1.01666671909226,-0.163888889701015,0.0750000036681839,0.00549778714776039,0.00366519158706069,-0.00794124789535999
5,1.01527782720901,-0.163888889701015,0.0597222233422998,0.00824668072164059,-0.0021380283869803,-0.0131336031481624
5,1.01527782720901,-0.163888889701015,0.0708333340964038,0.021685715764761,0.00610865233466029,-0.0180205255746841
5,1.01944450285877,-0.16527778158427,0.0680555564078778,0.0290160998702049,-0.00488692196086049,-0.0256563406437635
5,1.02083339474202,-0.161111118090472,0.0652777787193518,0.0146607663482428,-0.00733038317412138,-0.00702495034784079
5,1.02083339474202,-0.156944454596674,0.0680555564078778,0.0027488935738802,0.00946841109544039,-0.000916297896765172
5,1.01944450285877,-0.159722226207217,0.0763888894734557,-0.0027488935738802,0.00122173049021512,-0.0027488935738802
5,1.01944450285877,-0.162500009973726,0.0708333340964038,0.00977384392172098,0.00244346098043024,0.0021380283869803
5,1.01388893532575,-0.159722226207217,0.0763888894734557,0.0106901414692402,-0.00152716308366507,-0.00244346098043024
5,1.01805561097552,-0.156944454596674,0.0680555564078778,0.0177150927484035,0.00641408516094089,-0.00397062394768
5,1.01944450285877,-0.163888889701015,0.0652777787193518,0.01588249579072,0.00794124789535999,-0.00885754637420177
5,1.01805561097552,-0.163888889701015,0.0680555564078778,0.0308486949652433,-0.00519235478714108,-0.0143553335219622
5,1.01944450285877,-0.163888889701015,0.0652777787193518,0.03176499158144,-0.0045814891345799,-0.0045814891345799
5,1.01944450285877,-0.152777778946911,0.0666666706026059,0.0277943685650826,-0.000916297896765172,0.0021380283869803
5,1.01805561097552,-0.14722222356986,0.0680555564078778,0.0140499006956816,-0.0021380283869803,0.00885754637420177
5,1.01527782720901,-0.151388899219622,0.0680555564078778,0.00641408516094089,-0.00488692196086049,0.0134390350431204
5,1.02500007039179,-0.161111118090472,0.0638888929140799,0.0033597587607801,-0.00519235478714108,0.0021380283869803
5,1.02500007039179,-0.161111118090472,0.0638888929140799,0.0113010071218014,-0.00488692196086049,0.00885754637420177
5,1.01805561097552,-0.162500009973726,0.0652777787193518,0.00580321997404099,0.00733038317412138,0.00977384392172098
5,1.01944450285877,-0.156944454596674,0.0708333340964038,0.00549778714776039,0.0113010071218014,0.00519235478714108
5,1.01805561097552,-0.150000007336368,0.0750000036681839,0.00580321997404099,-0.00366519158706069,0.00610865233466029
5,1.01805561097552,-0.158333334323963,0.0708333340964038,0.0198531206697226,-0.00427605677396059,-0.00519235478714108
5,1.01527782720901,-0.170833336961321,0.0847222225390337,0.0439822971820831,-0.00641408516094089,-0.0106901414692402
5,1.01805561097552,-0.166666673467524,0.0694444482911319,0.0436768643558025,-0.00152716308366507,-0.000610865245107561
5,1.02083339474202,-0.156944454596674,0.0736111117849297,0.0363464802503586,0.013744467869401,0.00794124789535999
5,1.02083339474202,-0.154166670830166,0.0722222259796579,0.00763581553474069,0.0177150927484035,0.0122173046693206
5,1.01527782720901,-0.14583334384257,0.0680555564078778,0.0045814891345799,0.00824668072164059,0.017409659922123
5,1.01527782720901,-0.14722222356986,0.0666666706026059,0.00671951752156019,-0.0021380283869803,-0.000610865245107561
5,1.01527782720901,-0.15555556271342,0.0680555564078778,0.0180205255746841,-0.00519235478714108,0.00610865233466029
5,1.01805561097552,-0.159722226207217,0.0722222259796579,0.0177150927484035,0.000610865245107561,0.0134390350431204
5,1.02222228662528,-0.150000007336368,0.0750000036681839,0.0256563406437635,0.00824668072164059,0.017409659922123
5,1.01944450285877,-0.154166670830166,0.0736111117849297,0.0250454749912024,0.0113010071218014,0.017409659922123
5,1.01666671909226,-0.161111118090472,0.0833333367337618,0.0397062413394451,-0.0033597587607801,-0.0106901414692402
5,1.01527782720901,-0.163888889701015,0.0722222259796579,0.0360410511493683,-0.00641408516094089,0.0131336031481624
5,1.02500007039179,-0.154166670830166,0.0722222259796579,0.0299323964864016,0.00610865233466029,0.00580321997404099
5,1.02222228662528,-0.150000007336368,0.0694444482911319,0.0100792767480016,0.00122173049021512,0.0106901414692402
5,1.01666671909226,-0.150000007336368,0.0722222259796579,0.00702495034784079,-0.00733038317412138,0.015577063895762
5,1.01388893532575,-0.156944454596674,0.0652777787193518,0.00794124789535999,0.000305432622553781,0.0177150927484035
5,1.02361117850853,-0.15555556271342,0.0638888929140799,0.00519235478714108,0.00244346098043024,0.0143553335219622
5,1.02500007039179,-0.156944454596674,0.0666666706026059,0.00580321997404099,0.0100792767480016,0.0131336031481624
5,1.01666671909226,-0.15555556271342,0.0694444482911319,0.0027488935738802,0.00946841109544039,0.01191187184304
5,1.01805561097552,-0.159722226207217,0.0680555564078778,0.00855211354792118,0.00794124789535999,0.0106901414692402
5,1.01666671909226,-0.163888889701015,0.0722222259796579,0.0131336031481624,0.00824668072164059,0.00427605677396059
5,1.01944450285877,-0.162500009973726,0.0819444448505077,0.01191187184304,-0.000610865245107561,0.00244346098043024
5,1.01944450285877,-0.156944454596674,0.0777777813567098,0.0134390350431204,0.00244346098043024,-0.00183259579353034
5,1.02222228662528,-0.161111118090472,0.0750000036681839,0.00702495034784079,0.00488692196086049,0.0021380283869803
5,1.02222228662528,-0.154166670830166,0.0722222259796579,0.00488692196086049,0.000610865245107561,0.00397062394768
5,1.02083339474202,-0.158333334323963,0.0777777813567098,0.00671951752156019,0.00977384392172098,0.00580321997404099
5,1.01944450285877,-0.159722226207217,0.0722222259796579,0.00488692196086049,-0.000610865245107561,0.00244346098043024
5,1.01666671909226,-0.159722226207217,0.0708333340964038,0.0125227374956012,0.0045814891345799,0.000610865245107561
5,1.01944450285877,-0.163888889701015,0.0791666671619817,0.00610865233466029,0.011606439948082,0.00305432616733015
5,1.01944450285877,-0.159722226207217,0.0763888894734557,0.00763581553474069,0.01191187184304,0.00183259579353034
5,1.02222228662528,-0.161111118090472,0.0708333340964038,0.0131336031481624,0.00519235478714108,0.00397062394768
5,1.02222228662528,-0.162500009973726,0.0750000036681839,0.00794124789535999,0.00580321997404099,0.00183259579353034
5,1.01944450285877,-0.154166670830166,0.0680555564078778,0.0204639863222837,0.00244346098043024,0.00977384392172098
5,1.01944450285877,-0.156944454596674,0.0694444482911319,0.00977384392172098,0.00824668072164059,0.0033597587607801
5,1.01527782720901,-0.15555556271342,0.0680555564078778,0.0140499006956816,0.0033597587607801,-0.00580321997404099
5,1.01944450285877,-0.156944454596674,0.0736111117849297,0.00244346098043024,0.00610865233466029,0.00702495034784079
5,1.01805561097552,-0.154166670830166,0.0791666671619817,0.0033597587607801,0.00397062394768,0.00244346098043024
5,1.01805561097552,-0.156944454596674,0.0750000036681839,0.00427605677396059,0.00702495034784079,-0.000916297896765172
5,1.02222228662528,-0.163888889701015,0.0736111117849297,0.00671951752156019,0.0113010071218014,-0.000610865245107561
5,1.01944450285877,-0.16527778158427,0.0750000036681839,0.00916297826915979,0.0100792767480016,-0.0103847095742822
5,1.01805561097552,-0.166666673467524,0.0861111144222878,0.0128281703218818,0.00824668072164059,-0.00855211354792118
5,1.01805561097552,-0.161111118090472,0.0805555590452358,0.0143553335219622,0.000916297896765172,0.0033597587607801
5,1.01944450285877,-0.156944454596674,0.0722222259796579,0.0106901414692402,0.000610865245107561,-0.0033597587607801
5,1.01527782720901,-0.158333334323963,0.0694444482911319,0.00549778714776039,0.00794124789535999,0.00519235478714108
5,1.01944450285877,-0.156944454596674,0.0722222259796579,-0.000916297896765172,0.00519235478714108,-0.000305432622553781
5,1.01527782720901,-0.156944454596674,0.0736111117849297,0.00824668072164059,0.00427605677396059,0.00580321997404099
5,1.01944450285877,-0.162500009973726,0.0638888929140799,0.00702495034784079,-0.000610865245107561,0.00977384392172098
5,1.01111115155925,-0.163888889701015,0.0736111117849297,0.013744467869401,0.00671951752156019,0.0027488935738802
5,1.02083339474202,-0.172222228844576,0.0875000002275597,0.0152716310694814,0.000610865245107561,-0.0033597587607801
5,1.02222228662528,-0.169444445078067,0.0875000002275597,0.013744467869401,-0.00519235478714108,0.00610865233466029
5,1.02222228662528,-0.169444445078067,0.0875000002275597,0.0122173046693206,0.000610865245107561,0.01191187184304
5,1.01805561097552,-0.161111118090472,0.0750000036681839,0.01588249579072,0.00763581553474069,0.0021380283869803
5,1.01666671909226,-0.161111118090472,0.0722222259796579,0.00733038317412138,-0.000610865245107561,0.00122173049021512
5,1.01527782720901,-0.162500009973726,0.0791666671619817,0.00305432616733015,0.00122173049021512,0.000916297896765172
5,1.01944450285877,-0.159722226207217,0.0666666706026059,0.00183259579353034,-0.00152716308366507,-0.00305432616733015
5,1.01527782720901,-0.161111118090472,0.0777777813567098,0.0131336031481624,-0.00641408516094089,0.00946841109544039
5,1.01527782720901,-0.156944454596674,0.0819444448505077,0.00671951752156019,-0.00580321997404099,-0.00397062394768
5,1.01944450285877,-0.156944454596674,0.0736111117849297,0.0033597587607801,0.00763581553474069,-0.000305432622553781
5,1.02083339474202,-0.158333334323963,0.0638888929140799,0.0027488935738802,0.00610865233466029,0.0027488935738802
5,1.02222228662528,-0.163888889701015,0.0777777813567098,-0.0106901414692402,0.00427605677396059,0.00549778714776039
5,1.02222228662528,-0.163888889701015,0.0777777813567098,-0.00702495034784079,0.00122173049021512,0.00855211354792118
5,1.01527782720901,-0.161111118090472,0.0777777813567098,-0.00183259579353034,0.00183259579353034,0.00549778714776039
5,1.01805561097552,-0.16527778158427,0.0694444482911319,-0.00152716308366507,0.00366519158706069,0.0045814891345799
5,1.01805561097552,-0.16527778158427,0.0694444482911319,-0.00183259579353034,-0.000305432622553781,0.00122173049021512
5,1.01944450285877,-0.159722226207217,0.0722222259796579,-0.00763581553474069,0.00427605677396059,-0.00366519158706069
5,1.01527782720901,-0.158333334323963,0.0722222259796579,-0.00824668072164059,0.0106901414692402,-0.00397062394768
5,1.01527782720901,-0.158333334323963,0.0722222259796579,-0.00855211354792118,0.00763581553474069,0.00580321997404099
5,1.01527782720901,-0.159722226207217,0.0611111152255539,-0.00885754637420177,0.00916297826915979,0.00549778714776039
5,1.01805561097552,-0.16527778158427,0.0625000010308258,-0.00977384392172098,0.00824668072164059,-0.000610865245107561
5,1.01805561097552,-0.16527778158427,0.0625000010308258,-0.0146607663482428,0.0021380283869803,-0.00763581553474069
5,1.02083339474202,-0.163888889701015,0.0722222259796579,-0.0109955742955208,0.00397062394768,-0.00855211354792118
5,1.01944450285877,-0.170833336961321,0.0722222259796579,-0.00763581553474069,-0.00152716308366507,-0.01191187184304
5,1.01944450285877,-0.170833336961321,0.0722222259796579,-0.00641408516094089,-0.00641408516094089,-0.00397062394768
5,1.01388893532575,-0.168055565350778,0.0708333340964038,0.00488692196086049,-0.0021380283869803,-0.00671951752156019
5,1.01527782720901,-0.166666673467524,0.0694444482911319,0.0143553335219622,-0.00610865233466029,-0.011606439948082
5,1.00972225967599,-0.161111118090472,0.0736111117849297,0.00794124789535999,0.000305432622553781,-0.00885754637420177
5,1.0125000434425,-0.166666673467524,0.0722222259796579,0.0247400421649218,-0.00397062394768,-0.0161879286170006
5,1.02083339474202,-0.162500009973726,0.0805555590452358,0.0213802829384804,-0.0122173046693206,-0.0106901414692402
5,1.01805561097552,-0.163888889701015,0.0763888894734557,0.0226020142436027,-0.00916297826915979,0.00122173049021512
5,1.01944450285877,-0.166666673467524,0.0694444482911319,0.0250454749912024,-0.00671951752156019,-0.0021380283869803
5,1.02083339474202,-0.159722226207217,0.0680555564078778,0.0287106670439243,-0.00305432616733015,-0.0045814891345799
5,1.01527782720901,-0.156944454596674,0.0750000036681839,0.0213802829384804,-0.0122173046693206,0.00244346098043024
5,1.01944450285877,-0.152777778946911,0.0819444448505077,0.0106901414692402,0.00397062394768,-0.000305432622553781
5,1.01944450285877,-0.15555556271342,0.0819444448505077,0.00183259579353034,0.00946841109544039,-0.00183259579353034
5,1.02083339474202,-0.148611115453114,0.0652777787193518,-0.0171042270958424,0.01191187184304,0.00549778714776039
5,1.01805561097552,-0.156944454596674,0.0722222259796579,-0.00641408516094089,0.00641408516094089,-0.00977384392172098
5,1.0125000434425,-0.159722226207217,0.0694444482911319,-0.00855211354792118,0.00122173049021512,-0.00977384392172098
5,1.01666671909226,-0.166666673467524,0.0833333367337618,0.0021380283869803,-0.0045814891345799,-0.00488692196086049
5,1.02083339474202,-0.169444445078067,0.0722222259796579,0.0186313893646002,-0.00671951752156019,-0.0021380283869803
5,1.02083339474202,-0.169444445078067,0.0750000036681839,0.0180205255746841,-0.0033597587607801,-0.00183259579353034
5,1.01944450285877,-0.156944454596674,0.0708333340964038,0.0180205255746841,-0.0021380283869803,-0.00794124789535999
5,1.01944450285877,-0.156944454596674,0.0736111117849297,0.0171042270958424,-0.00397062394768,0.00794124789535999
5,1.01388893532575,-0.152777778946911,0.0805555590452358,0.00641408516094089,-0.0045814891345799,0.00580321997404099
5,1.01805561097552,-0.150000007336368,0.0638888929140799,-0.00610865233466029,-0.0021380283869803,0.00152716308366507
5,1.01527782720901,-0.154166670830166,0.0680555564078778,-0.0134390350431204,-0.000916297896765172,0.0125227374956012
5,1.02222228662528,-0.156944454596674,0.0611111152255539,-0.0149661982432008,0.0027488935738802,-0.00244346098043024
