Activity,acc_x,acc_y,acc_z,gyro_x,gyro_y,gyro_z
0,0.52083333787156,-0.0138888899621255,0.834722271376837,0.0641408488154411,-0.0858265683054924,0.0448985956609249
0,0.52083333787156,-0.0138888899621255,0.834722271376837,0.0766635909676552,-0.146302223205566,0.064446285367012
0,0.544444451263022,-0.0194444453391775,0.818055568777787,0.0305432621389627,-0.22204951941967,0.0717766657471657
0,0.544444451263022,-0.0194444453391775,0.818055568777787,0.0109955742955208,-0.200363799929619,0.0705549344420433
0,0.544444451263022,-0.0222222230277034,0.85138887672817,0.0134390350431204,-0.168293371796608,0.0705549344420433
0,0.54722223502953,-0.0194444453391775,0.844444514559616,0.0250454749912024,-0.170125976204872,0.0565050356090069
0,0.56666667277123,-0.0194444453391775,0.847222298326124,0.0390953756868839,-0.0183259565383196,0.0189368221908808
0,0.56666667277123,-0.0194444453391775,0.847222298326124,0.0430659987032413,0.0427605658769607,0.0143553335219622
0,0.556944478212309,-0.027777779924251,0.836111163260091,-0.0171042270958424,-0.124311074614525,0.0558941699564457
0,0.562499997121468,-0.0250000007162294,0.827777811960566,-0.0131336031481624,-0.0794124826788902,0.0381790772080422
0,0.551388910679293,-0.0222222230277034,0.833333379493583,0.0357356183230877,-0.129197999835014,0.0690277740359306
0,0.568055564654484,-0.029166668768514,0.818055568777787,0.00671951752156019,-0.132863193750381,0.0445931628346443
0,0.565277780887976,-0.029166668768514,0.831944487610329,0.0491746515035629,-0.131641462445259,0.0329867228865623
0,0.584722267253534,-0.03194444645704,0.825000028194058,0.0971275717020035,-0.18539759516716,-0.00366519158706069
0,0.559722261978817,-0.0361111129898289,0.795833347269579,0.0339030213654041,-0.0180205255746841,0.03176499158144
0,0.545833343146276,-0.027777779924251,0.834722271376837,-0.0247400421649218,-0.098960168659687,0.0934623852372169
0,0.555555586329055,-0.0250000007162294,0.844444514559616,0.0534507073462009,-0.0864374339580536,0.087659165263176
0,0.555555586329055,-0.0250000007162294,0.844444514559616,0.101403631269932,-0.0277943685650826,0.0647517144680023
0,0.591666678045946,-0.0361111129898289,0.831944487610329,0.0998764708638191,-0.00824668072164059,0.0561996027827263
0,0.5930555699292,-0.0458333348996699,0.801388914802596,0.0339030213654041,-0.0656680166721344,0.0949895456433296
0,0.563888889004722,-0.0375000018340919,0.797222239152834,0.0516181141138077,-0.142331600189209,0.135917514562607
0,0.559722261978817,-0.0125000003581147,0.812500049868629,0.0549778714776039,-0.152410879731178,0.163406446576118
0,0.559722261978817,-0.00277777787846293,0.811111157985375,0.0726929605007172,0.0180205255746841,0.189368233084679
0,0.587500002396184,-0.00833333382532574,0.781944477060896,0.029626963660121,0.0623082555830479,0.199447497725487
0,0.591666678045946,-0.0222222230277034,0.768055606852213,0.0742201283574104,0.0045814891345799,0.199447497725487
0,0.605555596878487,-0.0194444453391775,0.769444450111609,0.140193566679955,-0.0100792767480016,0.199142068624496
0,0.580555591603771,-0.0125000003581147,0.775000017644626,0.295353353023529,-0.361632227897644,0.228463605046272
0,0.588888894279438,-0.0125000003581147,0.815277785011279,0.468533635139465,-0.543364644050598,0.190895393490791
0,0.633333337295854,0.0222222230277034,0.815277785011279,0.63438355922699,-0.328645497560501,0.0733038261532784
0,0.673611153286365,0.027777779924251,0.769444450111609,0.719293832778931,-0.310930401086807,-0.00305432616733015
0,0.697222266677827,-0.00972222266958873,0.697222266677827,0.731816589832306,-0.540004849433899,-0.0305432621389627
0,0.697222266677827,-0.00972222266958873,0.697222266677827,0.756862044334412,-0.692110300064087,-0.00885754637420177
0,0.666666693870094,0.0569444456537738,0.75000001236991,0.683558225631714,-0.803593218326569,0.186619326472282
0,0.693055591028065,0.0722222259796579,0.751388904253164,0.415999233722687,-0.793208539485931,0.280998021364212
0,0.773611125761372,0.0513888902767219,0.740277817810989,0.237321153283119,-0.729983985424042,0.222965821623802
0,0.840277838909853,0.0513888902767219,0.719444488186035,0.301767438650131,-0.745255589485168,0.198531210422516
0,0.840277838909853,0.0152777788063885,0.702777785586986,0.266337245702743,-0.510683357715607,0.150578290224075
0,0.813888941751883,0.026388891079988,0.720833380069289,0.521373510360718,-0.774577140808105,-0.117286130785942
0,0.852777768611424,-0.0208333341834404,0.497222224480098,-0.186619326472282,-0.415388375520706,-0.323758572340012
0,0.826388920077312,0.0458333348996699,0.533333364820847,-0.707687377929688,0.115453533828259,-0.387899428606033
0,0.729166682744956,0.126388893944906,0.820833352544296,-0.0729983970522881,-0.526565849781036,-0.394924372434616
0,0.666666693870094,0.0847222225390337,0.748611120486655,0.147829383611679,-0.250149309635162,-0.121256753802299
0,0.726388898978447,0.029166668768514,0.716666704419527,0.0232128798961639,-0.0226020142436027,0.100792765617371
0,0.818055568777787,0.027777779924251,0.722222271952543,-0.0592539273202419,-0.156076073646545,0.143858760595322
0,0.854166660494678,-0.00833333382532574,0.723611115211939,-0.366824567317963,-0.0684169083833694,-0.172569438815117
0,0.82222224442755,0.0125000003581147,0.715277812536273,-0.507018148899078,-0.0418442711234093,-0.292604446411133
0,0.755555579902926,0.0638888929140799,0.680555564078778,-0.546724379062653,0.172874867916107,-0.32253685593605
0,0.738888925927735,0.0777777813567098,0.568055564654484,-0.984103918075562,0.565355777740479,-0.303905457258224
0,0.644444472361887,0.0458333348996699,0.791666671619817,-1.11024761199951,0.495717138051987,-0.0604756586253643
0,0.563888889004722,0.00277777787846293,0.886111173809523,-0.00122173049021512,-0.414472073316574,0.575129628181458
0,0.641666688595378,0.029166668768514,0.793055563503071,-0.205250725150108,-0.299323976039886,0.533590793609619
0,0.640277796712124,0.00277777787846293,0.840277838909853,-0.318566232919693,-0.299018532037735,0.53481251001358
0,0.650000039894903,0.0152777788063885,0.863888903677457,0.175623759627342,-0.285274058580399,0.386677712202072
0,0.644444472361887,0.00277777787846293,0.899999995394348,0.753196835517883,-0.330172657966614,0.257174253463745
0,0.698611158561081,0.0152777788063885,0.790277828360421,0.964556217193604,-0.434630632400513,0.322231411933899
0,0.695833374794573,0.0416666683668809,0.736111142161226,0.737314343452454,-0.541226625442505,0.458454370498657
0,0.693055591028065,0.0583333375370279,0.736111142161226,0.800233483314514,-0.432187169790268,0.525954961776733
0,0.818055568777787,0.0375000018340919,0.745833336720147,0.981965899467468,-0.165239050984383,0.287412106990814
0,0.82222224442755,0.0402777795226179,0.779166693294388,1.3045027256012,0.426078498363495,0.00122173049021512
0,0.731944466511464,0.0652777787193518,0.661111126337078,1.02686452865601,-0.0458148941397667,0.22724187374115
0,0.731944466511464,0.0652777787193518,0.661111126337078,0.593455612659454,-0.304210901260376,0.526565849781036
0,0.765277823085705,0.0777777813567098,0.58333337537028,0.240375474095344,-0.193644285202026,0.358577907085419
0,0.726388898978447,0.101388894748172,0.633333337295854,0.178067222237587,-0.251065611839294,0.284663200378418
0,0.656944450687316,0.100000002864918,0.693055591028065,0.656680166721344,-0.544891774654388,0.306348919868469
0,0.634722229179108,0.0486111125881959,0.737500034044481,1.27395951747894,-0.98471474647522,0.59650993347168
0,0.708333353120002,0.0152777788063885,0.716666704419527,1.66063714027405,-1.40254664421081,0.705549359321594
0,0.775000017644626,0.0222222230277034,0.58333337537028,1.47737765312195,-1.73516273498535,0.886365473270416
0,0.748611120486655,0.0750000036681839,0.512500035195893,1.40285205841064,-1.9223929643631,0.9245445728302
0,0.779166693294388,0.0833333367337618,0.523611121638068,1.54823791980743,-2.0302107334137,0.872315585613251
0,0.759722255552688,0.0722222259796579,0.515277818962402,1.73821699619293,-2.61939024925232,1.12887895107269
0,0.784722260827405,0.112499999424294,0.404166687109433,1.55281949043274,-2.67956042289734,1.18752205371857
0,0.818055568777787,0.198611113846581,0.361111135976272,1.38971841335297,-2.75439143180847,1.17713737487793
0,0.805555590452358,0.17361112072783,0.430555559955475,1.4556919336319,-2.89733386039734,0.993572294712067
0,0.82916670384382,0.12777778582816,0.413888905980283,2.01524448394775,-2.573575258255,0.998153805732727
0,0.913888914226889,0.166666673467524,0.276388901281273,2.08060693740845,-2.39703512191773,1.18630027770996
0,1.0305556379248,0.136111112815755,0.262500006760661,2.33014535903931,-1.69820535182953,0.771828234195709
0,1.12499999424293,0.0680555564078778,0.301388906555989,2.26966977119446,-1.1701123714447,1.00487327575684
0,1.06527783775844,0.0916666697993398,0.263888898643915,1.61726570129395,-1.62001466751099,1.19546329975128
0,0.965277816659576,0.0958333393711199,0.240277785252453,1.10566604137421,-2.17804002761841,1.11941051483154
0,0.918055589876652,0.0930555616825939,0.212499996211229,1.07787168025971,-3.08303689956665,0.808174729347229
0,0.899999995394348,0.03194444645704,0.170833336961321,1.25746607780456,-3.707035779953,0.278249114751816
0,1.05833337834217,-0.0861111144222878,0.136111112815755,1.33596229553223,-3.54668354988098,0.297185927629471
0,1.15277783190802,-0.0916666697993398,0.120833338567854,1.37505769729614,-2.30143475532532,0.463341295719147
0,1.05277781080915,-0.0569444456537738,0.0194444453391775,1.61146247386932,-1.76356792449951,0.57604593038559
0,1.11111117265811,-0.0569444456537738,-0.0361111129898289,1.19088184833527,-2.08518862724304,0.799622595310211
0,1.1861111398584,-0.0388888906783549,-0.0194444453391775,0.878729641437531,-1.7446311712265,0.970359444618225
0,1.08750001064279,-0.0541666679652478,-0.105555564319952,0.417220950126648,-2.26325583457947,1.14109623432159
0,1.03888889197661,-0.0152777788063885,-0.15555556271342,0.118202425539494,-3.11358022689819,0.195171445608139
0,1.03888889197661,-0.0583333375370279,-0.194444450352783,-0.0452040284872055,-2.89702844619751,-0.0815505087375641
0,1.05972227022542,-0.108333335930496,-0.265277790527169,-0.0873537287116051,-2.4523184299469,-0.00305432616733015
0,0.993055557076942,-0.108333335930496,-0.33750002258481,-0.12675453722477,-2.25623083114624,0.152105450630188
0,0.831944487610329,-0.100000002864918,-0.380555573717971,0.286495804786682,-0.483194410800934,0.525649547576904
0,0.709722245003256,-0.1194444466846,-0.452777781463682,0.671951770782471,-0.341168224811554,0.532674491405487
0,0.655555558804062,-0.0833333367337618,-0.476388894855144,0.895528435707092,-0.599258780479431,-0.0534507073462009
0,0.759722255552688,-0.0361111129898289,-0.497222224480098,0.751364231109619,-1.40163028240204,-1.00609505176544
0,0.804166698569104,0.00277777787846293,-0.477777786738398,0.613003253936768,-1.82282185554504,-1.7101172208786
0,0.708333353120002,-0.122222230451108,-0.466666700296224,0.271224170923233,-2.02532362937927,-1.79991447925568
0,0.715277812536273,-0.133333341205212,-0.454166673346937,-0.274278491735458,-1.53205001354218,-1.43950390815735
0,0.751388904253164,-0.0416666683668809,-0.527777797287831,-0.731205701828003,-0.853989601135254,-1.23364233970642
0,1.01388893532575,0.00277777787846293,-0.508333359546131,-0.381790786981583,-0.123394779860973,-1.54396188259125
0,1.04722224327614,0.0375000018340919,-0.584722267253534,0.836579978466034,2.39856243133545,-1.20768058300018
0,1.47638895997222,0.0222222230277034,-0.565277780887976,0.80298238992691,1.08703470230102,0.267864406108856
0,0.911111130460381,-0.105555564319952,-0.440277803138253,1.36375665664673,2.69696998596191,0.784045517444611
0,0.752777796136418,-0.0777777813567098,-0.598611137462217,1.97523272037506,4.06561374664307,0.763276100158691
0,0.909722238577127,0.0777777813567098,-0.518055554105052,0.764803290367126,2.56380152702331,0.77793687582016
0,1.07361118905796,0.0930555616825939,-0.433333343721983,0.307265222072601,2.12367296218872,0.663094222545624
0,1.07777786470773,-0.00694444498106275,-0.387500008822313,-0.0256563406437635,2.16307377815247,0.707992792129517
0,0.990277773310434,-0.0583333375370279,-0.295833339022973,-0.445320755243301,1.97034585475922,0.704327642917633
0,0.944444438410764,-0.159722226207217,-0.265277790527169,-0.29596421122551,2.37657117843628,0.652098655700684
0,1.04861113515939,-0.141666668192807,-0.188888894975731,0.0604756586253643,2.37993097305298,0.436768651008606
0,1.08194444310977,-0.156944454596674,-0.120833338567854,0.157297804951668,1.63711881637573,-0.11117747426033
0,1.08888890252604,-0.205555561106887,-0.0486111125881959,0.138055548071861,1.87382912635803,0.0427605658769607
0,1.08333333499303,-0.247222220356795,-0.03194444645704,0.0149661982432008,1.24860858917236,0.0494800843298435
0,1.13055556177595,-0.187500003092477,-0.027777779924251,0.00397062394768,0.800233483314514,-0.150883719325066
0,0.629166710269949,-0.113888891307548,-0.00555555575692586,-0.11087204515934,0.834136486053467,-0.665537655353546
0,0.815277785011279,-0.126388893944906,-0.0763888894734557,-0.0339030213654041,1.34023833274841,-1.75409960746765
0,1.02500007039179,-0.0972222251763917,0.0347222241455659,0.0464257597923279,1.58916592597961,-1.45508098602295
0,1.21666666404227,-0.133333341205212,0.150000007336368,-0.251676470041275,0.277332812547684,-0.644157409667969
0,1.11111117265811,-0.104166672436698,0.104166672436698,-0.329256355762482,-0.403171062469482,-0.521068036556244
0,1.06805562152495,-0.00138888893923146,-0.00833333382532574,-0.142331600189209,-0.11117747426033,-0.516181111335754
0,1.06805562152495,-0.00138888893923146,-0.00833333382532574,-0.00855211354792118,0.171042263507843,-0.100181899964809
0,0.983333411141879,-0.0152777788063885,0.0222222230277034,0.0161879286170006,0.297491371631622,-0.165544480085373
0,1.05833337834217,-0.00972222266958873,0.0250000007162294,0.00946841109544039,0.294437050819397,-0.182037845253944
0,1.05833337834217,-0.00972222266958873,0.0250000007162294,-0.0253509078174829,0.108123145997524,-0.00427605677396059
0,0.958333357243305,0.0944444474878658,0.101388894748172,-0.0629191175103188,0.314901024103165,0.18539759516716
0,1.00972225967599,-0.0583333375370279,0.131944449321958,0.00519235478714108,-0.32192599773407,-0.0558941699564457
0,1.00972225967599,-0.0583333375370279,0.131944449321958,-0.164322748780251,-0.150883719325066,-0.236099421977997
0,0.987499989543926,0.03194444645704,0.030555557612777,-0.143858760595322,0.135612085461616,-0.193644285202026
0,0.968055600426084,-0.029166668768514,0.0375000018340919,-0.140499010682106,0.177150920033455,-0.159741267561913
0,0.968055600426084,-0.029166668768514,0.0375000018340919,-0.0656680166721344,0.225103840231896,-0.167377084493637
0,1.04722224327614,-0.0986111170596459,0.0388888906783549,-0.0415388382971287,0.36529740691185,-0.313068449497223
0,1.08194444310977,-0.0458333348996699,0.00972222266958873,0.0351247526705265,0.480140089988708,-0.376903861761093
0,1.0361111082101,0.00277777787846293,0.0250000007162294,0.0415388382971287,0.431881725788117,-0.341473668813705
0,1.00555558402623,0.030555557612777,0.0791666671619817,0.00733038317412138,0.11087204515934,-0.2379320114851
0,0.969444492309338,0.00555555575692586,0.134722233088466,0.00244346098043024,0.0769690200686455,0.0507018156349659
0,0.869444471210474,-0.0194444453391775,0.18333333959868,0.0186313893646002,0.393397212028503,0.436768651008606
0,0.830555595727074,-0.0402777795226179,0.106944444047242,0.172569438815117,-0.173791155219078,0.690583169460297
0,1.15000004814151,-0.0569444456537738,0.0944444474878658,0.119729585945606,-0.245567828416824,0.331699818372726
0,1.10416671324184,-0.0250000007162294,-0.0361111129898289,-0.239459171891212,0.123394779860973,0.154548913240433
0,1.15833339944103,-0.0486111125881959,0.029166668768514,-0.188146501779556,0.156686931848526,-0.0726929605007172
0,1.02916674604155,0.00555555575692586,0.0625000010308258,-0.0699440687894821,0.383623361587524,0.0849102661013603
0,0.968055600426084,0.03194444645704,0.0722222259796579,0.0345138870179653,0.338113903999329,0.0956004112958908
0,1.03888889197661,-0.0194444453391775,0.122222230451108,0.107512280344963,0.119118720293045,0.175929188728332
0,1.02777785415829,-0.0194444453391775,0.118055554801345,0.0656680166721344,-0.0219911485910416,0.207999616861343
0,1.02777785415829,-0.0236111118719664,0.0847222225390337,0.0106901414692402,0.101098194718361,0.204945296049118
0,1.0125000434425,-0.0638888929140799,0.0680555564078778,0.0226020142436027,0.282219737768173,-0.00763581553474069
0,1.01527782720901,-0.0611111152255539,0.0777777813567098,0.0891863256692886,0.40714168548584,-0.273056775331497
0,1.08055555122652,-0.0222222230277034,0.0680555564078778,-0.0387899428606033,0.542142927646637,-0.0369573459029198
0,1.01944450285877,-0.0416666683668809,0.130555557438704,-0.0232128798961639,0.463952153921127,-0.125227376818657
0,1.02083339474202,-0.0402777795226179,0.156944454596674,-0.0256563406437635,0.192422553896904,-0.170736834406853
0,1.01527782720901,-0.0250000007162294,0.159722226207217,0.0134390350431204,0.0424551330506802,-0.134390354156494
0,1.0361111082101,-0.0152777788063885,0.111111119697004,-0.115453533828259,0.0821613743901253,0.0311541277915239
5,1.01388893532575,-0.0430555572111439,0.0875000002275597,-0.10567969083786,0.237015709280968,0.144164204597473
5,0.993055557076942,-0.0166666676506515,0.122222230451108,-0.0244346093386412,0.427911102771759,0.267253547906876
5,1.00416669214298,-0.0208333341834404,0.177777784221628,-0.0436768643558025,0.258395999670029,0.350025773048401
5,1.03750000009336,-0.0486111125881959,0.195833342236038,-0.0913243517279625,-0.214413702487946,0.167987942695618
5,1.01111115155925,-0.0486111125881959,0.187500003092477,-0.167377084493637,-0.473420560359955,-0.0433714315295219
5,1.0361111082101,-0.0208333341834404,0.12777778582816,-0.0668897479772568,-0.440433830022812,-0.0717766657471657
5,1.0361111082101,-0.0208333341834404,0.12777778582816,0.00610865233466029,-0.293215304613113,0.0021380283869803
5,1.04166667574312,-0.055555559848502,0.0819444448505077,0.114231802523136,-0.0305432621389627,0.0513126812875271
5,1.06666672964169,-0.0625000010308258,0.108333335930496,0.108734011650086,-0.0100792767480016,0.0409279726445675
5,1.01527782720901,-0.0750000036681839,0.101388894748172,-0.0574213340878487,-0.0910189226269722,0.0131336031481624
5,1.00972225967599,-0.0513888902767219,0.104166672436698,-0.0360410511493683,0.0772744566202164,0.0620028227567673
5,1.00555558402623,-0.0416666683668809,0.13750000469901,0.141109868884087,-0.0662788823246956,0.0690277740359306
5,1.00833336779274,-0.0111111115138517,0.148611115453114,0.333226978778839,-0.361937671899795,0.0827722400426865
5,1.00000001649321,-0.0375000018340919,0.120833338567854,0.131336033344269,-0.552527606487274,0.0458148941397667
5,0.98888888142718,-0.0500000014324589,0.10972222781375,0.00427605677396059,-0.583681762218475,0.00794124789535999
5,0.963888924776322,-0.0569444456537738,0.108333335930496,-0.0525344125926495,-0.532979905605316,-0.000610865245107561
5,0.918055589876652,-0.0722222259796579,0.0236111118719664,0.011606439948082,-0.437684953212738,0.0140499006956816
5,0.926388941176177,-0.0513888902767219,0.0194444453391775,0.0485637858510017,-0.0561996027827263,-0.120035022497177
5,0.911111130460381,-0.00277777787846293,0.0402777795226179,-0.0635299831628799,0.150272846221924,-0.00733038317412138
5,0.979166735492117,-0.0486111125881959,0.0625000010308258,0.0675006061792374,0.278249114751816,-0.789237916469574
5,0.95000000594378,-0.0166666676506515,-0.0486111125881959,0.00671951752156019,0.820086598396301,-0.171653136610985
5,1.10972228077486,-0.0500000014324589,0.108333335930496,0.0485637858510017,0.69730269908905,-0.366519153118133
5,1.13333334554246,-0.030555557612777,0.144444451959316,-0.106290549039841,0.245262399315834,0.210443079471588
5,1.13055556177595,-0.00972222266958873,0.113888891307548,-0.0696386396884918,0.241902634501457,0.027488935738802
5,0.976388951725609,-0.00972222266958873,0.101388894748172,-0.0363464802503586,0.340557366609573,0.0430659987032413
5,1.09305557817581,-0.00694444498106275,0.134722233088466,-0.0653625801205635,0.294131606817245,-0.0998764708638191
5,0.956944465360051,0.00555555575692586,0.115277783190802,-0.0949895456433296,0.363770246505737,-0.0204639863222837
5,1.00138890837647,0.00555555575692586,0.118055554801345,-0.114537231624126,0.448069661855698,-0.0448985956609249
5,1.15833339944103,-0.00694444498106275,0.140277788465518,-0.100792765617371,0.383012503385544,-0.178983509540558
5,1.09166668629255,-0.0111111115138517,0.16527778158427,-0.0522289797663689,0.16890424489975,-0.191506251692772
5,1.0513889189259,-0.00277777787846293,0.163888889701015,0.0103847095742822,0.0647517144680023,-0.13225232064724
5,1.01805561097552,0.00694444498106275,0.151388899219622,0.0222965814173222,0.115453533828259,-0.118813291192055
5,1.00972225967599,0.0138888899621255,0.163888889701015,0.01191187184304,-0.00122173049021512,-0.0531452745199203
5,1.02083339474202,-0.00138888893923146,0.150000007336368,-0.04764748737216,-0.00488692196086049,-0.0226020142436027
5,1.02083339474202,-0.00694444498106275,0.156944454596674,-0.102319926023483,-0.0500909499824047,-0.0983493030071259
5,1.01527782720901,0.00138888893923146,0.140277788465518,-0.0952949747443199,-0.0021380283869803,-0.105374254286289
5,1.00972225967599,0.0222222230277034,0.14583334384257,-0.0891863256692886,0.064446285367012,-0.0864374339580536
5,1.01944450285877,0.0236111118719664,0.14722222356986,-0.0565050356090069,0.0998764708638191,-0.0259617734700441
5,1.01944450285877,0.0236111118719664,0.14722222356986,-0.0369573459029198,0.204945296049118,-0.0167987942695618
5,1.04583335139288,0.00277777787846293,0.14722222356986,-0.00122173049021512,0.33292156457901,0.0027488935738802
5,1.07361118905796,-0.00138888893923146,0.14722222356986,0.104763388633728,0.554360210895538,-0.0479529201984406
5,1.07361118905796,-0.00138888893923146,0.14722222356986,0.257174253463745,0.814894258975983,-0.0180205255746841
5,1.08472222687628,0.0194444453391775,0.216666671860991,0.397062420845032,0.878118813037872,0.204028993844986
5,1.09305557817581,0.00555555575692586,0.252777787889811,0.316122770309448,0.807563841342926,0.412028610706329
5,1.09305557817581,0.00555555575692586,0.252777787889811,0.05283984541893,0.311235845088959,0.467006474733353
5,1.07361118905796,-0.00416666691266287,0.230555566381603,0.239459171891212,-0.444404453039169,0.081855945289135
5,0.840277838909853,-0.0472222237439329,0.231944458264858,-0.255036234855652,-0.277638256549835,0.112399205565453
5,0.840277838909853,-0.0472222237439329,0.231944458264858,-0.102625362575054,-0.365908294916153,-0.128892570734024
5,0.855555552377932,-0.0583333375370279,0.198611113846581,0.01588249579072,-0.0525344125926495,-0.0748309940099716
5,0.981944519258625,-0.029166668768514,0.20138889761309,0.0381790772080422,0.0461203269660473,-0.0565050356090069
5,1.02916674604155,-0.0125000003581147,0.200000005729836,0.0424551330506802,0.0384845100343227,-0.0149661982432008
5,1.04444445950963,-0.0125000003581147,0.202777789496344,0.0348193198442459,0.0412334054708481,-0.00519235478714108
5,1.02500007039179,-0.0152777788063885,0.208333344873396,0.0171042270958424,0.0262672062963247,-0.0226020142436027
5,0.998611124609959,-0.00833333382532574,0.211111128639904,0.0161879286170006,0.00671951752156019,-0.0305432621389627
5,0.993055557076942,-0.00972222266958873,0.20972223675665,0.0164933614432812,0.0271835029125214,-0.0210748501121998
5,1.00555558402623,-0.0138888899621255,0.20972223675665,0.0152716310694814,0.0323758572340012,-0.0351247526705265
5,1.00972225967599,-0.0166666676506515,0.218055563744246,0.0406225398182869,0.0256563406437635,-0.0259617734700441
5,0.998611124609959,-0.0152777788063885,0.226388890731841,0.0580321997404099,0.00183259579353034,-0.00488692196086049
5,0.998611124609959,-0.00416666691266287,0.216666671860991,0.0598647929728031,0.00397062394768,0.00244346098043024
5,1.00972225967599,-0.00555555575692586,0.2194444556275,0.0610865242779255,0.0387899428606033,-0.0177150927484035
5,1.00972225967599,-0.00277777787846293,0.206944452990142,0.0442877300083637,0.0577267669141293,0.00946841109544039
5,1.00277780025972,0.00555555575692586,0.20138889761309,0.0345138870179653,0.0678060427308083,0.0329867228865623
5,1.00555558402623,0.00555555575692586,0.2194444556275,0.0149661982432008,0.0736092627048492,-0.01191187184304
5,1.00416669214298,-0.026388891079988,0.230555566381603,0.0452040284872055,0.0598647929728031,-0.064446285367012
5,0.993055557076942,-0.026388891079988,0.227777782615095,0.0699440687894821,-0.0152716310694814,0.0207694191485643
5,0.998611124609959,-0.00555555575692586,0.223611131277262,0.135001212358475,-0.0207694191485643,0.194560587406159
5,1.10694449700835,-0.029166668768514,0.244444460902216,0.0308486949652433,0.0842994004487991,-0.109955742955208
5,1.00277780025972,-0.029166668768514,0.241666677135707,0.0705549344420433,0.0363464802503586,-0.0571159012615681
5,0.983333411141879,0.0152777788063885,0.24583335278547,0.0720821022987366,-0.106595985591412,0.0705549344420433
5,1.02083339474202,0.00972222266958873,0.216666671860991,0.109039448201656,-0.0681114718317986,0.0152716310694814
5,1.02638896227504,-0.0111111115138517,0.198611113846581,0.0855211317539215,-0.0308486949652433,-0.0397062413394451
5,1.01111115155925,-0.0138888899621255,0.212499996211229,0.0995710343122482,-0.0507018156349659,-0.00427605677396059
5,1.00138890837647,-0.00277777787846293,0.223611131277262,0.107206851243973,-0.0635299831628799,-0.015577063895762
5,1.00000001649321,0.00277777787846293,0.224999998848587,0.107206851243973,-0.0616973899304867,-0.0149661982432008
5,0.987499989543926,0.0125000003581147,0.213888888094483,0.0497855171561241,-0.0668897479772568,-0.00488692196086049
5,0.998611124609959,0.0152777788063885,0.212499996211229,0.0577267669141293,-0.0919352173805237,-0.0021380283869803
5,0.969444492309338,0.0361111129898289,0.200000005729836,0.0213802829384804,-0.147523954510689,0.128892570734024
5,1.01527782720901,0.00138888893923146,0.206944452990142,-0.0265726372599602,-0.0699440687894821,0.111482910811901
5,1.00277780025972,0.00138888893923146,0.197222234119292,-0.0326812900602817,-0.0894917547702789,0.0720821022987366
5,1.04583335139288,-0.0180555564949145,0.208333344873396,0.142942473292351,-0.0836885422468185,-0.117591559886932
5,1.00138890837647,0.00277777787846293,0.204166669223633,0.0152716310694814,-0.0424551330506802,0.0540615729987621
5,0.973611167959101,0.0111111115138517,0.18333333959868,-0.00519235478714108,0.0421497002243996,0.122173048555851
5,1.01388893532575,0.0166666676506515,0.202777789496344,-0.0751364231109619,0.0332921557128429,0.0714712366461754
5,1.00277780025972,0.0166666676506515,0.216666671860991,-0.0171042270958424,0.00244346098043024,-0.00885754637420177
5,1.02500007039179,-0.0125000003581147,0.204166669223633,0.0406225398182869,-0.00152716308366507,-0.0729983970522881
5,1.0333333244436,-0.0222222230277034,0.18333333959868,0.0445931628346443,0.0519235469400883,-0.125227376818657
5,1.00972225967599,-0.00277777787846293,0.190277786858986,0.0183259565383196,0.017409659922123,-0.0745255574584007
5,1.00000001649321,0.00416666691266287,0.212499996211229,0.0864374339580536,0.00885754637420177,-0.0152716310694814
5,0.994444448960196,-0.00277777787846293,0.212499996211229,0.108428582549095,-0.00519235478714108,0.05283984541893
5,0.997222232726705,-0.0180555564949145,0.20972223675665,0.0442877300083637,-0.0033597587607801,0.0369573459029198
5,0.99583334084345,-0.0236111118719664,0.205555561106887,0.0415388382971287,-0.00733038317412138,-0.00366519158706069
5,0.98888888142718,0.0194444453391775,0.224999998848587,0.0681114718317986,-0.0650571510195732,0.0284052342176437
5,1.0305556379248,0.0111111115138517,0.200000005729836,0.0671951770782471,-0.0235183127224445,0.0561996027827263
5,1.04722224327614,0.0125000003581147,0.198611113846581,-0.0100792767480016,-0.0131336031481624,-0.109344877302647
5,1.01944450285877,0.0125000003581147,0.187500003092477,0.00427605677396059,0.0293215326964855,-0.0271835029125214
5,1.02638896227504,-0.00555555575692586,0.205555561106887,0.00671951752156019,0.0354301854968071,-0.0146607663482428
5,0.980555627375371,-0.00972222266958873,0.213888888094483,0.00488692196086049,-0.0473420582711697,-0.0494800843298435
5,0.998611124609959,0.00138888893923146,0.20972223675665,0.0100792767480016,-0.142942473292351,-0.0280998013913631
5,1.00972225967599,0.00416666691266287,0.19166667874224,-0.0280998013913631,-0.01588249579072,-0.0103847095742822
5,1.00277780025972,0.00833333382532574,0.193055558469529,-0.0616973899304867,-0.0320704244077206,0.0293215326964855
5,1.02500007039179,-0.00555555575692586,0.187500003092477,0.0769690200686455,0.0577267669141293,0.0479529201984406
5,1.00972225967599,-0.0222222230277034,0.197222234119292,0.0861319974064827,0.0442877300083637,0.0250454749912024
5,1.00972225967599,-0.00694444498106275,0.188888894975731,0.0659734457731247,0.0250454749912024,0.00580321997404099
5,1.04166667574312,-0.00972222266958873,0.169444445078067,0.0311541277915239,0.169820532202721,0.00916297826915979
5,1.0361111082101,-0.0513888902767219,0.17361112072783,0.123394779860973,0.273973047733307,0.0974330082535744
5,0.959722249126559,-0.0444444460554069,0.269444466176932,0.271529614925385,0.0684169083833694,0.019547687843442
5,0.993055557076942,-0.0152777788063885,0.223611131277262,0.230907067656517,0.0494800843298435,-0.0021380283869803
5,0.993055557076942,0.0138888899621255,0.206944452990142,0.140804439783096,0.0794124826788902,0.0534507073462009
5,0.997222232726705,0.033333335301303,0.220833347510754,0.140499010682106,-0.00794124789535999,0.00794124789535999
5,0.959722249126559,0.0611111152255539,0.234722242031366,-0.126449108123779,-0.129503428936005,-0.0940732508897781
5,0.963888924776322,-0.0152777788063885,0.237500001485945,-0.058643065392971,-0.252287358045578,-0.117286130785942
5,1.05000002704265,0.00833333382532574,0.162500009973726,0.0907134860754013,0.0161879286170006,-0.0357356183230877
5,1.0125000434425,0.0458333348996699,0.151388899219622,0.0757472887635231,0.0412334054708481,0.0534507073462009
5,0.986111194908388,0.0361111129898289,0.238888893369199,-0.332310706377029,-0.22235494852066,0.0641408488154411
5,1.01527782720901,-0.029166668768514,0.197222234119292,-0.0021380283869803,0.00610865233466029,0.117896988987923
5,1.0361111082101,-0.0250000007162294,0.205555561106887,0.129808858036995,-0.0045814891345799,-0.000916297896765172
5,1.0333333244436,-0.00972222266958873,0.176388892338373,0.0864374339580536,-0.0213802829384804,-0.0711658000946045
5,1.02222228662528,-0.00972222266958873,0.187500003092477,0.0293215326964855,0.0620028227567673,-0.0726929605007172
5,1.00277780025972,0.0583333375370279,0.190277786858986,-0.0149661982432008,0.0357356183230877,-0.0394008085131645
5,0.986111194908388,0.0388888906783549,0.200000005729836,-0.0244346093386412,-0.000916297896765172,0.0400116741657257
5,0.962500032893068,0.113888891307548,0.237500001485945,-0.203112691640854,-0.123394779860973,-0.0897971913218498
5,0.962500032893068,-0.00277777787846293,0.229166674498349,-0.417220950126648,-0.255036234855652,0.130419731140137
5,0.993055557076942,-0.0250000007162294,0.206944452990142,-0.237626582384109,-0.215940862894058,0.0433714315295219
5,0.998611124609959,-0.0208333341834404,0.198611113846581,-0.0720821022987366,-0.149661988019943,0.0549778714776039
5,1.09166668629255,-0.03194444645704,0.162500009973726,0.0891863256692886,-0.0445931628346443,0.0128281703218818
5,1.09444447005906,0.00277777787846293,0.184722231481934,0.173791155219078,0.124005645513535,-0.210748508572578
5,1.06805562152495,-0.00555555575692586,0.202777789496344,0.288939267396927,0.421191573143005,-0.134695783257484
5,0.906944454810619,0.00138888893923146,0.226388890731841,0.13744467496872,0.277943700551987,-0.159741267561913
5,0.976388951725609,0.0222222230277034,0.213888888094483,-0.0406225398182869,-0.0415388382971287,0.180510684847832
5,0.981944519258625,0.0347222241455659,0.195833342236038,-0.152410879731178,-0.0580321997404099,0.0287106670439243
5,1.00972225967599,0.00416666691266287,0.202777789496344,-0.0836885422468185,0.00946841109544039,0.0583376325666905
5,1.00555558402623,-0.00972222266958873,0.20138889761309,-0.0372627787292004,-0.00244346098043024,0.0491746515035629
5,1.0125000434425,-0.0250000007162294,0.215277779977737,0.0128281703218818,-0.00977384392172098,0.0235183127224445
5,1.0125000434425,-0.0250000007162294,0.215277779977737,0.0177150927484035,0.0131336031481624,0.0109955742955208
5,1.00833336779274,-0.00416666691266287,0.195833342236038,0.0229074470698834,0.00671951752156019,0.00610865233466029
5,1.00694447590948,-0.00277777787846293,0.202777789496344,0.0387899428606033,-0.00855211354792118,0.0323758572340012
5,1.00694447590948,-0.00277777787846293,0.202777789496344,0.0610865242779255,-0.0161879286170006,0.0442877300083637
5,1.00277780025972,-0.0194444453391775,0.212499996211229,0.0867428630590439,-0.00885754637420177,0.0455094613134861
5,1.00833336779274,-0.0125000003581147,0.208333344873396,0.0913243517279625,-0.0103847095742822,0.0241291765123606
5,1.00833336779274,-0.0125000003581147,0.208333344873396,0.096211276948452,-0.0106901414692402,0.0226020142436027
5,1.00138890837647,0.0152777788063885,0.208333344873396,0.0959058403968811,-0.0192422550171614,0.027488935738802
5,1.00277780025972,0.0236111118719664,0.206944452990142,0.0736092627048492,-0.0232128798961639,0.0442877300083637
5,1.00277780025972,0.0236111118719664,0.206944452990142,0.0448985956609249,-0.0360410511493683,0.0424551330506802
5,1.00694447590948,0.0222222230277034,0.20138889761309,0.011606439948082,-0.0455094613134861,0.0531452745199203
5,1.00416669214298,0.0152777788063885,0.205555561106887,-0.00122173049021512,-0.0507018156349659,0.0565050356090069
5,1.00416669214298,0.0152777788063885,0.205555561106887,0.00580321997404099,-0.0354301854968071,0.0400116741657257
5,1.00277780025972,0.00972222266958873,0.200000005729836,0.00305432616733015,-0.0311541277915239,0.0378736443817616
5,0.998611124609959,0.00555555575692586,0.204166669223633,-0.00824668072164059,-0.0467311926186085,0.0363464802503586
5,1.00277780025972,0.00555555575692586,0.198611113846581,-0.00946841109544039,-0.0598647929728031,0.01588249579072
5,1.00555558402623,-0.00972222266958873,0.202777789496344,0.01588249579072,-0.0412334054708481,0.0167987942695618
5,1.00972225967599,-0.0194444453391775,0.205555561106887,0.0299323964864016,-0.01588249579072,0.00152716308366507
5,1.01388893532575,-0.03194444645704,0.200000005729836,0.0525344125926495,0.0021380283869803,-0.00702495034784079
5,1.01388893532575,-0.03194444645704,0.202777789496344,0.0797179117798805,0.0033597587607801,-0.0131336031481624
5,1.00972225967599,-0.03194444645704,0.200000005729836,0.109650313854218,-0.0021380283869803,-0.00488692196086049
5,1.01111115155925,-0.0222222230277034,0.200000005729836,0.132557764649391,0.00549778714776039,0.00244346098043024
5,1.01527782720901,-0.0194444453391775,0.206944452990142,0.135306656360626,0.0100792767480016,0.00794124789535999
5,1.0125000434425,-0.0250000007162294,0.20138889761309,0.147218525409698,0.0235183127224445,0.00946841109544039
5,1.0125000434425,-0.0250000007162294,0.20138889761309,0.16371189057827,0.0314595587551594,0.00549778714776039
5,1.00416669214298,-0.0194444453391775,0.206944452990142,0.163101017475128,0.0183259565383196,0.00519235478714108
5,1.00694447590948,-0.0152777788063885,0.202777789496344,0.161268427968025,0.017409659922123,0.00152716308366507
5,1.00833336779274,-0.00555555575692586,0.20972223675665,0.152716308832169,0.013744467869401,0.000916297896765172
5,1.00138890837647,-0.00138888893923146,0.218055563744246,0.138055548071861,0.0183259565383196,-0.00397062394768
5,1.00000001649321,-0.00138888893923146,0.2194444556275,0.110566608607769,0.0122173046693206,-0.00733038317412138
5,1.00694447590948,0.00555555575692586,0.212499996211229,0.0668897479772568,0.0103847095742822,-0.0134390350431204
5,1.00694447590948,-0.00138888893923146,0.215277779977737,0.0540615729987621,0.01588249579072,-0.00946841109544039
5,1.00833336779274,-0.00833333382532574,0.2194444556275,0.0543670058250427,0.015577063895762,-0.00152716308366507
5,1.00555558402623,-0.0208333341834404,0.216666671860991,0.0604756586253643,0.0280998013913631,-0.00733038317412138
5,1.01805561097552,-0.026388891079988,0.20972223675665,0.0940732508897781,0.0803287774324417,-0.00366519158706069
5,1.01944450285877,-0.0347222241455659,0.202777789496344,0.12705996632576,0.129808858036995,-0.0033597587607801
5,1.00416669214298,-0.0375000018340919,0.216666671860991,0.178067222237587,0.150883719325066,-0.00702495034784079
5,0.99583334084345,-0.0208333341834404,0.233333350148112,0.221133217215538,0.107512280344963,-0.0213802829384804
5,1.00694447590948,0.00555555575692586,0.24583335278547,0.199447497725487,0.0675006061792374,-0.0250454749912024
5,1.00833336779274,0.0236111118719664,0.227777782615095,0.131641462445259,0.0394008085131645,0.00824668072164059
5,0.98888888142718,0.0111111115138517,0.229166674498349,0.113010071218014,0.0210748501121998,0.0332921557128429
5,0.983333411141879,0.0111111115138517,0.226388890731841,0.150578290224075,0.0473420582711697,0.0369573459029198
5,0.993055557076942,0.00555555575692586,0.233333350148112,0.171042263507843,0.0995710343122482,0.0113010071218014
5,1.00000001649321,0.0166666676506515,0.236111109602691,0.11636982858181,0.0534507073462009,-0.0229074470698834
5,1.00555558402623,0.0152777788063885,0.216666671860991,0.03176499158144,0.00244346098043024,-0.0653625801205635
5,1.00416669214298,0.00555555575692586,0.20972223675665,0.00397062394768,0.029626963660121,-0.0864374339580536
5,1.00000001649321,0.00416666691266287,0.204166669223633,-0.00733038317412138,0.0427605658769607,-0.0925460830330849
5,1.00694447590948,0.0194444453391775,0.208333344873396,0.0125227374956012,0.0455094613134861,-0.0757472887635231
5,1.00277780025972,0.0125000003581147,0.202777789496344,0.0207694191485643,0.0363464802503586,-0.0522289797663689
5,0.997222232726705,0.00972222266958873,0.20972223675665,0.0412334054708481,0.0100792767480016,-0.00763581553474069
5,0.997222232726705,0.00555555575692586,0.208333344873396,0.0690277740359306,0.0305432621389627,0.0045814891345799
5,0.99583334084345,0.00416666691266287,0.218055563744246,0.0519235469400883,0.0213802829384804,0.013744467869401
5,0.986111194908388,0.00694444498106275,0.216666671860991,0.0262672062963247,-0.0534507073462009,0.0314595587551594
5,1.00555558402623,0.00277777787846293,0.206944452990142,0.0320704244077206,-0.0500909499824047,0.0500909499824047
5,1.00972225967599,0.00277777787846293,0.20972223675665,0.0177150927484035,-0.0235183127224445,0.0629191175103188
5,1.0125000434425,-0.00972222266958873,0.206944452990142,0.011606439948082,-0.0516181141138077,0.0687223374843597
5,1.01944450285877,-0.00416666691266287,0.194444450352783,0.00427605677396059,-0.0778853222727776,0.0534507073462009
5,1.00833336779274,-0.00416666691266287,0.188888894975731,0.00397062394768,-0.0867428630590439,0.0684169083833694
5,0.993055557076942,-0.00416666691266287,0.187500003092477,-0.0143553335219622,-0.0864374339580536,0.0678060427308083
5,1.00694447590948,-0.00138888893923146,0.179166676104882,-0.0436768643558025,-0.090408056974411,0.0769690200686455
5,1.00555558402623,-0.00277777787846293,0.170833336961321,-0.0552833043038845,-0.102319926023483,0.0613919571042061
5,1.00277780025972,0.00555555575692586,0.18333333959868,-0.0772744566202164,-0.102625362575054,0.0378736443817616
5,1.01666671909226,0.0347222241455659,0.17361112072783,-0.126449108123779,-0.0791070461273193,0.0259617734700441
5,1.01944450285877,0.0486111125881959,0.17361112072783,-0.186008468270302,-0.0754418596625328,0.0302378293126821
5,1.00138890837647,0.029166668768514,0.19166667874224,-0.207694187760353,-0.0852157026529312,0.0452040284872055
5,0.986111194908388,0.0125000003581147,0.208333344873396,-0.175623759627342,-0.0812450796365738,0.0213802829384804
5,0.99583334084345,0.00555555575692586,0.202777789496344,-0.155465200543404,-0.0736092627048492,-0.0113010071218014
5,1.01944450285877,0.0430555572111439,0.197222234119292,-0.167987942695618,-0.0659734457731247,-0.0271835029125214
5,1.0125000434425,0.0875000002275597,0.184722231481934,-0.265420943498612,-0.0937678143382072,0.000610865245107561
5,0.980555627375371,0.0888888921108138,0.194444450352783,-0.403171062469482,-0.142637029290199,0.0522289797663689
5,0.980555627375371,0.0513888902767219,0.190277786858986,-0.469144523143768,-0.208610475063324,0.0626136884093285
5,1.02222228662528,0.0152777788063885,0.176388892338373,-0.457843512296677,-0.199752941727638,0.0503963828086853
5,1.04027778385987,-0.0166666676506515,0.144444451959316,-0.412944912910461,-0.139582708477974,0.0235183127224445
5,1.02777785415829,-0.0486111125881959,0.150000007336368,-0.339335650205612,-0.070249505341053,0.0186313893646002
5,1.0125000434425,-0.0541666679652478,0.159722226207217,-0.275500237941742,-0.0342084541916847,0.0109955742955208
5,1.00694447590948,-0.0361111129898289,0.175000000455119,-0.233350530266762,-0.0455094613134861,0.00152716308366507
5,1.0125000434425,-0.0361111129898289,0.168055565350778,-0.213802829384804,-0.0613919571042061,-0.0106901414692402
5,0.998611124609959,0.0222222230277034,0.169444445078067,-0.231517925858498,-0.0849102661013603,0.00122173049021512
5,0.998611124609959,0.0222222230277034,0.166666673467524,-0.259923160076141,-0.118507854640484,0.0186313893646002
5,1.01388893532575,0.00277777787846293,0.154166670830166,-0.22754730284214,-0.129808858036995,0.0485637858510017
5,1.02222228662528,0.00277777787846293,0.144444451959316,-0.207388743758202,-0.105068825185299,0.0363464802503586
5,1.02083339474202,-0.00138888893923146,0.148611115453114,-0.209221348166466,-0.0842994004487991,0.0045814891345799
5,1.02222228662528,-0.0194444453391775,0.140277788465518,-0.189368233084679,-0.0632245540618896,0.00183259579353034
5,1.02916674604155,-0.029166668768514,0.134722233088466,-0.129197999835014,-0.0326812900602817,-0.0198531206697226
5,1.0333333244436,-0.026388891079988,0.140277788465518,-0.100181899964809,-0.0100792767480016,-0.0537561401724815
5,1.02500007039179,-0.0138888899621255,0.138888896582264,-0.114842668175697,0.00733038317412138,-0.0959058403968811
5,1.01944450285877,-0.0125000003581147,0.134722233088466,-0.118202425539494,0.0222965814173222,-0.124616511166096
5,1.02083339474202,-0.00972222266958873,0.144444451959316,-0.0931569486856461,0.0381790772080422,-0.118202425539494
5,1.02083339474202,-0.00972222266958873,0.144444451959316,-0.0580321997404099,0.0320704244077206,-0.0815505087375641
5,1.02222228662528,-0.0152777788063885,0.152777778946911,-0.0351247526705265,0.0558941699564457,-0.0635299831628799
5,1.02361117850853,-0.030555557612777,0.161111118090472,-0.0113010071218014,0.0803287774324417,-0.0623082555830479
5,1.02361117850853,-0.030555557612777,0.161111118090472,0.0180205255746841,0.081855945289135,-0.0693332031369209
5,1.00833336779274,-0.0416666683668809,0.168055565350778,0.0607810914516449,0.0610865242779255,-0.0568104684352875
5,1.01666671909226,-0.0416666683668809,0.161111118090472,0.136222943663597,0.0400116741657257,-0.0394008085131645
5,1.01666671909226,-0.0416666683668809,0.161111118090472,0.166766211390495,0.0268780700862408,-0.0164933614432812
5,1.01944450285877,-0.0402777795226179,0.150000007336368,0.166155353188515,0.0250454749912024,0.000305432622553781
5,1.00972225967599,-0.0583333375370279,0.140277788465518,0.195171445608139,0.027488935738802,-0.0164933614432812
5,1.00972225967599,-0.0583333375370279,0.140277788465518,0.247094988822937,0.0427605658769607,-0.0161879286170006
5,1.00694447590948,-0.0680555564078778,0.154166670830166,0.307265222072601,0.0436768643558025,-0.00824668072164059
5,1.04305556762637,-0.0597222233422998,0.154166670830166,0.350331217050552,0.0183259565383196,0.0103847095742822
5,1.04305556762637,-0.0597222233422998,0.154166670830166,0.345444291830063,0.0293215326964855,0.0033597587607801
5,1.03750000009336,-0.0458333348996699,0.14722222356986,0.346971452236175,0.0598647929728031,0.00366519158706069
5,1.0125000434425,-0.033333335301303,0.156944454596674,0.346971452236175,0.0690277740359306,0.0171042270958424
5,1.00000001649321,-0.026388891079988,0.166666673467524,0.366824567317963,0.0711658000946045,0.0262672062963247
5,1.00416669214298,-0.0194444453391775,0.163888889701015,0.381485342979431,0.0598647929728031,0.0198531206697226
5,1.0125000434425,-0.0194444453391775,0.170833336961321,0.382707089185715,0.0455094613134861,0.0207694191485643
5,1.00833336779274,-0.0125000003581147,0.176388892338373,0.398284137248993,0.0546724386513233,0.0149661982432008
5,1.01111115155925,-0.00416666691266287,0.179166676104882,0.420886158943176,0.0717766657471657,0.0204639863222837
5,1.01944450285877,0.00416666691266287,0.18333333959868,0.416610091924667,0.0745255574584007,0.00946841109544039
5,1.01388893532575,0.0111111115138517,0.184722231481934,0.393702656030655,0.0598647929728031,0.015577063895762
5,1.00555558402623,0.027777779924251,0.193055558469529,0.36529740691185,0.0436768643558025,0.00641408516094089
5,0.998611124609959,0.0416666683668809,0.200000005729836,0.34330627322197,0.0482583530247212,0.00152716308366507
5,0.984722303025134,0.0486111125881959,0.198611113846581,0.313984721899033,0.0613919571042061,0.00244346098043024
5,0.987499989543926,0.0513888902767219,0.202777789496344,0.274278491735458,0.0842994004487991,0.00366519158706069
5,0.991666665193688,0.0416666683668809,0.200000005729836,0.226631000638008,0.0833831056952477,0.0259617734700441
5,0.986111194908388,0.0222222230277034,0.204166669223633,0.141415297985077,0.0277943685650826,0.0934623852372169
5,1.00416669214298,-0.00833333382532574,0.195833342236038,0.0974330082535744,-0.0500909499824047,0.120645888149738
5,1.02916674604155,-0.030555557612777,0.187500003092477,0.0729983970522881,-0.0998764708638191,0.119424156844616
5,1.02916674604155,-0.0375000018340919,0.184722231481934,0.0778853222727776,-0.12675453722477,0.04764748737216
5,1.02916674604155,-0.0500000014324589,0.172222228844576,0.140804439783096,-0.070249505341053,-0.00824668072164059
5,1.03194452980806,-0.0416666683668809,0.166666673467524,0.202196389436722,0.0177150927484035,-0.0696386396884918
5,1.02916674604155,-0.00277777787846293,0.172222228844576,0.226020142436027,0.114842668175697,-0.0983493030071259
5,0.987499989543926,0.0583333375370279,0.215277779977737,0.159435823559761,0.149356558918953,-0.100181899964809
5,0.977777843608863,0.0708333340964038,0.220833347510754,0.117591559886932,0.123394779860973,-0.0766635909676552
5,0.973611167959101,0.0777777813567098,0.229166674498349,0.0595593601465225,0.0409279726445675,-0.0287106670439243
5,0.986111194908388,0.0694444482911319,0.237500001485945,0.0134390350431204,-0.0146607663482428,-0.00397062394768
5,1.00833336779274,0.0416666683668809,0.231944458264858,-0.0045814891345799,-0.0629191175103188,0.0253509078174829
5,1.01111115155925,0.0152777788063885,0.200000005729836,-0.0106901414692402,-0.0855211317539215,0.0378736443817616
5,1.00555558402623,-0.0152777788063885,0.188888894975731,-0.00702495034784079,-0.0543670058250427,0.00397062394768
5,1.00277780025972,-0.0194444453391775,0.180555567988136,-0.00152716308366507,0.01588249579072,-0.0314595587551594
5,1.00972225967599,-0.0138888899621255,0.17361112072783,-0.0122173046693206,0.0455094613134861,-0.0409279726445675
5,1.01111115155925,0.00277777787846293,0.181944447715425,-0.00519235478714108,0.0647517144680023,-0.0339030213654041
5,1.00416669214298,0.0138888899621255,0.195833342236038,0.00610865233466029,0.0830776765942574,-0.0149661982432008
5,1.01944450285877,0.0236111118719664,0.197222234119292,0.00397062394768,0.0729983970522881,-0.0277943685650826
5,1.01805561097552,0.03194444645704,0.20138889761309,-0.00244346098043024,0.0458148941397667,-0.0500909499824047
5,1.00277780025972,0.033333335301303,0.202777789496344,-0.0226020142436027,0.0507018156349659,-0.0525344125926495
5,0.98888888142718,0.029166668768514,0.213888888094483,-0.0348193198442459,0.0256563406437635,-0.0497855171561241
5,0.99583334084345,0.03194444645704,0.212499996211229,-0.0403171069920063,0.00580321997404099,-0.0232128798961639
5,1.00416669214298,0.029166668768514,0.206944452990142,-0.0497855171561241,-0.0113010071218014,-0.0131336031481624
5,1.00000001649321,0.0194444453391775,0.20972223675665,-0.0470366254448891,-0.0106901414692402,-0.000916297896765172
5,1.00000001649321,0.0125000003581147,0.206944452990142,-0.0546724386513233,0.013744467869401,-0.0103847095742822
5,1.01111115155925,0.00972222266958873,0.190277786858986,-0.0775798857212067,-0.00580321997404099,-0.0226020142436027
5,1.00833336779274,0.0208333341834404,0.190277786858986,-0.0952949747443199,-0.015577063895762,-0.0363464802503586
5,1.00277780025972,0.029166668768514,0.198611113846581,-0.124005645513535,-0.0204639863222837,-0.0299323964864016
5,1.00277780025972,0.029166668768514,0.202777789496344,-0.160046696662903,-0.0161879286170006,-0.017409659922123
5,0.99583334084345,0.0250000007162294,0.198611113846581,-0.167377084493637,-0.017409659922123,-0.0226020142436027
5,1.00138890837647,0.00833333382532574,0.202777789496344,-0.160962998867035,-0.0387899428606033,-0.0360410511493683
5,1.00277780025972,-0.00277777787846293,0.19166667874224,-0.164628177881241,-0.0546724386513233,-0.0268780700862408
5,1.00277780025972,-0.00277777787846293,0.195833342236038,-0.160962998867035,-0.0452040284872055,-0.0140499006956816
5,1.00555558402623,-0.0138888899621255,0.194444450352783,-0.152105450630188,-0.027488935738802,0.00671951752156019
5,1.01111115155925,-0.0236111118719664,0.180555567988136,-0.142637029290199,-0.0510072484612465,0.0406225398182869
5,1.02777785415829,-0.0416666683668809,0.176388892338373,-0.0992656052112579,-0.0757472887635231,0.0607810914516449
5,1.01111115155925,-0.03194444645704,0.180555567988136,-0.05283984541893,-0.0384845100343227,0.0647517144680023
5,1.00972225967599,-0.0250000007162294,0.190277786858986,-0.0592539273202419,-0.0360410511493683,0.0247400421649218
5,1.01944450285877,0.0138888899621255,0.19166667874224,-0.0714712366461754,-0.0421497002243996,0.0100792767480016
5,1.02083339474202,0.0250000007162294,0.190277786858986,-0.0705549344420433,-0.0229074470698834,0.0128281703218818
5,1.00972225967599,0.0361111129898289,0.197222234119292,-0.0943786799907684,0.00366519158706069,0.01191187184304
5,0.99583334084345,0.0250000007162294,0.206944452990142,-0.121867619454861,-0.0345138870179653,-0.0045814891345799
5,0.998611124609959,0.0222222230277034,0.20972223675665,-0.118202425539494,-0.0620028227567673,-0.0268780700862408
5,1.00000001649321,0.0208333341834404,0.202777789496344,-0.105374254286289,-0.0778853222727776,-0.0180205255746841
5,0.997222232726705,0.0236111118719664,0.195833342236038,-0.0748309940099716,-0.0934623852372169,-0.0250454749912024
5,0.99583334084345,0.0125000003581147,0.195833342236038,-0.0635299831628799,-0.0836885422468185,-0.0259617734700441
5,1.00555558402623,0.0166666676506515,0.18333333959868,-0.0522289797663689,-0.10567969083786,-0.0167987942695618
5,1.01944450285877,0.0180555564949145,0.163888889701015,-0.0320704244077206,-0.0650571510195732,0.0131336031481624
5,1.0305556379248,0.0222222230277034,0.150000007336368,-0.0320704244077206,0.0122173046693206,0.0332921557128429
5,1.02777785415829,0.0152777788063885,0.163888889701015,-0.0775798857212067,0.0598647929728031,0.0482583530247212
5,1.01111115155925,0.0125000003581147,0.18333333959868,-0.147218525409698,0.0186313893646002,0.0384845100343227
5,1.00138890837647,0.00277777787846293,0.187500003092477,-0.173791155219078,-0.0552833043038845,0.0354301854968071
5,1.00694447590948,-0.00416666691266287,0.190277786858986,-0.187230199575424,-0.0952949747443199,0.0384845100343227
5,1.00972225967599,-0.0180555564949145,0.181944447715425,-0.163101017475128,-0.0858265683054924,0.0210748501121998
5,1.00972225967599,-0.0250000007162294,0.170833336961321,-0.108734011650086,-0.0510072484612465,-0.00366519158706069
5,1.00555558402623,-0.0208333341834404,0.170833336961321,-0.0568104684352875,-0.0280998013913631,-0.0390953756868839
5,1.00555558402623,-0.0208333341834404,0.170833336961321,-0.00641408516094089,-0.0262672062963247,-0.0540615729987621
5,1.00972225967599,0.00694444498106275,0.16527778158427,0.0198531206697226,-0.0183259565383196,-0.0439822971820831
5,1.02222228662528,0.00833333382532574,0.179166676104882,0.0427605658769607,-0.00855211354792118,-0.021685715764761
5,1.02222228662528,0.00833333382532574,0.179166676104882,0.0568104684352875,0.000610865245107561,0.0100792767480016
5,1.02638896227504,-0.00416666691266287,0.166666673467524,0.0659734457731247,-0.0103847095742822,0.0177150927484035
5,1.02638896227504,-0.00694444498106275,0.16527778158427,0.0656680166721344,0.00488692196086049,0.00671951752156019
5,1.02638896227504,-0.00694444498106275,0.16527778158427,0.0610865242779255,0.0305432621389627,-0.0100792767480016
5,1.00833336779274,-0.00694444498106275,0.168055565350778,0.037568211555481,0.0290160998702049,-0.0277943685650826
5,1.00277780025972,0.0152777788063885,0.176388892338373,0.00824668072164059,0.00152716308366507,-0.0232128798961639
5,1.00277780025972,0.0152777788063885,0.176388892338373,0.00152716308366507,-0.00244346098043024,-0.0222965814173222
5,1.01527782720901,0.0222222230277034,0.169444445078067,-0.00763581553474069,0.00641408516094089,-0.0164933614432812
5,1.00555558402623,0.0166666676506515,0.163888889701015,-0.0256563406437635,0.00733038317412138,-0.00916297826915979
5,1.00555558402623,0.0166666676506515,0.163888889701015,-0.0308486949652433,0.00519235478714108,-0.0134390350431204
5,1.00555558402623,0.00972222266958873,0.17361112072783,-0.02382374368608,0.0177150927484035,0.0045814891345799
5,1.00277780025972,0.00138888893923146,0.177777784221628,-0.00916297826915979,-0.00977384392172098,0.0152716310694814
5,1.00138890837647,0.00138888893923146,0.180555567988136,0.00702495034784079,-0.0421497002243996,0.0103847095742822
5,1.00972225967599,0.00555555575692586,0.168055565350778,0.029626963660121,-0.0445931628346443,0.0207694191485643
5,1.00972225967599,0.00972222266958873,0.170833336961321,0.0326812900602817,-0.0207694191485643,0.0241291765123606
5,1.01527782720901,0.0125000003581147,0.158333334323963,0.0461203269660473,-0.000916297896765172,0.0183259565383196
5,1.01666671909226,0.00972222266958873,0.169444445078067,0.0516181141138077,-0.017409659922123,0.0152716310694814
5,1.01111115155925,0.00694444498106275,0.168055565350778,0.0653625801205635,-0.0106901414692402,0.0140499006956816
5,1.01527782720901,0.00555555575692586,0.177777784221628,0.0650571510195732,0.00824668072164059,0.0100792767480016
5,1.01666671909226,0.0138888899621255,0.168055565350778,0.0452040284872055,0.00824668072164059,0.00916297826915979
5,1.0125000434425,0.0180555564949145,0.170833336961321,0.0372627787292004,0.0103847095742822,0.0027488935738802
5,1.0125000434425,0.0194444453391775,0.166666673467524,0.0210748501121998,0.0253509078174829,0.00305432616733015
5,1.01944450285877,0.0194444453391775,0.180555567988136,0.00824668072164059,-0.0134390350431204,-0.0213802829384804
5,1.02500007039179,0.0166666676506515,0.175000000455119,0.011606439948082,-0.017409659922123,-0.0323758572340012
5,1.00555558402623,0.0236111118719664,0.169444445078067,0.00702495034784079,0.00519235478714108,-0.0207694191485643
5,1.00833336779274,0.0250000007162294,0.168055565350778,-0.000916297896765172,0.0226020142436027,-0.0284052342176437
5,1.00000001649321,0.03194444645704,0.193055558469529,-0.00580321997404099,0.0433714315295219,-0.00580321997404099
5,0.987499989543926,0.0250000007162294,0.18333333959868,-0.0280998013913631,0.0134390350431204,0.0128281703218818
5,0.990277773310434,0.0125000003581147,0.200000005729836,-0.0262672062963247,-0.00702495034784079,0.0128281703218818
5,1.00416669214298,0.0125000003581147,0.184722231481934,-0.0320704244077206,-0.0494800843298435,0.0189368221908808
5,1.01527782720901,-0.00555555575692586,0.169444445078067,-0.0302378293126821,-0.0806342139840126,0.0299323964864016
5,1.01388893532575,-0.00555555575692586,0.163888889701015,-0.0302378293126821,-0.0858265683054924,0.0280998013913631
5,1.02500007039179,-0.00555555575692586,0.138888896582264,-0.0302378293126821,-0.0464257597923279,0.0204639863222837
5,1.02916674604155,-0.00138888893923146,0.159722226207217,-0.0109955742955208,-0.00824668072164059,0.00885754637420177
5,1.01944450285877,-0.00833333382532574,0.168055565350778,0.00885754637420177,-0.000305432622553781,0.00488692196086049
5,1.00555558402623,-0.00277777787846293,0.17361112072783,0.000305432622553781,-0.0122173046693206,-0.00702495034784079
5,0.998611124609959,-0.00277777787846293,0.175000000455119,-0.00519235478714108,-0.0207694191485643,0.0027488935738802
5,1.00972225967599,0.00555555575692586,0.175000000455119,0.0271835029125214,-0.0122173046693206,0.000305432622553781
5,1.01805561097552,0.00833333382532574,0.163888889701015,0.0241291765123606,-0.0122173046693206,0.00519235478714108
5,1.01944450285877,0.00416666691266287,0.156944454596674,0.0339030213654041,-0.0113010071218014,0.0128281703218818
5,1.01805561097552,-0.00277777787846293,0.159722226207217,0.0167987942695618,-0.019547687843442,0.0219911485910416
5,1.00972225967599,-0.00277777787846293,0.154166670830166,-0.0021380283869803,-0.00580321997404099,0.0262672062963247
5,1.01111115155925,-0.00277777787846293,0.161111118090472,0.00305432616733015,0.01588249579072,0.00733038317412138
5,1.01527782720901,0.00555555575692586,0.166666673467524,0.00305432616733015,0.0424551330506802,-0.00397062394768
5,1.01527782720901,0.00277777787846293,0.168055565350778,-0.00763581553474069,0.0302378293126821,0.00855211354792118
5,1.00833336779274,0.00277777787846293,0.170833336961321,-0.0259617734700441,-0.011606439948082,0.0167987942695618
5,0.998611124609959,-0.00138888893923146,0.180555567988136,-0.0210748501121998,-0.0204639863222837,0.0164933614432812
5,1.00000001649321,-0.00416666691266287,0.176388892338373,-0.00366519158706069,-0.0180205255746841,0.0131336031481624
5,1.01666671909226,-0.00277777787846293,0.161111118090472,0.0033597587607801,0.00885754637420177,0.00580321997404099
5,1.02222228662528,-0.00138888893923146,0.16527778158427,-0.000305432622553781,0.00397062394768,0.01191187184304
5,1.01527782720901,-0.00138888893923146,0.172222228844576,-0.0113010071218014,-0.00366519158706069,0.0357356183230877
5,1.00833336779274,-0.00138888893923146,0.168055565350778,-0.00763581553474069,-0.0210748501121998,0.0430659987032413
5,1.00972225967599,-0.0166666676506515,0.166666673467524,0.0027488935738802,-0.0265726372599602,0.0186313893646002
5,1.01111115155925,-0.0111111115138517,0.154166670830166,0.021685715764761,-0.015577063895762,0.0204639863222837
5,1.01944450285877,0.00694444498106275,0.15555556271342,0.021685715764761,-0.0247400421649218,0.0244346093386412
5,1.0125000434425,0.0152777788063885,0.162500009973726,0.00183259579353034,-0.021685715764761,0.0598647929728031
5,1.00555558402623,-0.00277777787846293,0.16527778158427,-0.0143553335219622,-0.0229074470698834,0.0668897479772568
5,1.00277780025972,-0.0125000003581147,0.168055565350778,-0.0161879286170006,-0.0448985956609249,0.0467311926186085
5,1.00555558402623,-0.00555555575692586,0.161111118090472,-0.00519235478714108,-0.0406225398182869,0.0284052342176437
5,1.0125000434425,-0.00277777787846293,0.154166670830166,-0.0103847095742822,-0.0329867228865623,0.0424551330506802
5,1.01944450285877,-0.00555555575692586,0.161111118090472,-0.0268780700862408,-0.04764748737216,0.0522289797663689
5,1.01111115155925,-0.0152777788063885,0.154166670830166,-0.0305432621389627,-0.0516181141138077,0.0430659987032413
5,1.01388893532575,-0.0222222230277034,0.159722226207217,-0.00671951752156019,-0.0284052342176437,0.02382374368608
5,1.01805561097552,-0.0125000003581147,0.162500009973726,0.0103847095742822,0.000610865245107561,0.0045814891345799
5,1.01805561097552,-0.00277777787846293,0.163888889701015,0.00549778714776039,-0.013744467869401,0.0143553335219622
5,1.01666671909226,-0.00555555575692586,0.154166670830166,0.0045814891345799,-0.00122173049021512,0.0302378293126821
5,1.01388893532575,-0.027777779924251,0.151388899219622,0.015577063895762,0.0210748501121998,0.0372627787292004
5,1.01944450285877,-0.027777779924251,0.152777778946911,0.02382374368608,0.0690277740359306,0.01191187184304
5,1.00694447590948,-0.0138888899621255,0.169444445078067,0.0299323964864016,0.0998764708638191,-0.0412334054708481
5,1.00694447590948,-0.0138888899621255,0.16527778158427,0.0241291765123606,0.0794124826788902,-0.013744467869401
5,1.00833336779274,0.00555555575692586,0.166666673467524,0.0207694191485643,0.0525344125926495,0.02382374368608
5,1.02083339474202,-0.027777779924251,0.156944454596674,0.019547687843442,0.0250454749912024,0.0583376325666905
5,1.02777785415829,-0.0416666683668809,0.156944454596674,0.0232128798961639,0.0500909499824047,0.0671951770782471
5,1.0305556379248,-0.052777782159976,0.170833336961321,0.0311541277915239,0.0968221426010132,0.0219911485910416
5,1.0125000434425,-0.033333335301303,0.175000000455119,0.0510072484612465,0.0897971913218498,-0.0351247526705265
5,0.994444448960196,-0.00833333382532574,0.180555567988136,0.0549778714776039,0.0659734457731247,-0.0580321997404099
5,0.986111194908388,0.0152777788063885,0.17361112072783,0.0366519130766392,0.0662788823246956,-0.0455094613134861
5,0.993055557076942,0.0166666676506515,0.17361112072783,0.0268780700862408,0.0705549344420433,-0.00824668072164059
5,0.998611124609959,0.00972222266958873,0.176388892338373,0.0485637858510017,0.0781907513737679,-0.0210748501121998
5,1.00000001649321,0.00416666691266287,0.200000005729836,0.0711658000946045,0.0784961804747581,-0.0549778714776039
5,1.02083339474202,0.00972222266958873,0.20972223675665,0.12156218290329,0.0213802829384804,-0.0827722400426865
5,1.0361111082101,0.026388891079988,0.198611113846581,0.125532805919647,0.0103847095742822,-0.0726929605007172
5,1.02500007039179,0.0416666683668809,0.177777784221628,0.117896988987923,0.0387899428606033,-0.0467311926186085
5,1.01527782720901,0.0375000018340919,0.190277786858986,0.0662788823246956,0.0867428630590439,-0.0287106670439243
5,1.00416669214298,0.00972222266958873,0.193055558469529,0.0455094613134861,0.0940732508897781,-0.0662788823246956
5,0.997222232726705,0.00555555575692586,0.202777789496344,0.0427605658769607,0.0531452745199203,-0.0815505087375641
5,1.00000001649321,0.00277777787846293,0.190277786858986,0.0580321997404099,0.02382374368608,-0.0742201283574104
5,1.00416669214298,0.00277777787846293,0.179166676104882,0.0461203269660473,0.029626963660121,-0.0577267669141293
5,1.01388893532575,-0.00138888893923146,0.176388892338373,0.0363464802503586,0.0424551330506802,-0.0632245540618896
5,1.01666671909226,-0.0125000003581147,0.175000000455119,0.0235183127224445,0.0696386396884918,-0.0995710343122482
5,1.01527782720901,-0.0125000003581147,0.187500003092477,0.0134390350431204,0.0965167060494423,-0.122478485107422
5,1.00694447590948,0.0194444453391775,0.184722231481934,-0.00824668072164059,0.0931569486856461,-0.104152522981167
5,1.00694447590948,0.0208333341834404,0.188888894975731,-0.00794124789535999,0.0632245540618896,-0.0696386396884918
5,1.00972225967599,0.0125000003581147,0.20138889761309,0.00855211354792118,0.0565050356090069,-0.0592539273202419
5,1.00555558402623,0.0125000003581147,0.194444450352783,0.00977384392172098,0.0668897479772568,-0.0555887371301651
5,1.00555558402623,0.0125000003581147,0.194444450352783,0.00977384392172098,0.0678060427308083,-0.0378736443817616
5,1.01111115155925,0.0111111115138517,0.190277786858986,-0.0109955742955208,0.0534507073462009,-0.0314595587551594
5,1.01527782720901,0.0125000003581147,0.186111123365188,-0.0161879286170006,0.0598647929728031,-0.00244346098043024
5,1.01527782720901,0.0125000003581147,0.186111123365188,-0.0192422550171614,0.0714712366461754,0.015577063895762
5,1.00555558402623,0.0125000003581147,0.205555561106887,-0.0177150927484035,0.0448985956609249,0.0213802829384804
5,1.00416669214298,0.00555555575692586,0.200000005729836,-0.037568211555481,0.0100792767480016,0.02382374368608
5,1.01111115155925,0.00555555575692586,0.198611113846581,-0.0226020142436027,0.0180205255746841,0.0442877300083637
5,1.00972225967599,-0.00416666691266287,0.195833342236038,-0.00549778714776039,0.0412334054708481,0.0458148941397667
5,1.00416669214298,-0.00138888893923146,0.200000005729836,-0.01191187184304,0.0427605658769607,0.0268780700862408
5,1.00138890837647,0.00555555575692586,0.222222239394008,-0.0372627787292004,0.0134390350431204,0.0204639863222837
5,1.00138890837647,0.00555555575692586,0.222222239394008,-0.0390953756868839,-0.0106901414692402,0.0308486949652433
5,1.00138890837647,0.0166666676506515,0.206944452990142,-0.0250454749912024,-0.00824668072164059,0.0507018156349659
5,1.00138890837647,0.0166666676506515,0.206944452990142,-0.000305432622553781,-0.0134390350431204,0.0635299831628799
5,1.00416669214298,0.00833333382532574,0.211111128639904,0.00549778714776039,-0.0546724386513233,0.0546724386513233
5,1.00694447590948,0.00138888893923146,0.212499996211229,0.0146607663482428,-0.0558941699564457,0.0684169083833694
5,1.00555558402623,-0.00277777787846293,0.213888888094483,0.00305432616733015,-0.0348193198442459,0.0421497002243996
5,1.00972225967599,-0.00277777787846293,0.206944452990142,0.0320704244077206,-0.02382374368608,0.0235183127224445
5,1.00972225967599,0.00277777787846293,0.206944452990142,0.0378736443817616,-0.0268780700862408,0.0308486949652433
5,1.00972225967599,0.00972222266958873,0.193055558469529,0.0250454749912024,-0.019547687843442,0.0409279726445675
5,1.00833336779274,0.0125000003581147,0.190277786858986,0.015577063895762,0.0131336031481624,0.0284052342176437
5,1.00972225967599,0.00416666691266287,0.200000005729836,-0.00671951752156019,0.02382374368608,0.0177150927484035
5,1.0125000434425,0.00416666691266287,0.20972223675665,-0.0186313893646002,0.00671951752156019,0.0152716310694814
5,1.00555558402623,0.00694444498106275,0.202777789496344,-0.0109955742955208,-0.0103847095742822,0.01588249579072
5,1.00277780025972,0.00694444498106275,0.195833342236038,-0.00397062394768,-0.0253509078174829,0.013744467869401
5,1.00972225967599,0.00277777787846293,0.190277786858986,-0.0045814891345799,0.0109955742955208,0.0149661982432008
5,1.01527782720901,0.00972222266958873,0.179166676104882,-0.01588249579072,0.0335975885391235,0.00885754637420177
5,1.00416669214298,0.00277777787846293,0.198611113846581,-0.00855211354792118,0.0253509078174829,0.00122173049021512
5,1.00277780025972,0.00277777787846293,0.19166667874224,-0.0180205255746841,0.00916297826915979,0.0131336031481624
5,1.00416669214298,0.00138888893923146,0.19166667874224,-0.0113010071218014,-0.00488692196086049,0.0265726372599602
5,1.00416669214298,-0.00277777787846293,0.194444450352783,0.0100792767480016,0.0027488935738802,0.0329867228865623
5,1.00555558402623,-0.00277777787846293,0.193055558469529,0.0219911485910416,0.0210748501121998,0.027488935738802
5,0.993055557076942,-0.00555555575692586,0.20138889761309,0.03176499158144,-0.00855211354792118,0.0342084541916847
5,1.00000001649321,-0.00277777787846293,0.200000005729836,0.0326812900602817,-0.0415388382971287,0.011606439948082
5,1.00555558402623,0.00277777787846293,0.195833342236038,0.0247400421649218,-0.0323758572340012,0.0189368221908808
5,1.00972225967599,0.0138888899621255,0.18333333959868,0.0192422550171614,-0.015577063895762,0.0335975885391235
5,1.00555558402623,0.00555555575692586,0.202777789496344,0.00855211354792118,-0.0342084541916847,0.0448985956609249
5,1.00972225967599,0.00416666691266287,0.20972223675665,0.00824668072164059,-0.0824668109416962,0.0323758572340012
5,1.00555558402623,0.00555555575692586,0.200000005729836,0.00183259579353034,-0.0946841165423393,0.0369573459029198
5,1.00694447590948,0.00694444498106275,0.200000005729836,-0.00610865233466029,-0.0662788823246956,0.0537561401724815
5,1.00972225967599,0.00694444498106275,0.195833342236038,-0.0140499006956816,-0.0461203269660473,0.03176499158144
5,1.00416669214298,-0.0208333341834404,0.190277786858986,-0.00671951752156019,-0.037568211555481,0.0045814891345799
5,1.00138890837647,-0.0180555564949145,0.197222234119292,0.0280998013913631,-0.0458148941397667,0.00152716308366507
5,1.00416669214298,-0.0111111115138517,0.200000005729836,0.0403171069920063,-0.0613919571042061,0.00671951752156019
5,1.01388893532575,-0.00694444498106275,0.194444450352783,0.0369573459029198,-0.0717766657471657,0.0247400421649218
5,1.02083339474202,-0.00555555575692586,0.176388892338373,0.0290160998702049,-0.0592539273202419,0.019547687843442
5,1.00972225967599,-0.00972222266958873,0.177777784221628,0.0372627787292004,-0.0534507073462009,0.0192422550171614
5,1.00277780025972,-0.00972222266958873,0.193055558469529,0.0650571510195732,-0.0439822971820831,0.0262672062963247
5,1.00277780025972,-0.0208333341834404,0.18333333959868,0.0769690200686455,-0.0534507073462009,0.0131336031481624
5,1.01111115155925,-0.0194444453391775,0.188888894975731,0.0797179117798805,-0.0421497002243996,-0.0265726372599602
5,1.01527782720901,-0.00972222266958873,0.18333333959868,0.0745255574584007,-0.037568211555481,-0.0268780700862408
5,1.00416669214298,-0.00138888893923146,0.18333333959868,0.0723875313997269,-0.0522289797663689,-0.0247400421649218
5,0.994444448960196,0.00694444498106275,0.187500003092477,0.0616973899304867,-0.0745255574584007,-0.0106901414692402
5,1.01111115155925,0.00833333382532574,0.179166676104882,0.0555887371301651,-0.0659734457731247,0.011606439948082
5,1.02222228662528,0.00833333382532574,0.179166676104882,0.0473420582711697,-0.0342084541916847,0.0027488935738802
5,1.01944450285877,-0.00833333382532574,0.177777784221628,0.0461203269660473,-0.0122173046693206,-0.027488935738802
5,1.01527782720901,-0.00972222266958873,0.197222234119292,0.0226020142436027,-0.0314595587551594,-0.0448985956609249
5,1.00694447590948,-0.00972222266958873,0.193055558469529,0.019547687843442,-0.0412334054708481,-0.0339030213654041
5,1.00694447590948,-0.00972222266958873,0.186111123365188,0.00977384392172098,-0.0277943685650826,-0.0299323964864016
5,1.00694447590948,-0.00555555575692586,0.176388892338373,-0.0213802829384804,-0.00977384392172098,-0.0299323964864016
5,1.00416669214298,-0.00138888893923146,0.170833336961321,-0.0226020142436027,-0.0186313893646002,-0.0348193198442459
5,1.0125000434425,0.00416666691266287,0.170833336961321,0.00488692196086049,-0.0262672062963247,-0.0335975885391235
5,1.01666671909226,0.00416666691266287,0.166666673467524,0.0152716310694814,-0.0247400421649218,-0.0256563406437635
5,1.01388893532575,-0.00277777787846293,0.16527778158427,-0.00244346098043024,-0.0186313893646002,-0.0192422550171614
5,1.01527782720901,-0.00972222266958873,0.170833336961321,-0.0103847095742822,-0.0284052342176437,-0.0277943685650826
5,1.01388893532575,-0.00555555575692586,0.170833336961321,0.000916297896765172,-0.0284052342176437,-0.0259617734700441
5,1.01527782720901,0.00416666691266287,0.175000000455119,0.0213802829384804,-0.0210748501121998,-0.0033597587607801
5,1.0125000434425,0.00555555575692586,0.177777784221628,0.0320704244077206,-0.0329867228865623,-0.0131336031481624
5,1.01111115155925,-0.00277777787846293,0.170833336961321,0.0335975885391235,-0.0421497002243996,-0.0235183127224445
5,1.01111115155925,-0.00138888893923146,0.169444445078067,0.0250454749912024,-0.0418442711234093,-0.0326812900602817
5,1.01388893532575,-0.00138888893923146,0.168055565350778,0.0140499006956816,-0.0427605658769607,-0.0357356183230877
5,1.01527782720901,-0.00277777787846293,0.168055565350778,0.0226020142436027,-0.0366519130766392,-0.0348193198442459
5,1.00972225967599,-0.00277777787846293,0.17361112072783,0.0387899428606033,-0.0397062413394451,-0.029626963660121
5,1.01111115155925,0.00416666691266287,0.169444445078067,0.0485637858510017,-0.0378736443817616,-0.0265726372599602
5,1.01805561097552,0.0125000003581147,0.156944454596674,0.0335975885391235,-0.0305432621389627,-0.02382374368608
5,1.0125000434425,0.00555555575692586,0.159722226207217,0.0164933614432812,-0.0378736443817616,-0.0152716310694814
5,1.0125000434425,0.00138888893923146,0.161111118090472,-0.0103847095742822,-0.0384845100343227,-0.019547687843442
5,1.0125000434425,0.00277777787846293,0.166666673467524,0.0027488935738802,-0.01588249579072,-0.0302378293126821
5,1.00833336779274,0.00277777787846293,0.166666673467524,0.0109955742955208,-0.00733038317412138,-0.0210748501121998
5,1.00416669214298,0.00972222266958873,0.176388892338373,0.011606439948082,-0.019547687843442,-0.0113010071218014
5,1.00694447590948,0.0236111118719664,0.177777784221628,-0.0045814891345799,-0.0311541277915239,-0.00610865233466029
5,1.00277780025972,0.0222222230277034,0.162500009973726,-0.00824668072164059,-0.0531452745199203,0.00244346098043024
5,1.00972225967599,0.00972222266958873,0.161111118090472,-0.0103847095742822,-0.0739146918058395,0.0033597587607801
5,1.01527782720901,0.00555555575692586,0.169444445078067,-0.00519235478714108,-0.0699440687894821,-0.00427605677396059
5,1.02361117850853,0.00416666691266287,0.141666668192807,0.0241291765123606,-0.0638354197144508,-0.0027488935738802
5,1.01527782720901,0.0166666676506515,0.154166670830166,0.04764748737216,-0.0140499006956816,0.0021380283869803
5,1.00694447590948,0.0194444453391775,0.156944454596674,0.0268780700862408,-0.0384845100343227,0.000610865245107561
5,1.00972225967599,0.0125000003581147,0.161111118090472,0.0284052342176437,-0.0635299831628799,-0.00183259579353034
5,1.01388893532575,0.0152777788063885,0.163888889701015,0.0427605658769607,-0.0561996027827263,0.00183259579353034
5,1.01388893532575,0.0152777788063885,0.163888889701015,0.0387899428606033,-0.0430659987032413,-0.00397062394768
5,1.01944450285877,0.00972222266958873,0.162500009973726,0.0378736443817616,-0.0180205255746841,-0.017409659922123
5,1.00833336779274,0.00972222266958873,0.16527778158427,0.0320704244077206,-0.0259617734700441,-0.0152716310694814
5,1.00833336779274,0.00972222266958873,0.16527778158427,0.0253509078174829,-0.0418442711234093,-0.00763581553474069
5,1.0125000434425,0.00972222266958873,0.154166670830166,0.0287106670439243,-0.0412334054708481,-0.0177150927484035
5,1.01527782720901,0.00972222266958873,0.156944454596674,0.0192422550171614,-0.0507018156349659,-0.0360410511493683
5,1.01527782720901,0.00972222266958873,0.156944454596674,0.0198531206697226,-0.0546724386513233,-0.0482583530247212
5,1.01111115155925,0.00972222266958873,0.14722222356986,0.02382374368608,-0.0598647929728031,-0.0519235469400883
5,1.01388893532575,0.0194444453391775,0.162500009973726,0.0171042270958424,-0.0665843114256859,-0.0455094613134861
5,1.01388893532575,0.0194444453391775,0.162500009973726,0.00610865233466029,-0.0736092627048492,-0.0406225398182869
5,1.0125000434425,0.0194444453391775,0.154166670830166,-0.0033597587607801,-0.0769690200686455,-0.0329867228865623
5,1.00972225967599,0.027777779924251,0.143055560076062,-0.0140499006956816,-0.0855211317539215,-0.0262672062963247
5,1.00972225967599,0.027777779924251,0.143055560076062,-0.000305432622553781,-0.0620028227567673,-0.0308486949652433
5,1.01944450285877,0.0125000003581147,0.140277788465518,0.0235183127224445,-0.0442877300083637,-0.0326812900602817
5,1.02500007039179,0.0166666676506515,0.151388899219622,0.027488935738802,-0.0705549344420433,-0.0418442711234093
5,1.00972225967599,0.0194444453391775,0.151388899219622,0.017409659922123,-0.0842994004487991,-0.0430659987032413
5,1.00972225967599,0.0194444453391775,0.151388899219622,0.0204639863222837,-0.0959058403968811,-0.0366519130766392
5,1.01944450285877,0.0222222230277034,0.130555557438704,0.0299323964864016,-0.0705549344420433,-0.0415388382971287
5,1.02083339474202,0.00555555575692586,0.130555557438704,0.0113010071218014,-0.0259617734700441,-0.0497855171561241
5,1.02083339474202,0.00555555575692586,0.130555557438704,0.0027488935738802,-0.00397062394768,-0.0632245540618896
5,1.00833336779274,0.00833333382532574,0.150000007336368,0.0409279726445675,-0.0913243517279625,-0.0332921557128429
5,1.00000001649321,0.0375000018340919,0.148611115453114,0.0671951770782471,-0.102319926023483,-0.013744467869401
5,1.02083339474202,0.0375000018340919,0.118055554801345,0.0171042270958424,-0.0284052342176437,-0.0247400421649218
5,1.04444445950963,0.0222222230277034,0.106944444047242,-0.0430659987032413,0.0641408488154411,-0.0522289797663689
5,1.02083339474202,0.0250000007162294,0.125000002061652,-0.0415388382971287,0.0503963828086853,-0.0513126812875271
5,1.00277780025972,0.03194444645704,0.144444451959316,-0.0140499006956816,0.011606439948082,-0.0415388382971287
5,1.00555558402623,0.0375000018340919,0.13750000469901,0.00824668072164059,-0.000916297896765172,-0.0232128798961639
5,1.01666671909226,0.027777779924251,0.134722233088466,-0.00549778714776039,0.0247400421649218,-0.0354301854968071
5,1.01666671909226,0.0194444453391775,0.13750000469901,-0.0189368221908808,0.0412334054708481,-0.0675006061792374
5,1.01944450285877,0.0236111118719664,0.13750000469901,-0.0186313893646002,0.0427605658769607,-0.0671951770782471
5,1.01666671909226,0.0347222241455659,0.143055560076062,-0.0219911485910416,0.017409659922123,-0.0546724386513233
5,1.00972225967599,0.0416666683668809,0.133333341205212,-0.0186313893646002,0.0122173046693206,-0.0253509078174829
5,1.01527782720901,0.030555557612777,0.12916666555545,-0.0366519130766392,0.0232128798961639,-0.0323758572340012
5,1.01666671909226,0.0222222230277034,0.125000002061652,-0.0366519130766392,0.0555887371301651,-0.0433714315295219
5,1.01944450285877,0.0222222230277034,0.133333341205212,-0.0235183127224445,0.0613919571042061,-0.0366519130766392
5,1.00555558402623,0.0444444460554069,0.151388899219622,0.00183259579353034,0.0177150927484035,-0.00183259579353034
5,1.00277780025972,0.0458333348996699,0.158333334323963,0.0189368221908808,-0.000916297896765172,0.0290160998702049
5,1.01111115155925,0.0416666683668809,0.14583334384257,-0.00152716308366507,0.00519235478714108,0.0122173046693206
5,1.01666671909226,0.0236111118719664,0.125000002061652,-0.00885754637420177,0.00916297826915979,-0.00794124789535999
5,1.01805561097552,0.027777779924251,0.133333341205212,-0.0131336031481624,0.0213802829384804,-0.00916297826915979
5,1.02361117850853,0.03194444645704,0.134722233088466,-0.00152716308366507,0.0348193198442459,0.019547687843442
5,1.01944450285877,0.0458333348996699,0.136111112815755,-0.000610865245107561,0.0329867228865623,0.0277943685650826
5,1.01666671909226,0.0388888906783549,0.14583334384257,-0.00855211354792118,0.0192422550171614,0.0329867228865623
5,1.00833336779274,0.029166668768514,0.13750000469901,-0.0259617734700441,0.019547687843442,0.0287106670439243
5,1.00972225967599,0.027777779924251,0.141666668192807,-0.0366519130766392,0.0177150927484035,0.0213802829384804
5,1.01527782720901,0.03194444645704,0.13750000469901,-0.0284052342176437,0.0259617734700441,0.0326812900602817
5,1.01527782720901,0.0361111129898289,0.140277788465518,-0.0125227374956012,0.0314595587551594,0.0345138870179653
5,1.01527782720901,0.0361111129898289,0.144444451959316,0.00305432616733015,0.02382374368608,0.029626963660121
5,1.01111115155925,0.0250000007162294,0.150000007336368,-0.00122173049021512,0.00733038317412138,0.029626963660121
5,1.01527782720901,0.03194444645704,0.152777778946911,-0.00427605677396059,0.00427605677396059,0.0326812900602817
5,1.01527782720901,0.0388888906783549,0.14583334384257,-0.0213802829384804,0.0250454749912024,0.0326812900602817
5,1.01111115155925,0.0375000018340919,0.140277788465518,-0.0244346093386412,0.0320704244077206,0.0403171069920063
5,1.00972225967599,0.029166668768514,0.152777778946911,-0.017409659922123,0.0186313893646002,0.0219911485910416
5,1.00972225967599,0.0222222230277034,0.14722222356986,-0.0183259565383196,0.0125227374956012,0.00794124789535999
5,1.01388893532575,0.0208333341834404,0.138888896582264,-0.0259617734700441,0.0287106670439243,0.0033597587607801
5,1.01527782720901,0.0250000007162294,0.14722222356986,-0.0247400421649218,0.0534507073462009,-0.00977384392172098
5,1.01111115155925,0.0194444453391775,0.144444451959316,-0.0152716310694814,0.0500909499824047,-0.0180205255746841
5,1.0125000434425,0.0194444453391775,0.14583334384257,-0.01588249579072,0.0516181141138077,-0.0198531206697226
5,1.01527782720901,0.0194444453391775,0.15555556271342,-0.017409659922123,0.05283984541893,-0.027488935738802
5,1.01666671909226,0.0194444453391775,0.154166670830166,-0.00977384392172098,0.0516181141138077,-0.0171042270958424
5,1.01805561097552,0.03194444645704,0.14722222356986,-0.0186313893646002,0.0458148941397667,-0.0027488935738802
5,1.00972225967599,0.0361111129898289,0.138888896582264,-0.0332921557128429,0.0277943685650826,-0.00305432616733015
5,1.00555558402623,0.030555557612777,0.144444451959316,-0.0500909499824047,0.00122173049021512,0.0229074470698834
5,1.00277780025972,0.029166668768514,0.14722222356986,-0.0467311926186085,-0.00122173049021512,0.00641408516094089
5,1.00833336779274,0.03194444645704,0.14722222356986,-0.0360410511493683,0.00671951752156019,0.00946841109544039
5,1.0125000434425,0.029166668768514,0.150000007336368,-0.013744467869401,0.00488692196086049,0.0299323964864016
5,1.00833336779274,0.0222222230277034,0.159722226207217,-0.0204639863222837,-0.0161879286170006,0.0339030213654041
5,1.0125000434425,0.0222222230277034,0.154166670830166,-0.019547687843442,-0.0314595587551594,0.0219911485910416
5,1.01944450285877,0.03194444645704,0.150000007336368,-0.0247400421649218,-0.0122173046693206,0.0354301854968071
5,1.0125000434425,0.026388891079988,0.151388899219622,-0.0219911485910416,-0.0140499006956816,0.0213802829384804
5,1.01111115155925,0.0180555564949145,0.150000007336368,-0.0277943685650826,-0.0033597587607801,0.0033597587607801
5,1.01388893532575,0.00972222266958873,0.152777778946911,-0.0305432621389627,0.00977384392172098,-0.01588249579072
5,1.01527782720901,0.0180555564949145,0.154166670830166,-0.0351247526705265,0.0204639863222837,-0.0262672062963247
5,1.01388893532575,0.027777779924251,0.154166670830166,-0.0387899428606033,-0.000916297896765172,-0.0229074470698834
5,1.00833336779274,0.03194444645704,0.166666673467524,-0.0384845100343227,-0.00855211354792118,-0.0140499006956816
5,1.01527782720901,0.0236111118719664,0.154166670830166,-0.0387899428606033,-0.00580321997404099,-0.0241291765123606
5,1.01527782720901,0.027777779924251,0.159722226207217,-0.0287106670439243,0.00977384392172098,-0.0140499006956816
5,1.01388893532575,0.0250000007162294,0.154166670830166,-0.0265726372599602,-0.00244346098043024,-0.00580321997404099
5,1.01388893532575,0.0222222230277034,0.150000007336368,-0.0302378293126821,-0.00122173049021512,0.000305432622553781
5,1.00972225967599,0.0250000007162294,0.154166670830166,-0.0186313893646002,-0.00641408516094089,-0.0103847095742822
5,1.0125000434425,0.0222222230277034,0.15555556271342,-0.017409659922123,-0.00763581553474069,-0.0033597587607801
5,1.01527782720901,0.0152777788063885,0.144444451959316,-0.0198531206697226,-0.0149661982432008,0.000916297896765172
5,1.01527782720901,0.0138888899621255,0.152777778946911,-0.0109955742955208,-0.00794124789535999,-0.01588249579072
5,1.01666671909226,0.0138888899621255,0.156944454596674,-0.013744467869401,0.00183259579353034,-0.0113010071218014
5,1.0125000434425,0.0208333341834404,0.15555556271342,-0.00733038317412138,-0.00763581553474069,-0.00488692196086049
5,1.01527782720901,0.0208333341834404,0.150000007336368,-0.00702495034784079,-0.0033597587607801,-0.00946841109544039
5,1.01111115155925,0.0194444453391775,0.151388899219622,-0.00763581553474069,-0.00702495034784079,-0.0152716310694814
5,1.0125000434425,0.0194444453391775,0.161111118090472,-0.00427605677396059,0.00366519158706069,-0.00916297826915979
5,1.0125000434425,0.0222222230277034,0.158333334323963,0.00549778714776039,0.0045814891345799,-0.0177150927484035
5,1.01111115155925,0.029166668768514,0.161111118090472,0.00305432616733015,0.00641408516094089,-0.00397062394768
5,1.00833336779274,0.0250000007162294,0.159722226207217,0.00733038317412138,-0.00244346098043024,0.00702495034784079
5,1.00833336779274,0.026388891079988,0.159722226207217,0.00122173049021512,-0.0146607663482428,0.00397062394768
5,1.00555558402623,0.0236111118719664,0.156944454596674,0.00610865233466029,-0.00641408516094089,0.00519235478714108
5,1.00972225967599,0.029166668768514,0.154166670830166,0.0143553335219622,-0.00733038317412138,-0.00733038317412138
5,1.00972225967599,0.0250000007162294,0.156944454596674,0.011606439948082,-0.00244346098043024,0.00152716308366507
5,1.00972225967599,0.030555557612777,0.156944454596674,0.0140499006956816,-0.00152716308366507,0.0106901414692402
5,1.01111115155925,0.03194444645704,0.144444451959316,0.0180205255746841,-0.0045814891345799,0.0134390350431204
5,1.0125000434425,0.029166668768514,0.144444451959316,-0.00488692196086049,-0.0268780700862408,0.0204639863222837
5,1.01527782720901,0.027777779924251,0.141666668192807,-0.0152716310694814,-0.0256563406437635,0.0186313893646002
5,1.00972225967599,0.0361111129898289,0.148611115453114,0.00305432616733015,-0.0143553335219622,0.0189368221908808
5,1.01111115155925,0.0361111129898289,0.156944454596674,0.00488692196086049,-0.0106901414692402,0.0290160998702049
5,1.01111115155925,0.030555557612777,0.154166670830166,-0.00855211354792118,-0.0207694191485643,0.027488935738802
5,1.01388893532575,0.029166668768514,0.154166670830166,-0.0143553335219622,-0.0378736443817616,0.0259617734700441
5,1.01388893532575,0.029166668768514,0.150000007336368,-0.0033597587607801,-0.0369573459029198,0.0210748501121998
5,1.01388893532575,0.029166668768514,0.154166670830166,0.0033597587607801,-0.0226020142436027,0.0232128798961639
5,1.0125000434425,0.0222222230277034,0.152777778946911,0.00397062394768,-0.0106901414692402,0.0229074470698834
5,1.01527782720901,0.0208333341834404,0.154166670830166,0.0134390350431204,-0.00946841109544039,0.00152716308366507
5,1.01805561097552,0.0222222230277034,0.150000007336368,0.00122173049021512,-0.000305432622553781,-0.000916297896765172
5,1.01388893532575,0.0166666676506515,0.14722222356986,0.00671951752156019,-0.0045814891345799,0.00824668072164059
5,1.0125000434425,0.0236111118719664,0.161111118090472,0.0125227374956012,0.00244346098043024,-0.000916297896765172
5,1.01111115155925,0.0236111118719664,0.154166670830166,0.0167987942695618,-0.00488692196086049,0.00580321997404099
5,1.01388893532575,0.03194444645704,0.143055560076062,0.0109955742955208,0.00824668072164059,0.0045814891345799
5,1.00972225967599,0.027777779924251,0.148611115453114,0.0106901414692402,0.00733038317412138,0.00122173049021512
5,1.01111115155925,0.026388891079988,0.159722226207217,0.013744467869401,0.00702495034784079,0.00885754637420177
5,1.0125000434425,0.0236111118719664,0.161111118090472,0.0021380283869803,0.0033597587607801,0.00610865233466029
5,1.0125000434425,0.0236111118719664,0.14583334384257,0.00977384392172098,0.0122173046693206,0.00885754637420177
5,1.01527782720901,0.0236111118719664,0.154166670830166,0.0171042270958424,0.0167987942695618,0.0131336031481624
5,1.01388893532575,0.026388891079988,0.152777778946911,0.00702495034784079,0.017409659922123,0.00122173049021512
5,1.01388893532575,0.026388891079988,0.152777778946911,-0.00824668072164059,0.0125227374956012,0.00641408516094089
5,1.01527782720901,0.029166668768514,0.143055560076062,-0.011606439948082,0.0128281703218818,0.00671951752156019
5,1.01111115155925,0.0194444453391775,0.148611115453114,0.000305432622553781,0.0284052342176437,0.00916297826915979
5,1.01111115155925,0.0194444453391775,0.148611115453114,-0.00671951752156019,0.0323758572340012,0.00610865233466029
5,1.01944450285877,0.0222222230277034,0.144444451959316,-0.00794124789535999,0.0232128798961639,0.0045814891345799
5,1.01666671909226,0.0250000007162294,0.158333334323963,-0.0113010071218014,0.0183259565383196,0.00702495034784079
5,1.01666671909226,0.0250000007162294,0.158333334323963,-0.00916297826915979,0.00519235478714108,0.0109955742955208
5,1.01944450285877,0.0222222230277034,0.151388899219622,-0.00824668072164059,0.00733038317412138,0.0122173046693206
5,1.01527782720901,0.0125000003581147,0.14722222356986,-0.00610865233466029,0.0143553335219622,0.00885754637420177
5,1.01527782720901,0.0125000003581147,0.14722222356986,-0.0128281703218818,0.021685715764761,0.00610865233466029
5,1.0125000434425,0.00972222266958873,0.14583334384257,-0.01588249579072,0.0284052342176437,-0.0021380283869803
5,1.01111115155925,0.0125000003581147,0.144444451959316,-0.0125227374956012,0.0348193198442459,-0.00946841109544039
5,1.0125000434425,0.0222222230277034,0.152777778946911,-0.00397062394768,0.0357356183230877,0.00366519158706069
5,1.01527782720901,0.0194444453391775,0.14722222356986,0.000916297896765172,0.0452040284872055,-0.000610865245107561
5,1.01666671909226,0.0222222230277034,0.14583334384257,0.0027488935738802,0.0616973899304867,0.00580321997404099
5,1.0125000434425,0.0180555564949145,0.154166670830166,0.00671951752156019,0.0534507073462009,0.00549778714776039
5,1.00694447590948,0.0152777788063885,0.176388892338373,-0.00946841109544039,0.0229074470698834,0.0152716310694814
5,1.00694447590948,0.033333335301303,0.170833336961321,-0.0384845100343227,-0.0100792767480016,0.0143553335219622
5,1.00694447590948,0.0125000003581147,0.156944454596674,-0.00946841109544039,0.00580321997404099,0.0186313893646002
5,1.01944450285877,0.00555555575692586,0.150000007336368,0.0189368221908808,0.0378736443817616,0.00641408516094089
5,1.02361117850853,0.00416666691266287,0.150000007336368,0.0244346093386412,0.0601702257990837,-0.0021380283869803
5,1.01527782720901,0.00555555575692586,0.150000007336368,0.0164933614432812,0.0592539273202419,-0.00580321997404099
5,1.00833336779274,0.0125000003581147,0.161111118090472,0.0213802829384804,0.0436768643558025,-0.00580321997404099
5,1.00833336779274,0.0180555564949145,0.166666673467524,0.019547687843442,0.00366519158706069,0.00397062394768
5,1.00833336779274,0.0180555564949145,0.163888889701015,0.00305432616733015,-0.00610865233466029,0.00641408516094089
5,1.01111115155925,0.0222222230277034,0.156944454596674,-0.013744467869401,0.00671951752156019,0.00916297826915979
5,1.00972225967599,0.0222222230277034,0.156944454596674,-0.0100792767480016,0.0171042270958424,-0.0021380283869803
5,1.0125000434425,0.030555557612777,0.172222228844576,-0.0027488935738802,0.0226020142436027,0.00366519158706069
5,1.00694447590948,0.0180555564949145,0.163888889701015,-0.0045814891345799,0.0125227374956012,-0.00671951752156019
5,1.00972225967599,0.00833333382532574,0.159722226207217,0.0161879286170006,0.00549778714776039,0.000916297896765172
5,1.0125000434425,0.0180555564949145,0.163888889701015,0.0189368221908808,0.0027488935738802,-0.00580321997404099
5,1.01527782720901,0.0222222230277034,0.163888889701015,0.019547687843442,0.00916297826915979,0.00977384392172098
5,1.0125000434425,0.0152777788063885,0.162500009973726,0.00641408516094089,-0.0045814891345799,0.0045814891345799
5,1.00972225967599,0.0138888899621255,0.172222228844576,-0.00244346098043024,-0.00244346098043024,0.013744467869401
5,1.0125000434425,0.00972222266958873,0.161111118090472,0.00885754637420177,0.00641408516094089,0.00610865233466029
5,1.01527782720901,0.00694444498106275,0.16527778158427,0.015577063895762,0.00794124789535999,0.00641408516094089
5,1.01111115155925,0.0125000003581147,0.166666673467524,0.0140499006956816,-0.013744467869401,0.00641408516094089
5,1.00555558402623,0.026388891079988,0.163888889701015,0.0033597587607801,-0.0100792767480016,0.00885754637420177
5,1.00694447590948,0.0236111118719664,0.163888889701015,-0.00305432616733015,0.00977384392172098,0.0235183127224445
5,1.00972225967599,0.0208333341834404,0.172222228844576,-0.00794124789535999,0.00488692196086049,0.0302378293126821
5,1.00972225967599,0.0180555564949145,0.166666673467524,0.00549778714776039,-0.0109955742955208,0.0186313893646002
5,1.00972225967599,0.0166666676506515,0.175000000455119,-0.00488692196086049,-0.0201585534960032,0.0219911485910416
5,1.00972225967599,0.0180555564949145,0.163888889701015,-0.00641408516094089,-0.0250454749912024,0.0219911485910416
5,1.00972225967599,0.0152777788063885,0.16527778158427,-0.00885754637420177,-0.013744467869401,0.0256563406437635
5,1.00972225967599,0.0152777788063885,0.162500009973726,-0.00671951752156019,-0.0125227374956012,0.0201585534960032
5,1.00833336779274,0.00972222266958873,0.169444445078067,0.0100792767480016,-0.0103847095742822,0.015577063895762
5,1.00972225967599,0.0125000003581147,0.166666673467524,0.0113010071218014,-0.0329867228865623,0.00152716308366507
5,1.00972225967599,0.0194444453391775,0.169444445078067,0.00733038317412138,-0.0332921557128429,-0.00610865233466029
5,1.0125000434425,0.0208333341834404,0.161111118090472,0.00641408516094089,-0.0262672062963247,-0.0109955742955208
5,1.00694447590948,0.0222222230277034,0.162500009973726,0.00702495034784079,-0.00855211354792118,-0.00519235478714108
5,1.0125000434425,0.0208333341834404,0.163888889701015,0.0131336031481624,0.00183259579353034,-0.0134390350431204
5,1.01805561097552,0.0166666676506515,0.16527778158427,0.0207694191485643,-0.00824668072164059,-0.0146607663482428
5,1.0125000434425,0.0180555564949145,0.169444445078067,0.015577063895762,-0.0222965814173222,-0.0180205255746841
5,1.00972225967599,0.0222222230277034,0.163888889701015,0.00824668072164059,-0.015577063895762,-0.0128281703218818
5,1.00555558402623,0.0208333341834404,0.162500009973726,-0.00488692196086049,-0.00885754637420177,-0.00671951752156019
5,1.0125000434425,0.0152777788063885,0.15555556271342,0.0161879286170006,-0.00244346098043024,0.0045814891345799
5,1.01527782720901,0.00972222266958873,0.16527778158427,0.0109955742955208,-0.00183259579353034,-0.00702495034784079
5,1.01527782720901,0.00555555575692586,0.161111118090472,0.0103847095742822,-0.00305432616733015,-0.0167987942695618
5,1.01527782720901,0.00694444498106275,0.156944454596674,0.01191187184304,-0.00397062394768,-0.0180205255746841
5,1.00833336779274,0.0222222230277034,0.161111118090472,0.01588249579072,-0.00671951752156019,-0.0045814891345799
5,1.00555558402623,0.0222222230277034,0.158333334323963,0.0161879286170006,-0.0311541277915239,0.00885754637420177
5,1.00972225967599,0.0125000003581147,0.158333334323963,0.017409659922123,-0.0488692186772823,0.00580321997404099
5,1.00833336779274,0.00555555575692586,0.163888889701015,0.0100792767480016,-0.0485637858510017,-0.00641408516094089
5,1.00972225967599,0.0125000003581147,0.161111118090472,-0.0149661982432008,-0.0561996027827263,-0.0021380283869803
5,1.01805561097552,0.0236111118719664,0.14722222356986,-0.0180205255746841,-0.0345138870179653,-0.0103847095742822
5,1.0125000434425,0.0138888899621255,0.152777778946911,-0.0177150927484035,-0.0125227374956012,-0.00610865233466029
5,1.01666671909226,0.00972222266958873,0.156944454596674,-0.00763581553474069,-0.0140499006956816,-0.00244346098043024
5,1.01805561097552,0.00555555575692586,0.158333334323963,0.00763581553474069,-0.0207694191485643,-0.00549778714776039
5,1.01527782720901,0.00277777787846293,0.152777778946911,0.0149661982432008,-0.0201585534960032,-0.00488692196086049
5,1.01805561097552,0.00555555575692586,0.144444451959316,0.0326812900602817,-0.00580321997404099,-0.00794124789535999
5,1.0125000434425,0.00277777787846293,0.15555556271342,0.0412334054708481,-0.0033597587607801,-0.0100792767480016
5,1.01527782720901,0.0111111115138517,0.15555556271342,0.0455094613134861,0.0021380283869803,0.000916297896765172
5,1.0125000434425,0.0138888899621255,0.159722226207217,0.0467311926186085,0.00641408516094089,-0.0027488935738802
5,1.0125000434425,0.0208333341834404,0.14722222356986,0.0479529201984406,-0.00702495034784079,0.0140499006956816
5,1.0125000434425,0.0208333341834404,0.14583334384257,0.0394008085131645,-0.00152716308366507,0.00977384392172098
5,1.0125000434425,0.0208333341834404,0.14583334384257,0.0287106670439243,-0.0021380283869803,0.00610865233466029
5,1.0125000434425,0.0222222230277034,0.14722222356986,0.0268780700862408,-0.00122173049021512,0.0033597587607801
5,1.01388893532575,0.0194444453391775,0.152777778946911,0.015577063895762,-0.00366519158706069,-0.0045814891345799
5,1.01388893532575,0.0180555564949145,0.152777778946911,0.0134390350431204,-0.00183259579353034,-0.00763581553474069
5,1.01805561097552,0.0152777788063885,0.150000007336368,0.0161879286170006,-0.00427605677396059,-0.0125227374956012
5,1.01111115155925,0.0194444453391775,0.14583334384257,0.0161879286170006,-0.00794124789535999,-0.0131336031481624
5,1.01388893532575,0.0194444453391775,0.156944454596674,0.00488692196086049,-0.0192422550171614,-0.00763581553474069
5,1.00972225967599,0.0194444453391775,0.15555556271342,-0.00183259579353034,-0.0232128798961639,-0.00152716308366507
5,1.0125000434425,0.0152777788063885,0.161111118090472,-0.00610865233466029,-0.019547687843442,-0.00488692196086049
5,1.01388893532575,0.0208333341834404,0.152777778946911,-0.00152716308366507,-0.0134390350431204,0.00152716308366507
5,1.01666671909226,0.0125000003581147,0.148611115453114,0.00580321997404099,-0.0027488935738802,0.00671951752156019
5,1.01527782720901,0.0152777788063885,0.144444451959316,0.00610865233466029,-0.00916297826915979,0.0027488935738802
5,1.01527782720901,0.0111111115138517,0.154166670830166,0.00427605677396059,-0.013744467869401,-0.00122173049021512
5,1.01666671909226,0.0138888899621255,0.14722222356986,0.00702495034784079,0.000305432622553781,-0.00366519158706069
5,1.01527782720901,0.0152777788063885,0.14722222356986,0.00488692196086049,0.00152716308366507,0.0045814891345799
5,1.01111115155925,0.0152777788063885,0.161111118090472,0.00610865233466029,-0.00397062394768,0.00427605677396059
5,1.0125000434425,0.0152777788063885,0.159722226207217,0.0103847095742822,0.00366519158706069,0.0033597587607801
5,1.0125000434425,0.0138888899621255,0.150000007336368,0.00916297826915979,-0.00397062394768,-0.00427605677396059
5,1.00555558402623,0.0194444453391775,0.150000007336368,0.0113010071218014,-0.011606439948082,-0.00549778714776039
5,1.0125000434425,0.0222222230277034,0.15555556271342,0.0171042270958424,0.000305432622553781,0.000916297896765172
5,1.01527782720901,0.0194444453391775,0.150000007336368,0.0033597587607801,-0.00885754637420177,0.000916297896765172
5,1.01944450285877,0.0194444453391775,0.148611115453114,0.000305432622553781,-0.000610865245107561,0.0045814891345799
5,1.00833336779274,0.0152777788063885,0.14722222356986,-0.00122173049021512,-0.00122173049021512,0.00152716308366507
5,1.00833336779274,0.0194444453391775,0.151388899219622,-0.0021380283869803,-0.00397062394768,-0.00152716308366507
5,1.01111115155925,0.0180555564949145,0.154166670830166,0.000916297896765172,-0.00916297826915979,-0.00549778714776039
5,1.01388893532575,0.0166666676506515,0.151388899219622,-0.00122173049021512,-0.01588249579072,-0.00488692196086049
5,1.01666671909226,0.0138888899621255,0.148611115453114,-0.00244346098043024,0.0033597587607801,-0.00977384392172098
5,1.02222228662528,0.0125000003581147,0.14583334384257,-0.00580321997404099,0.000610865245107561,-0.00824668072164059
5,1.01805561097552,0.0138888899621255,0.144444451959316,0.00183259579353034,-0.000305432622553781,-0.00610865233466029
5,1.01388893532575,0.0180555564949145,0.151388899219622,0.0045814891345799,-0.00122173049021512,-0.00366519158706069
5,1.01388893532575,0.0180555564949145,0.151388899219622,0.00519235478714108,-0.00580321997404099,-0.0128281703218818
5,1.01527782720901,0.00972222266958873,0.150000007336368,0.00671951752156019,0.0045814891345799,-0.011606439948082
5,1.01527782720901,0.0166666676506515,0.152777778946911,0.00549778714776039,0.0113010071218014,-0.013744467869401
5,1.01388893532575,0.0208333341834404,0.152777778946911,0.00794124789535999,-0.0033597587607801,-0.00519235478714108
5,1.01944450285877,0.0208333341834404,0.14583334384257,0.00794124789535999,-0.00610865233466029,0.000916297896765172
5,1.01666671909226,0.0166666676506515,0.152777778946911,0.00519235478714108,-0.00122173049021512,-0.00152716308366507
5,1.00972225967599,0.0152777788063885,0.151388899219622,0.00610865233466029,0.00824668072164059,0.011606439948082
5,1.01388893532575,0.0194444453391775,0.150000007336368,0.00733038317412138,-0.00244346098043024,-0.00794124789535999
5,1.00972225967599,0.0166666676506515,0.152777778946911,0.00977384392172098,-0.00641408516094089,0.00122173049021512
5,1.01388893532575,0.0180555564949145,0.14722222356986,0.00183259579353034,-0.00549778714776039,-0.00152716308366507
5,1.01527782720901,0.0180555564949145,0.140277788465518,0.000305432622553781,-0.00244346098043024,0.00244346098043024
5,1.01805561097552,0.0138888899621255,0.14583334384257,0.00244346098043024,0.000305432622553781,-0.0125227374956012
5,1.01666671909226,0.0180555564949145,0.144444451959316,0.000916297896765172,0.000916297896765172,-0.0180205255746841
5,1.01527782720901,0.0138888899621255,0.144444451959316,0.000305432622553781,0.00305432616733015,-0.00946841109544039
5,1.01527782720901,0.0152777788063885,0.141666668192807,-0.0033597587607801,0.000305432622553781,-0.01588249579072
5,1.01527782720901,0.0194444453391775,0.143055560076062,0.00946841109544039,0.0131336031481624,-0.00488692196086049
5,1.00972225967599,0.0208333341834404,0.154166670830166,0.0109955742955208,0.0122173046693206,-0.0143553335219622
5,1.0125000434425,0.0222222230277034,0.163888889701015,0.0100792767480016,0.0113010071218014,-0.00702495034784079
5,1.00972225967599,0.026388891079988,0.159722226207217,0.013744467869401,0.00977384392172098,-0.0027488935738802
5,1.00972225967599,0.029166668768514,0.151388899219622,0.0103847095742822,-0.00427605677396059,-0.00366519158706069
5,1.01666671909226,0.0208333341834404,0.159722226207217,0.0131336031481624,-0.0045814891345799,-0.00397062394768
5,1.01805561097552,0.0194444453391775,0.14583334384257,0.0222965814173222,-0.000610865245107561,-0.000305432622553781
5,1.01805561097552,0.0194444453391775,0.143055560076062,0.0232128798961639,-0.000916297896765172,-0.00122173049021512
5,1.0125000434425,0.0222222230277034,0.14722222356986,0.0229074470698834,-0.00488692196086049,-0.000610865245107561
5,1.01805561097552,0.0222222230277034,0.150000007336368,0.00885754637420177,-0.00855211354792118,-0.00916297826915979
5,1.01527782720901,0.0250000007162294,0.143055560076062,0.0100792767480016,0.0140499006956816,-0.00427605677396059
5,1.01527782720901,0.027777779924251,0.15555556271342,-0.00366519158706069,0.0131336031481624,0.00397062394768
5,1.0125000434425,0.0250000007162294,0.154166670830166,0.00702495034784079,-0.00366519158706069,-0.0109955742955208
5,1.0125000434425,0.0250000007162294,0.161111118090472,0.00519235478714108,0.00397062394768,-0.00855211354792118
5,1.0125000434425,0.0250000007162294,0.161111118090472,0.00366519158706069,0.00152716308366507,-0.0122173046693206
5,1.01805561097552,0.0194444453391775,0.169444445078067,0.000916297896765172,0.011606439948082,-0.00916297826915979
5,1.01527782720901,0.0222222230277034,0.152777778946911,0.00794124789535999,0.00244346098043024,0.00122173049021512
5,1.01527782720901,0.0222222230277034,0.152777778946911,0.00733038317412138,0.00977384392172098,-0.00519235478714108
5,1.00972225967599,0.0208333341834404,0.161111118090472,0.0021380283869803,0.00946841109544039,-0.000305432622553781
5,1.01111115155925,0.0194444453391775,0.150000007336368,0.00610865233466029,0.0161879286170006,-0.00519235478714108
5,1.01111115155925,0.0250000007162294,0.158333334323963,0.01191187184304,0.011606439948082,-0.00794124789535999
5,1.01111115155925,0.0250000007162294,0.158333334323963,0.0131336031481624,0.0106901414692402,-0.00610865233466029
5,1.01944450285877,0.029166668768514,0.152777778946911,0.00733038317412138,0.00610865233466029,-0.0033597587607801
5,1.0125000434425,0.027777779924251,0.159722226207217,-0.000305432622553781,0.0021380283869803,0.0033597587607801
5,1.0125000434425,0.027777779924251,0.159722226207217,-0.00244346098043024,0.01191187184304,0.00122173049021512
5,1.01388893532575,0.027777779924251,0.151388899219622,-0.0045814891345799,0.00519235478714108,-0.00488692196086049
5,1.0125000434425,0.029166668768514,0.154166670830166,0.00397062394768,-0.0027488935738802,0.00549778714776039
5,1.0125000434425,0.029166668768514,0.154166670830166,0.00366519158706069,0.000916297896765172,-0.00305432616733015
5,1.0125000434425,0.029166668768514,0.15555556271342,0.00152716308366507,0.00794124789535999,0.0033597587607801
5,1.01527782720901,0.029166668768514,0.150000007336368,-0.000916297896765172,0.0033597587607801,0.000610865245107561
5,1.01527782720901,0.029166668768514,0.150000007336368,-0.000305432622553781,-0.00702495034784079,0.00183259579353034
5,1.00833336779274,0.0236111118719664,0.154166670830166,-0.0033597587607801,-0.00122173049021512,-0.00641408516094089
5,1.01388893532575,0.0250000007162294,0.156944454596674,-0.000916297896765172,0.00244346098043024,-0.00794124789535999
5,1.01527782720901,0.027777779924251,0.161111118090472,0.000610865245107561,0.000305432622553781,0.0021380283869803
5,1.00972225967599,0.0222222230277034,0.154166670830166,0.0045814891345799,-0.000305432622553781,0.000610865245107561
5,1.00833336779274,0.0222222230277034,0.158333334323963,-0.00183259579353034,-0.00183259579353034,-0.000610865245107561
5,1.0125000434425,0.0250000007162294,0.161111118090472,-0.00519235478714108,-0.00641408516094089,-0.00122173049021512
5,1.01527782720901,0.026388891079988,0.161111118090472,0.000305432622553781,-0.00580321997404099,-0.00427605677396059
5,1.01944450285877,0.0222222230277034,0.151388899219622,0.00427605677396059,0.00122173049021512,-0.00641408516094089
5,1.0125000434425,0.0222222230277034,0.162500009973726,0.0186313893646002,0.00152716308366507,-0.0021380283869803
5,1.00833336779274,0.0222222230277034,0.154166670830166,0.00977384392172098,-0.0033597587607801,-0.00122173049021512
5,1.00972225967599,0.0194444453391775,0.140277788465518,0.0021380283869803,-0.00366519158706069,-0.00427605677396059
5,1.01527782720901,0.0194444453391775,0.14722222356986,0.0100792767480016,0.00580321997404099,-0.00641408516094089
5,1.0125000434425,0.0222222230277034,0.15555556271342,0.00641408516094089,0.00641408516094089,0.00702495034784079
5,1.00833336779274,0.029166668768514,0.154166670830166,0.00855211354792118,-0.00488692196086049,-0.0021380283869803
5,1.00833336779274,0.03194444645704,0.162500009973726,0.0131336031481624,-0.00794124789535999,-0.0021380283869803
5,1.0125000434425,0.0236111118719664,0.163888889701015,0.00580321997404099,-0.00702495034784079,-0.00671951752156019
5,1.01666671909226,0.027777779924251,0.159722226207217,0.000610865245107561,0.00366519158706069,-0.00824668072164059
5,1.01527782720901,0.0250000007162294,0.154166670830166,0.00152716308366507,-0.00824668072164059,-0.00794124789535999
5,1.0125000434425,0.029166668768514,0.159722226207217,0.00427605677396059,-0.00122173049021512,-0.0103847095742822
5,1.01388893532575,0.0194444453391775,0.154166670830166,0.0152716310694814,-0.0045814891345799,-0.00580321997404099
5,1.01111115155925,0.0152777788063885,0.150000007336368,0.00885754637420177,0.00244346098043024,-0.00580321997404099
5,1.01666671909226,0.0152777788063885,0.154166670830166,0.01588249579072,-0.000610865245107561,-0.01588249579072
5,1.01666671909226,0.0250000007162294,0.150000007336368,0.0167987942695618,-0.00397062394768,-0.00244346098043024
5,1.0125000434425,0.030555557612777,0.154166670830166,0.0100792767480016,0.000916297896765172,0.00549778714776039
5,1.01527782720901,0.0152777788063885,0.150000007336368,0.0131336031481624,0.00366519158706069,0.00549778714776039
5,1.01388893532575,0.0194444453391775,0.156944454596674,0.0128281703218818,0.00671951752156019,0.00122173049021512
5,1.0125000434425,0.0208333341834404,0.16527778158427,0.00733038317412138,0.00183259579353034,0.000916297896765172
5,1.0125000434425,0.026388891079988,0.156944454596674,0.00427605677396059,0.00671951752156019,-0.0033597587607801
5,1.01527782720901,0.029166668768514,0.161111118090472,0.00824668072164059,0.00641408516094089,0.00794124789535999
5,1.0125000434425,0.0222222230277034,0.144444451959316,0.0045814891345799,0.00549778714776039,0.000610865245107561
5,1.01527782720901,0.0208333341834404,0.14722222356986,0.00488692196086049,0.0149661982432008,0.00183259579353034
5,1.0125000434425,0.0236111118719664,0.14722222356986,0.00366519158706069,0.0177150927484035,0.00244346098043024
5,1.01388893532575,0.0222222230277034,0.148611115453114,-0.00183259579353034,0.02382374368608,0.00824668072164059
5,1.00972225967599,0.0194444453391775,0.144444451959316,-0.00183259579353034,0.0329867228865623,0.00549778714776039
5,1.0125000434425,0.0222222230277034,0.151388899219622,0.00519235478714108,0.0186313893646002,-0.00366519158706069
5,1.01666671909226,0.0222222230277034,0.158333334323963,0.00855211354792118,0.0164933614432812,0.00122173049021512
5,1.01527782720901,0.0208333341834404,0.163888889701015,0.00152716308366507,0.0201585534960032,0.00885754637420177
5,1.01111115155925,0.0222222230277034,0.156944454596674,-0.000305432622553781,0.02382374368608,0.0122173046693206
5,1.01527782720901,0.0236111118719664,0.162500009973726,-0.0045814891345799,0.0268780700862408,0.00427605677396059
5,1.01527782720901,0.0236111118719664,0.161111118090472,-0.0167987942695618,0.0342084541916847,0.0033597587607801
5,1.01527782720901,0.029166668768514,0.162500009973726,-0.0103847095742822,0.0378736443817616,-0.000305432622553781
5,1.01527782720901,0.030555557612777,0.154166670830166,-0.0045814891345799,0.0146607663482428,0.00824668072164059
5,1.01666671909226,0.027777779924251,0.161111118090472,-0.0177150927484035,0.0207694191485643,0.00855211354792118
5,1.00972225967599,0.03194444645704,0.161111118090472,-0.0192422550171614,0.0305432621389627,0.00946841109544039
5,1.00555558402623,0.033333335301303,0.170833336961321,-0.0277943685650826,0.0229074470698834,0.0140499006956816
5,1.00694447590948,0.030555557612777,0.176388892338373,-0.0164933614432812,0.0027488935738802,0.0021380283869803
5,1.00972225967599,0.026388891079988,0.168055565350778,-0.01191187184304,0.00397062394768,0.00763581553474069
5,1.01527782720901,0.0222222230277034,0.161111118090472,-0.0244346093386412,0.0128281703218818,0.0021380283869803
5,1.01944450285877,0.0236111118719664,0.159722226207217,-0.0122173046693206,0.0299323964864016,-0.000305432622553781
5,1.01527782720901,0.0250000007162294,0.162500009973726,-0.01588249579072,0.0219911485910416,0.00916297826915979
5,1.00833336779274,0.0250000007162294,0.163888889701015,-0.0210748501121998,0.0262672062963247,0.00488692196086049
5,1.00972225967599,0.0236111118719664,0.151388899219622,-0.013744467869401,0.0204639863222837,0.00763581553474069
5,1.0125000434425,0.0194444453391775,0.152777778946911,-0.0128281703218818,0.0265726372599602,0.00305432616733015
5,1.00833336779274,0.0208333341834404,0.179166676104882,0.00183259579353034,0.0207694191485643,0.0033597587607801
5,1.00416669214298,0.0208333341834404,0.175000000455119,0.00702495034784079,0.000610865245107561,0.00671951752156019
5,1.00555558402623,0.0222222230277034,0.172222228844576,-0.000610865245107561,-0.013744467869401,0.0103847095742822
5,1.01388893532575,0.0222222230277034,0.162500009973726,0.00397062394768,-0.00916297826915979,-0.0021380283869803
5,1.0125000434425,0.0152777788063885,0.17361112072783,0.00366519158706069,-0.00916297826915979,-0.00183259579353034
5,1.01527782720901,0.0138888899621255,0.161111118090472,0.00549778714776039,-0.00824668072164059,0.000610865245107561
5,1.0125000434425,0.0194444453391775,0.16527778158427,0.00610865233466029,0.00488692196086049,0.000610865245107561
5,1.0125000434425,0.0166666676506515,0.158333334323963,0.00824668072164059,0.00671951752156019,-0.00580321997404099
5,1.01388893532575,0.0208333341834404,0.163888889701015,0.00946841109544039,0.0100792767480016,0.00580321997404099
5,1.01388893532575,0.0194444453391775,0.162500009973726,0.00183259579353034,0.0140499006956816,0.00519235478714108
5,1.00972225967599,0.0180555564949145,0.161111118090472,0.00641408516094089,0.00641408516094089,0.000916297896765172
5,1.00694447590948,0.0222222230277034,0.161111118090472,0.00152716308366507,0.00885754637420177,0.00244346098043024
5,1.00694447590948,0.0250000007162294,0.163888889701015,0.00916297826915979,0.00763581553474069,0.00824668072164059
5,1.01388893532575,0.0194444453391775,0.162500009973726,0.00580321997404099,0.01588249579072,0.0106901414692402
5,1.0125000434425,0.0152777788063885,0.163888889701015,0.00580321997404099,0.0201585534960032,0.00763581553474069
5,1.01111115155925,0.0152777788063885,0.166666673467524,0.00610865233466029,0.0143553335219622,-0.000305432622553781
5,1.00972225967599,0.0152777788063885,0.161111118090472,0.00733038317412138,0.019547687843442,0.00244346098043024
5,1.01111115155925,0.0222222230277034,0.169444445078067,0.00244346098043024,0.0171042270958424,-0.00122173049021512
5,1.01111115155925,0.0222222230277034,0.169444445078067,0.0250454749912024,0.0164933614432812,0.0027488935738802
5,1.0125000434425,0.026388891079988,0.16527778158427,0.0277943685650826,0.0210748501121998,0.00824668072164059
5,1.0125000434425,0.026388891079988,0.16527778158427,0.01191187184304,0.00580321997404099,-0.000305432622553781
5,1.00972225967599,0.0194444453391775,0.17361112072783,0.00916297826915979,0.019547687843442,0.00549778714776039
5,1.00694447590948,0.0236111118719664,0.170833336961321,0.00122173049021512,0.00702495034784079,0.00977384392172098
5,1.00694447590948,0.0236111118719664,0.170833336961321,0.000916297896765172,-0.00610865233466029,0.00946841109544039
5,1.00972225967599,0.027777779924251,0.170833336961321,0.0167987942695618,0.000916297896765172,-0.000916297896765172
5,1.0125000434425,0.0222222230277034,0.163888889701015,0.00794124789535999,0.0106901414692402,0.00305432616733015
5,1.0125000434425,0.0138888899621255,0.170833336961321,0.00671951752156019,0.00733038317412138,-0.00824668072164059
5,1.00972225967599,0.0208333341834404,0.166666673467524,0.00885754637420177,0.0033597587607801,0.00366519158706069
5,1.0125000434425,0.0180555564949145,0.169444445078067,0.0143553335219622,-0.00733038317412138,-0.0033597587607801
5,1.00972225967599,0.0208333341834404,0.161111118090472,0.013744467869401,-0.00366519158706069,0.00946841109544039
5,1.01111115155925,0.0208333341834404,0.162500009973726,0.0103847095742822,-0.00152716308366507,-0.00824668072164059
5,1.00972225967599,0.0208333341834404,0.163888889701015,0.011606439948082,-0.00733038317412138,-0.0100792767480016
5,1.00972225967599,0.0222222230277034,0.159722226207217,0.0021380283869803,-0.00641408516094089,0.0021380283869803
5,1.0125000434425,0.0250000007162294,0.166666673467524,0.00152716308366507,-0.00733038317412138,0.0033597587607801
5,1.0125000434425,0.0208333341834404,0.170833336961321,0.00946841109544039,-0.00397062394768,0.00488692196086049
5,1.00833336779274,0.0208333341834404,0.168055565350778,0.0128281703218818,-0.00733038317412138,0.00305432616733015
5,1.01388893532575,0.0138888899621255,0.170833336961321,0.00977384392172098,0.00397062394768,-0.00824668072164059
5,1.00972225967599,0.0125000003581147,0.180555567988136,0.00855211354792118,-0.00305432616733015,-0.00885754637420177
5,1.00972225967599,0.0194444453391775,0.176388892338373,0.00305432616733015,-0.00916297826915979,-0.00122173049021512
5,1.00694447590948,0.0180555564949145,0.181944447715425,0.0033597587607801,-0.00977384392172098,-0.00397062394768
5,1.00555558402623,0.0208333341834404,0.166666673467524,0.00580321997404099,-0.015577063895762,-0.00122173049021512
5,1.00972225967599,0.0194444453391775,0.16527778158427,0.00366519158706069,-0.0103847095742822,0.000305432622553781
5,1.01111115155925,0.0180555564949145,0.163888889701015,0.00916297826915979,-0.0033597587607801,0.000610865245107561
5,1.0125000434425,0.0194444453391775,0.172222228844576,0.0109955742955208,-0.0106901414692402,0.000610865245107561
5,1.0125000434425,0.0166666676506515,0.166666673467524,0.0113010071218014,-0.0033597587607801,-0.00397062394768
5,1.00694447590948,0.0208333341834404,0.17361112072783,0.00885754637420177,-0.0250454749912024,0.00122173049021512
5,1.00416669214298,0.0152777788063885,0.168055565350778,0.0122173046693206,-0.0201585534960032,0.00122173049021512
5,1.00972225967599,0.0152777788063885,0.163888889701015,0.00763581553474069,-0.015577063895762,0.000305432622553781
5,1.0125000434425,0.0194444453391775,0.156944454596674,0.01191187184304,-0.0100792767480016,0.00549778714776039
5,1.01111115155925,0.027777779924251,0.166666673467524,0.0140499006956816,-0.00946841109544039,0.0113010071218014
5,1.0125000434425,0.029166668768514,0.170833336961321,0.0164933614432812,-0.0152716310694814,0.00305432616733015
5,1.01388893532575,0.0166666676506515,0.158333334323963,0.00794124789535999,-0.00794124789535999,0.00152716308366507
5,1.00972225967599,0.0208333341834404,0.168055565350778,0.00763581553474069,-0.013744467869401,0.00855211354792118
5,1.00555558402623,0.0250000007162294,0.16527778158427,0.00610865233466029,-0.0332921557128429,0.00519235478714108
5,1.00833336779274,0.0222222230277034,0.16527778158427,0.0125227374956012,-0.0290160998702049,-0.00671951752156019
5,1.00972225967599,0.0222222230277034,0.162500009973726,0.00824668072164059,-0.0222965814173222,0.0033597587607801
5,1.01388893532575,0.0152777788063885,0.161111118090472,0.015577063895762,-0.0171042270958424,-0.00977384392172098
5,1.01527782720901,0.0194444453391775,0.166666673467524,0.0109955742955208,-0.0140499006956816,-0.0106901414692402
5,1.01388893532575,0.0236111118719664,0.166666673467524,0.00763581553474069,-0.0201585534960032,0.00519235478714108
5,1.01527782720901,0.027777779924251,0.154166670830166,0.00580321997404099,-0.021685715764761,0.0122173046693206
5,1.00972225967599,0.0222222230277034,0.168055565350778,0.0100792767480016,-0.0213802829384804,0.0106901414692402
5,1.00555558402623,0.0180555564949145,0.166666673467524,0.0106901414692402,-0.0192422550171614,0.01191187184304
5,1.0125000434425,0.0194444453391775,0.15555556271342,0.011606439948082,-0.0222965814173222,0.0045814891345799
5,1.0125000434425,0.0208333341834404,0.161111118090472,0.0171042270958424,-0.0113010071218014,0.000305432622553781
5,1.01944450285877,0.0194444453391775,0.16527778158427,0.0103847095742822,-0.0125227374956012,0.00183259579353034
5,1.01944450285877,0.0180555564949145,0.156944454596674,0.0171042270958424,-0.00885754637420177,0.00488692196086049
5,1.01944450285877,0.0180555564949145,0.166666673467524,0.0167987942695618,-0.00519235478714108,-0.00305432616733015
5,1.01527782720901,0.0138888899621255,0.166666673467524,0.0140499006956816,-0.00549778714776039,-0.015577063895762
5,1.01388893532575,0.0180555564949145,0.161111118090472,0.00488692196086049,-0.00244346098043024,-0.0109955742955208
5,1.0125000434425,0.030555557612777,0.16527778158427,0.00519235478714108,-0.00671951752156019,-0.00488692196086049
5,1.01388893532575,0.0222222230277034,0.156944454596674,0.011606439948082,-0.0103847095742822,-0.00152716308366507
5,1.0125000434425,0.0180555564949145,0.156944454596674,0.01191187184304,-0.0106901414692402,0.000610865245107561
